,Ax,Ay,Az,Gx,Gy,Gz,distance,shot_type
0,0.66064453125,-0.5703125,-0.37890625,11.219512195121952,1.2195121951219514,-5.487804878048781,90,8
1,0.6318359375,-0.623046875,-0.3466796875,13.658536585365855,0.0,-4.878048780487806,90,8
2,0.6142578125,-0.65625,-0.33056640625,16.34146341463415,-1.2804878048780488,-4.573170731707317,90,8
3,0.591796875,-0.6845703125,-0.34228515625,17.743902439024392,-2.1951219512195124,-3.780487804878049,90,8
4,0.57080078125,-0.69482421875,-0.36376953125,19.32926829268293,-3.658536585365854,-1.707317073170732,90,8
5,0.568359375,-0.67919921875,-0.3994140625,19.512195121951223,-3.9024390243902443,0.853658536585366,90,8
6,0.57421875,-0.646484375,-0.4111328125,15.609756097560977,-2.804878048780488,3.048780487804878,90,8
7,0.5908203125,-0.60205078125,-0.42626953125,9.51219512195122,-15.426829268292684,5.060975609756098,90,8
8,0.60009765625,-0.576171875,-0.42431640625,4.51219512195122,2.7439024390243905,7.195121951219513,90,8
9,0.59521484375,-0.58984375,-0.412109375,4.085365853658537,2.0121951219512195,8.048780487804878,90,8
10,0.6064453125,-0.58984375,-0.42333984375,5.060975609756098,1.0365853658536586,8.475609756097562,90,8
11,0.6044921875,-0.60107421875,-0.43115234375,4.695121951219512,0.3658536585365854,8.658536585365855,90,8
12,0.60791015625,-0.57861328125,-0.44580078125,4.085365853658537,-0.5487804878048781,8.536585365853659,90,8
13,0.6083984375,-0.5703125,-0.45849609375,3.5975609756097566,-0.5487804878048781,8.475609756097562,90,8
14,0.6025390625,-0.578125,-0.44921875,2.439024390243903,-0.5487804878048781,8.597560975609756,90,8
15,0.5966796875,-0.5859375,-0.43017578125,1.7682926829268295,-1.7682926829268295,7.987804878048781,90,8
16,0.58837890625,-0.5732421875,-0.40234375,2.7439024390243905,-2.5,5.975609756097562,90,8
17,0.607421875,-0.54345703125,-0.3603515625,4.695121951219512,-4.146341463414634,3.8414634146341466,90,8
18,0.611328125,-0.52001953125,-0.33984375,7.01219512195122,-5.426829268292684,1.9512195121951221,90,8
19,0.625,-0.51171875,-0.34716796875,9.51219512195122,-8.109756097560977,0.1829268292682927,90,8
20,0.63232421875,-0.4951171875,-0.32080078125,11.28048780487805,-8.597560975609756,-1.6463414634146343,90,8
21,0.6669921875,-0.45361328125,-0.33154296875,11.646341463414634,-8.597560975609756,-3.9024390243902443,90,8
22,0.708984375,-0.40185546875,-0.28271484375,10.670731707317074,-7.8048780487804885,-5.670731707317073,90,8
23,0.70556640625,-0.39404296875,-0.26123046875,9.878048780487806,-6.951219512195123,-7.01219512195122,90,8
24,0.69775390625,-0.39794921875,-0.23876953125,8.292682926829269,-4.939024390243903,-7.865853658536586,90,8
25,0.72265625,-0.392578125,-0.23583984375,5.3048780487804885,-3.1707317073170733,-8.658536585365855,90,8
26,0.72119140625,-0.40185546875,-0.24072265625,3.963414634146342,-1.7682926829268295,-8.719512195121952,90,8
27,0.71826171875,-0.43115234375,-0.27099609375,2.25609756097561,-0.30487804878048785,-8.292682926829269,90,8
28,0.71044921875,-0.47412109375,-0.2939453125,0.0,2.5609756097560976,-7.621951219512196,90,8
29,0.69970703125,-0.49609375,-0.2861328125,-2.1951219512195124,5.731707317073171,-7.439024390243903,90,8
30,0.69775390625,-0.48779296875,-0.26123046875,-0.1829268292682927,5.487804878048781,-7.560975609756098,90,8
31,0.6826171875,-0.51220703125,-0.24169921875,4.634146341463415,4.451219512195122,-7.8048780487804885,90,8
32,0.67578125,-0.501953125,-0.27685546875,5.609756097560976,5.3048780487804885,-8.231707317073171,90,8
33,0.69140625,-0.49169921875,-0.3232421875,3.414634146341464,7.378048780487806,-8.353658536585366,90,8
34,0.68408203125,-0.494140625,-0.3212890625,1.9512195121951221,7.560975609756098,-8.658536585365855,90,8
35,0.68505859375,-0.49658203125,-0.326171875,0.1829268292682927,8.353658536585366,-8.841463414634147,90,8
36,0.69482421875,-0.5087890625,-0.33642578125,-2.439024390243903,9.085365853658537,-8.475609756097562,90,8
37,0.68115234375,-0.515625,-0.310546875,-4.573170731707317,11.158536585365855,-8.353658536585366,90,8
38,0.67822265625,-0.54296875,-0.29931640625,-6.402439024390245,12.439024390243903,-8.109756097560977,90,8
39,0.669921875,-0.5625,-0.28125,-6.219512195121951,13.353658536585368,-7.317073170731708,90,8
40,0.66796875,-0.58154296875,-0.27099609375,-5.670731707317073,14.634146341463415,-6.158536585365854,90,8
41,0.658203125,-0.5908203125,-0.28515625,-5.121951219512195,0.0,-4.939024390243903,90,8
42,0.6572265625,-0.6005859375,-0.27197265625,-4.146341463414634,15.54878048780488,-3.963414634146342,90,8
43,0.67919921875,-0.576171875,-0.30224609375,-2.5609756097560976,15.975609756097562,-3.231707317073171,90,8
44,0.70751953125,-0.55517578125,-0.2958984375,-2.6219512195121952,16.76829268292683,-2.378048780487805,90,8
45,0.71875,-0.5400390625,-0.3134765625,-4.085365853658537,17.378048780487806,-1.6463414634146343,90,8
46,0.74169921875,-0.53515625,-0.35302734375,-6.890243902439025,17.073170731707318,-1.829268292682927,90,8
47,0.62548828125,-0.51806640625,-0.35888671875,-9.817073170731708,17.743902439024392,-2.073170731707317,90,8
48,0.7431640625,-0.52978515625,-0.3642578125,-10.426829268292684,16.097560975609756,-3.048780487804878,90,8
49,0.71240234375,-0.591796875,-0.251953125,-7.378048780487806,11.76829268292683,-3.658536585365854,90,8
50,0.66845703125,-0.62890625,-0.3896484375,-4.207317073170732,8.902439024390244,-4.878048780487806,90,8
51,0.634765625,-0.6337890625,-0.40576171875,-3.1707317073170733,7.378048780487806,-4.695121951219512,90,8
52,0.60693359375,-0.630859375,-0.49853515625,-1.7682926829268295,5.731707317073171,-4.146341463414634,90,8
53,0.57568359375,-0.66015625,-0.359375,1.8902439024390245,4.451219512195122,-3.780487804878049,90,8
54,0.56884765625,-0.64697265625,-0.34619140625,2.5,6.219512195121951,-3.231707317073171,90,8
55,0.58935546875,-0.60888671875,-0.3515625,0.24390243902439027,8.170731707317074,-2.3170731707317076,90,8
56,0.5908203125,-0.59228515625,-0.35791015625,-2.378048780487805,10.731707317073171,-0.7926829268292683,90,8
57,0.58349609375,-0.5810546875,-0.3525390625,-4.085365853658537,11.951219512195124,-0.12195121951219513,90,8
58,0.58203125,-0.583984375,-0.32861328125,-2.378048780487805,10.914634146341465,-0.06097560975609757,90,8
59,0.5791015625,-0.59326171875,-0.33447265625,0.426829268292683,8.963414634146343,-0.48780487804878053,90,8
60,0.576171875,-0.60546875,-0.35302734375,3.658536585365854,5.914634146341464,-1.1585365853658538,90,8
61,0.56494140625,-0.58984375,-0.34912109375,6.585365853658537,3.1097560975609757,-0.9146341463414634,90,8
62,0.5849609375,-0.56201171875,-0.3466796875,8.902439024390244,0.48780487804878053,-0.853658536585366,90,8
63,0.59814453125,-0.54541015625,-0.32763671875,10.30487804878049,-0.9146341463414634,-0.5487804878048781,90,8
64,0.59228515625,-0.5556640625,-0.33251953125,9.51219512195122,-0.853658536585366,-0.30487804878048785,90,8
65,0.5927734375,-0.55126953125,-0.30322265625,9.451219512195122,-0.30487804878048785,-15.487804878048783,90,8
66,0.5947265625,-0.56982421875,-0.28564453125,8.597560975609756,0.6707317073170732,0.853658536585366,90,8
67,0.5908203125,-0.580078125,-0.2705078125,6.7682926829268295,2.5609756097560976,2.0121951219512195,90,8
68,0.58837890625,-0.591796875,-0.26904296875,5.365853658536586,4.329268292682928,2.804878048780488,90,8
69,0.6005859375,-0.58251953125,-0.251953125,8.048780487804878,2.9268292682926833,3.353658536585366,90,8
70,0.59130859375,-0.60400390625,-0.13330078125,12.500000000000002,0.7926829268292683,3.231707317073171,90,8
71,0.59619140625,-0.5859375,-0.287109375,16.70731707317073,-1.0365853658536586,2.5,90,8
72,0.61767578125,-0.56787109375,-0.30029296875,18.53658536585366,-2.439024390243903,2.1341463414634148,90,8
73,0.6201171875,-0.544921875,-0.3203125,18.53658536585366,-2.5609756097560976,2.378048780487805,90,8
74,0.640625,-0.52783203125,-0.3193359375,16.03658536585366,-1.0975609756097562,2.5609756097560976,90,8
75,0.67236328125,-0.50830078125,-0.32763671875,11.219512195121952,2.5609756097560976,2.9268292682926833,90,8
76,0.68701171875,-0.49560546875,-0.31396484375,8.597560975609756,4.2682926829268295,3.231707317073171,90,8
77,0.67333984375,-0.51123046875,-0.31884765625,7.134146341463415,5.914634146341464,3.2926829268292686,90,8
78,0.68896484375,-0.4931640625,-0.31201171875,5.060975609756098,7.8048780487804885,2.6219512195121952,90,8
79,0.70458984375,-0.48486328125,-0.28466796875,4.390243902439025,8.414634146341465,2.1341463414634148,90,8
80,0.69482421875,-0.5078125,-0.26806640625,6.707317073170732,7.25609756097561,1.2195121951219514,90,8
81,0.7021484375,-0.62255859375,-0.12841796875,9.146341463414634,6.585365853658537,-0.24390243902439027,90,8
82,0.7138671875,-0.48388671875,-0.2451171875,10.487804878048781,6.158536585365854,-0.9756097560975611,90,8
83,0.71044921875,-0.490234375,-0.25830078125,11.341463414634147,5.426829268292684,-1.524390243902439,90,8
84,0.72021484375,-0.47998046875,-0.26806640625,12.378048780487806,4.695121951219512,-2.1341463414634148,90,8
85,0.7109375,-0.5048828125,-0.26416015625,13.658536585365855,4.451219512195122,-2.5609756097560976,90,8
86,0.70361328125,-0.52490234375,-0.2939453125,13.597560975609758,4.451219512195122,-3.2926829268292686,90,8
87,0.70068359375,-0.52001953125,-0.2783203125,12.500000000000002,5.3048780487804885,-3.7195121951219514,90,8
88,0.701171875,-0.52587890625,-0.27294921875,10.548780487804878,6.829268292682928,-3.414634146341464,90,8
89,0.67333984375,-0.5693359375,-0.25830078125,8.048780487804878,10.060975609756099,-2.3170731707317076,90,8
90,0.658203125,-0.59130859375,-0.2255859375,7.317073170731708,12.682926829268293,-1.5853658536585367,90,8
91,0.671875,-0.5966796875,-0.212890625,8.231707317073171,14.085365853658537,-1.3414634146341464,90,8
92,0.69775390625,-0.5791015625,-0.20068359375,9.329268292682928,14.939024390243905,-0.9756097560975611,90,8
93,0.701171875,-0.5732421875,-0.19287109375,9.146341463414634,16.097560975609756,-15.487804878048783,90,8
94,0.685546875,-0.58447265625,-0.2021484375,7.378048780487806,17.926829268292686,1.3414634146341464,90,8
95,0.677734375,-0.57421875,-0.17919921875,6.707317073170732,19.390243902439025,2.5,90,8
96,0.6708984375,-0.58984375,-0.17431640625,7.378048780487806,19.512195121951223,3.231707317073171,90,8
97,0.6591796875,-0.6025390625,-0.17529296875,9.390243902439025,18.963414634146343,3.7195121951219514,90,8
98,0.66357421875,-0.595703125,-0.19775390625,10.914634146341465,18.231707317073173,3.7195121951219514,90,8
99,0.67431640625,-0.564453125,-0.20458984375,10.670731707317074,18.902439024390244,3.353658536585366,90,8
100,0.68359375,-0.5400390625,-0.2177734375,9.085365853658537,20.853658536585368,3.414634146341464,90,8
101,0.68798828125,-0.53955078125,-0.2060546875,8.231707317073171,22.073170731707318,3.8414634146341466,90,8
102,0.6767578125,-0.55419921875,-0.208984375,7.439024390243903,23.963414634146343,4.634146341463415,90,8
103,0.66943359375,-0.56005859375,-0.18505859375,6.036585365853659,27.073170731707318,6.2804878048780495,90,8
104,0.66943359375,-0.578125,-0.1787109375,3.353658536585366,30.54878048780488,7.865853658536586,90,8
105,0.64453125,-0.58984375,-0.181640625,0.6707317073170732,33.71951219512196,9.695121951219512,90,8
106,0.65087890625,-0.57763671875,-0.1982421875,-3.4756097560975614,37.86585365853659,11.76829268292683,90,8
107,0.642578125,-0.552734375,-0.130859375,-11.463414634146343,41.890243902439025,12.073170731707318,90,8
108,0.6884765625,-0.46533203125,-0.29638671875,-23.04878048780488,48.59756097560976,13.536585365853659,90,8
109,0.70068359375,-0.41796875,-0.3251953125,-37.37804878048781,59.146341463414636,13.536585365853659,90,8
110,0.71630859375,-0.416015625,-0.30126953125,-53.90243902439025,70.1829268292683,13.719512195121952,90,8
111,0.62939453125,-0.38037109375,-0.2890625,-67.07317073170732,80.79268292682927,13.231707317073171,90,8
112,0.7587890625,-0.26025390625,-0.23779296875,-73.04878048780489,84.02439024390245,14.02439024390244,90,8
113,0.70654296875,-0.4443359375,-0.26806640625,-77.92682926829269,85.00000000000001,14.390243902439027,90,8
114,0.693359375,-0.416015625,-0.27392578125,-82.8658536585366,85.0609756097561,13.597560975609758,90,8
115,0.6953125,-0.40380859375,-0.27490234375,-85.0609756097561,85.3658536585366,12.682926829268293,90,8
116,0.6953125,-0.4033203125,-0.30078125,-91.28048780487806,88.84146341463415,11.52439024390244,90,8
117,0.705078125,-0.353515625,-0.32861328125,-102.6219512195122,93.10975609756099,10.670731707317074,90,8
118,0.73291015625,-0.3095703125,-0.322265625,-111.21951219512196,96.15853658536587,10.365853658536587,90,8
119,0.701171875,-0.353515625,-0.30078125,-113.90243902439025,93.78048780487806,8.658536585365855,90,8
120,0.65478515625,-0.4404296875,-0.3203125,-109.32926829268294,90.60975609756099,7.560975609756098,90,8
121,0.67333984375,-0.4501953125,-0.34814453125,-102.01219512195122,82.6219512195122,5.060975609756098,90,8
122,0.70654296875,-0.38818359375,-0.36962890625,-95.48780487804879,76.76829268292684,3.658536585365854,90,8
123,0.72021484375,-0.31591796875,-0.3955078125,-92.31707317073172,72.25609756097562,1.0975609756097562,90,8
124,0.734375,-0.2822265625,-0.39111328125,-89.81707317073172,70.1829268292683,-0.24390243902439027,90,8
125,0.8740234375,-0.2294921875,-0.39013671875,-91.21951219512196,68.71951219512195,-2.1341463414634148,90,8
126,0.7578125,-0.1962890625,-0.39453125,-94.14634146341464,68.29268292682927,-2.5,90,8
127,0.76318359375,-0.19140625,-0.412109375,-96.09756097560977,67.25609756097562,-3.1097560975609757,90,8
128,0.728515625,-0.18603515625,-0.38623046875,-97.8658536585366,66.89024390243902,-4.329268292682928,90,8
129,0.7373046875,-0.171875,-0.38671875,-99.02439024390245,66.46341463414635,-6.097560975609756,90,8
130,0.7275390625,-0.16796875,-0.38427734375,-100.54878048780489,66.03658536585367,-6.52439024390244,90,8
131,0.69970703125,-0.17626953125,-0.392578125,-102.6829268292683,63.963414634146346,-7.926829268292684,90,8
132,0.71337890625,-0.24462890625,-0.439453125,-105.60975609756099,63.65853658536586,-11.219512195121952,90,8
133,0.7470703125,-0.0654296875,-0.45751953125,-110.3048780487805,63.963414634146346,-13.170731707317074,90,8
134,0.74609375,-0.07080078125,-0.5126953125,-117.50000000000001,64.57317073170732,-16.890243902439025,90,8
135,0.74072265625,-0.05810546875,-0.5078125,-123.59756097560977,65.85365853658537,-20.121951219512198,90,8
136,0.62744140625,-0.0478515625,-0.478515625,-129.57317073170734,66.21951219512195,-23.719512195121954,90,8
137,0.6259765625,-0.04736328125,-0.43798828125,-135.4268292682927,67.13414634146342,-26.158536585365855,90,8
138,0.7353515625,-0.05810546875,-0.447265625,-141.03658536585368,67.13414634146342,-29.02439024390244,90,8
139,0.7265625,-0.05322265625,-0.45703125,-143.96341463414635,65.0,-15.670731707317074,90,8
140,0.744140625,-0.04931640625,-0.4638671875,-146.28048780487805,64.9390243902439,-34.69512195121951,90,8
141,0.77392578125,-0.05029296875,-0.451171875,-149.20731707317074,65.1219512195122,-37.25609756097561,90,8
142,0.78515625,-0.07568359375,-0.47607421875,-150.7926829268293,63.35365853658537,-40.97560975609756,90,8
143,0.83251953125,-0.10205078125,-0.47216796875,-151.46341463414635,62.50000000000001,-45.60975609756098,90,8
144,0.8837890625,0.07861328125,-0.46923828125,-155.609756097561,62.31707317073171,-50.426829268292686,90,8
145,0.93798828125,0.09130859375,-0.48974609375,-161.52439024390245,64.02439024390245,-55.54878048780488,90,8
146,0.9638671875,0.1005859375,-0.4619140625,-170.4268292682927,68.23170731707317,-61.34146341463415,90,8
147,0.98486328125,0.1005859375,-0.421875,-178.47560975609758,71.58536585365854,-66.28048780487805,90,8
148,0.99072265625,0.052734375,-0.4072265625,-183.0487804878049,73.53658536585367,-70.79268292682927,90,8
149,0.98828125,0.1201171875,-0.40087890625,-185.4878048780488,73.65853658536587,-75.73170731707317,90,8
150,0.96923828125,-0.0478515625,-0.3798828125,-185.4268292682927,73.65853658536587,-81.15853658536587,90,8
151,0.966796875,-0.05615234375,-0.357421875,-184.45121951219514,74.32926829268294,-85.91463414634147,90,8
152,0.8798828125,-0.015625,-0.341796875,-183.96341463414635,74.93902439024392,-91.58536585365854,90,8
153,1.0791015625,0.06884765625,-0.37890625,-183.59756097560978,74.69512195121952,-96.70731707317074,90,8
154,1.12451171875,0.24755859375,-0.3876953125,-187.19512195121953,76.15853658536587,-101.70731707317074,90,8
155,1.15625,0.1142578125,-0.4189453125,-193.0487804878049,78.53658536585367,-108.71951219512196,90,8
156,1.21826171875,0.162109375,-0.39453125,-197.50000000000003,82.25609756097562,-116.03658536585367,90,8
157,1.24560546875,0.1318359375,-0.38623046875,-200.85365853658539,84.51219512195122,-122.7439024390244,90,8
158,1.2490234375,0.10546875,-0.37060546875,-202.50000000000003,85.97560975609757,-128.90243902439025,90,8
159,1.2353515625,0.04931640625,-0.36083984375,-202.31707317073173,87.6219512195122,-134.87804878048783,90,8
160,1.24951171875,0.0126953125,-0.29345703125,-199.87804878048783,88.29268292682927,-139.69512195121953,90,8
161,1.25390625,-0.0400390625,-0.28173828125,-197.50000000000003,88.10975609756099,-142.5,90,8
162,1.2724609375,-0.033203125,-0.27880859375,-194.39024390243904,88.23170731707317,-144.9390243902439,90,8
163,1.29541015625,0.00146484375,-0.29736328125,-193.53658536585368,92.01219512195122,-149.57317073170734,90,8
164,1.34130859375,0.0595703125,-0.30712890625,-193.71951219512198,95.3048780487805,-152.6829268292683,90,8
165,1.38623046875,0.09228515625,-0.3271484375,-196.03658536585368,98.96341463414635,-156.64634146341464,90,8
166,1.4296875,0.11669921875,-0.3271484375,-198.0487804878049,102.43902439024392,-160.609756097561,90,8
167,1.46728515625,0.16796875,-0.33203125,-201.58536585365854,106.58536585365854,-165.3048780487805,90,8
168,1.48193359375,0.16796875,-0.34716796875,-206.58536585365854,110.48780487804879,-168.65853658536588,90,8
169,1.46728515625,0.16552734375,-0.2802734375,-207.9878048780488,114.75609756097562,-172.07317073170734,90,8
170,1.462890625,0.173828125,-0.2099609375,-205.91463414634148,117.01219512195122,-176.15853658536588,90,8
171,1.50634765625,0.1865234375,-0.20751953125,-200.1829268292683,117.62195121951221,-180.3658536585366,90,8
172,1.51904296875,0.2099609375,-0.20947265625,-193.47560975609758,118.90243902439025,-184.69512195121953,90,8
173,1.54150390625,0.22314453125,-0.22705078125,-190.3658536585366,120.2439024390244,-188.35365853658539,90,8
174,1.5595703125,0.2578125,-0.19140625,-186.95121951219514,122.7439024390244,-191.40243902439025,90,8
175,1.58544921875,0.29296875,-0.18212890625,-184.51219512195124,123.17073170731709,-193.78048780487808,90,8
176,1.61328125,0.32958984375,-0.1357421875,-181.09756097560978,126.21951219512196,-197.8048780487805,90,8
177,1.66357421875,0.3720703125,-0.083984375,-176.09756097560978,127.6829268292683,-202.7439024390244,90,8
178,1.68896484375,0.37353515625,-0.06591796875,-169.32926829268294,127.25609756097562,-206.58536585365854,90,8
179,1.69970703125,0.3876953125,-0.021484375,-161.15853658536588,127.31707317073172,-211.15853658536588,90,8
180,1.6982421875,0.38720703125,-0.03662109375,-151.95121951219514,124.45121951219514,-215.4878048780488,90,8
181,1.68359375,0.39990234375,-0.119140625,-142.6829268292683,125.06097560975611,-221.46341463414637,90,8
182,1.6884765625,0.4267578125,0.0244140625,-132.8658536585366,121.03658536585367,-226.70731707317074,90,8
183,1.62744140625,0.4619140625,0.0166015625,-126.95121951219514,120.91463414634147,-231.58536585365854,90,8
184,1.7685546875,0.4970703125,0.0478515625,-123.23170731707319,123.71951219512196,-236.82926829268294,90,8
185,1.7919921875,0.51123046875,0.0419921875,-121.03658536585367,124.26829268292684,-239.93902439024393,90,8
186,1.80078125,0.53857421875,0.06884765625,-120.54878048780489,127.56097560975611,-243.96341463414637,90,8
187,1.81640625,0.54638671875,0.03955078125,-122.31707317073172,128.53658536585368,-246.46341463414637,90,8
188,1.78369140625,0.51171875,0.04638671875,-122.01219512195124,128.41463414634148,-249.32926829268294,90,8
189,1.77783203125,0.50146484375,0.06103515625,-117.25609756097562,127.7439024390244,-252.43902439024393,90,8
190,1.87158203125,0.4677734375,0.1064453125,-111.52439024390245,127.19512195121952,-255.5487804878049,90,8
191,1.73046875,0.47802734375,0.1015625,-106.58536585365854,127.50000000000001,-258.5975609756098,90,8
192,1.6982421875,0.48486328125,0.138671875,-104.32926829268294,127.8048780487805,-260.609756097561,90,8
193,1.6748046875,0.45556640625,0.15380859375,-104.63414634146342,128.96341463414635,-262.6219512195122,90,8
194,1.646484375,0.41943359375,0.177734375,-104.63414634146342,130.97560975609758,-265.3048780487805,90,8
195,1.6103515625,0.34326171875,0.14990234375,-100.60975609756099,131.03658536585368,-267.5,90,8
196,1.57568359375,0.28662109375,0.1494140625,-95.0609756097561,130.4878048780488,-270.0609756097561,90,8
197,1.51220703125,0.208984375,0.0869140625,-89.75609756097562,129.26829268292684,-270.6707317073171,90,8
198,1.4404296875,0.13232421875,0.052734375,-82.6219512195122,127.62195121951221,-269.75609756097566,90,8
199,1.35009765625,0.0439453125,0.01416015625,-74.32926829268294,124.51219512195124,-268.4146341463415,90,8
200,1.27294921875,-0.00830078125,0.00341796875,-65.0,120.00000000000001,-266.95121951219517,90,8
201,1.20263671875,-0.048828125,-0.0185546875,-58.963414634146346,116.21951219512196,-264.51219512195127,90,8
202,1.15283203125,-0.08935546875,-0.02880859375,-57.50000000000001,114.45121951219514,-260.1829268292683,90,8
203,1.046875,-0.140625,-0.009765625,-56.89024390243903,111.52439024390245,-254.14634146341464,90,8
204,0.9765625,-0.16650390625,0.03662109375,-55.1219512195122,110.06097560975611,-247.9268292682927,90,8
205,0.87939453125,-0.18994140625,0.09423828125,-53.90243902439025,109.93902439024392,-241.89024390243904,90,8
206,0.80712890625,-0.1259765625,0.1416015625,-53.10975609756098,110.1829268292683,-235.97560975609758,90,8
207,0.75927734375,-0.31884765625,0.19287109375,-49.024390243902445,108.90243902439025,-231.40243902439028,90,8
208,0.72314453125,-0.36083984375,0.24365234375,-42.86585365853659,93.65853658536587,-228.41463414634148,90,8
209,0.67431640625,-0.39111328125,0.27783203125,-36.524390243902445,108.90243902439025,-224.08536585365854,90,8
210,0.6123046875,-0.43115234375,0.33837890625,-27.865853658536587,105.1829268292683,-220.4268292682927,90,8
211,0.57421875,-0.42822265625,0.41650390625,-19.207317073170735,100.85365853658537,-216.40243902439028,90,8
212,0.5361328125,-0.45458984375,0.4609375,-10.0,93.90243902439025,-209.69512195121953,90,8
213,0.5048828125,-0.546875,0.39306640625,-3.5975609756097566,91.15853658536587,-205.7926829268293,90,8
214,0.6103515625,-0.60107421875,0.25048828125,2.987804878048781,87.13414634146342,-200.4268292682927,90,8
215,0.49169921875,-0.68408203125,0.171875,10.792682926829269,83.47560975609757,-193.2926829268293,90,8
216,0.35498046875,-0.72119140625,0.11181640625,15.853658536585368,80.91463414634147,-183.96341463414635,90,8
217,0.13037109375,-0.72119140625,0.0703125,15.426829268292684,77.07317073170732,-186.21951219512198,90,8
218,-0.0166015625,-0.759765625,0.09228515625,7.682926829268293,77.7439024390244,-157.6219512195122,90,8
219,-0.1376953125,-0.86767578125,0.18310546875,-2.8658536585365857,78.17073170731707,-141.34146341463415,90,8
220,-0.26953125,-0.994140625,0.22314453125,-11.463414634146343,77.07317073170732,-122.98780487804879,90,8
221,-0.43603515625,-1.11181640625,0.16552734375,-17.621951219512198,72.8048780487805,-105.79268292682927,90,8
222,-0.5595703125,-1.24951171875,0.16455078125,-17.743902439024392,68.41463414634147,-86.52439024390245,90,8
223,-0.6767578125,-1.36083984375,0.20751953125,-16.585365853658537,63.65853658536586,-66.21951219512195,90,8
224,-0.7666015625,-1.4677734375,0.2421875,-13.658536585365855,57.43902439024391,-62.07317073170732,90,8
225,-0.79296875,-1.5810546875,0.0732421875,-10.426829268292684,53.47560975609757,-26.951219512195124,90,8
226,-0.76171875,-1.67626953125,0.03271484375,-7.682926829268293,48.41463414634147,-6.52439024390244,90,8
227,-0.75537109375,-1.8037109375,-0.0380859375,-1.6463414634146343,40.1829268292683,0.30487804878048785,90,8
228,-0.779296875,-1.93994140625,-0.08349609375,6.585365853658537,31.219512195121954,37.6829268292683,90,8
229,-0.794921875,-2.0126953125,-0.11572265625,12.926829268292684,24.02439024390244,59.63414634146342,90,8
230,-0.78369140625,-2.06787109375,-0.13427734375,18.658536585365855,16.76829268292683,83.84146341463415,90,8
231,-0.734375,-2.10595703125,-0.1240234375,23.10975609756098,8.414634146341465,106.28048780487806,90,8
232,-0.615234375,-2.1396484375,-0.11279296875,30.670731707317074,0.12195121951219513,128.109756097561,90,8
233,-0.4609375,-2.1669921875,-0.19287109375,38.59756097560976,-9.695121951219512,152.43902439024393,90,8
234,-0.3701171875,-2.24853515625,-0.26953125,31.219512195121954,-18.963414634146343,180.06097560975613,90,8
235,-0.32958984375,-2.31005859375,-0.50146484375,56.21951219512196,-27.073170731707318,207.31707317073173,90,8
236,-0.21484375,-2.359375,-0.48876953125,65.2439024390244,-35.609756097560975,233.53658536585368,90,8
237,-0.0732421875,-2.4072265625,-0.49951171875,72.98780487804879,-43.04878048780488,261.76829268292687,90,8
238,0.0771484375,-2.47216796875,-0.51904296875,79.69512195121952,-49.51219512195122,287.8048780487805,90,8
239,0.30517578125,-2.52001953125,-0.533203125,85.85365853658537,-56.89024390243903,298.3536585365854,90,8
240,0.57958984375,-2.5810546875,-0.56689453125,93.59756097560977,-62.13414634146342,339.93902439024396,90,8
241,0.76953125,-2.50048828125,-0.5615234375,97.92682926829269,-65.1219512195122,365.9756097560976,90,8
242,1.2119140625,-2.70849609375,-0.6435546875,97.37804878048782,-69.51219512195122,394.69512195121956,90,8
243,1.48974609375,-2.771484375,-0.7021484375,96.95121951219512,-77.01219512195122,427.07317073170736,90,8
244,1.83544921875,-2.84912109375,-0.83447265625,105.73170731707317,-90.00000000000001,461.2804878048781,90,8
245,2.130859375,-2.84130859375,-1.0751953125,112.31707317073172,-102.37804878048782,489.81707317073176,90,8
246,2.64697265625,-2.7578125,-1.3818359375,109.51219512195122,-121.82926829268294,517.5,90,8
247,3.18212890625,-2.6806640625,-1.79150390625,125.2439024390244,-137.01219512195124,539.0853658536586,90,8
248,3.8916015625,-2.60888671875,-1.95703125,161.40243902439025,-125.2439024390244,561.829268292683,90,8
249,4.48486328125,-2.41943359375,-2.052734375,191.64634146341464,-145.2439024390244,588.9634146341464,90,8
250,5.126953125,-2.32763671875,-1.921875,228.96341463414637,-132.4390243902439,618.048780487805,90,8
251,5.64013671875,-2.28515625,-1.83642578125,251.89024390243904,-116.09756097560977,653.3536585365854,90,8
252,6.2451171875,-2.162109375,-1.99072265625,308.5365853658537,-93.84146341463415,683.048780487805,90,8
253,6.52685546875,-1.93701171875,-2.263671875,339.69512195121956,-76.28048780487805,712.6219512195123,90,8
254,6.53955078125,-2.0126953125,-2.46435546875,359.20731707317077,-81.28048780487805,736.6463414634147,90,8
255,6.556640625,-2.47119140625,-2.98095703125,432.31707317073176,-123.47560975609757,770.6707317073171,90,8
256,6.81982421875,-3.005859375,-3.52978515625,474.26829268292687,-140.6707317073171,800.0000000000001,90,8
257,7.4697265625,-3.40869140625,-4.2880859375,531.4634146341464,-201.15853658536588,867.8048780487806,90,8
258,7.650390625,-3.49951171875,-4.55615234375,610.9756097560976,-234.32926829268294,903.5365853658537,90,8
259,8.45068359375,-3.416015625,-4.873046875,678.6585365853659,-331.4024390243903,966.219512195122,90,8
260,8.564453125,-4.07421875,-5.95556640625,731.6463414634147,-407.74390243902445,990.3048780487806,90,8
261,8.708984375,-4.234375,-6.46142578125,865.3048780487806,-476.5853658536586,977.8048780487806,90,8
262,9.0576171875,-4.31005859375,-6.79638671875,1004.939024390244,-578.3536585365854,885.1219512195123,90,8
263,10.6923828125,-3.345703125,-7.4560546875,1115.3048780487807,-603.2926829268293,710.2439024390244,90,8
264,10.23974609375,-2.45263671875,-6.82666015625,1245.3658536585367,-445.9146341463415,490.8536585365854,90,8
265,3.28857421875,-4.53271484375,5.51318359375,1485.9756097560976,-388.9634146341464,481.70731707317077,90,8
266,5.27392578125,-9.53955078125,-10.79052734375,665.4268292682927,120.85365853658537,-359.81707317073176,90,8
267,15.99951171875,15.99951171875,-10.24755859375,1318.048780487805,-182.7439024390244,233.90243902439028,90,8
268,7.9033203125,4.99462890625,-0.171875,1319.878048780488,-467.31707317073176,64.87804878048782,90,8
269,9.22265625,0.72265625,0.11572265625,1300.7926829268295,-108.29268292682927,-104.81707317073172,90,8
270,5.37939453125,-0.16650390625,-1.451171875,1057.9878048780488,-143.2926829268293,-141.58536585365854,90,8
271,4.95166015625,0.78759765625,0.4248046875,920.9756097560977,57.6829268292683,-99.69512195121952,90,8
272,4.50390625,-2.63671875,-0.1083984375,942.9268292682927,-8.597560975609756,-113.47560975609757,90,8
273,3.63916015625,-3.85888671875,-1.15673828125,789.3902439024391,-30.243902439024392,-201.15853658536588,90,8
274,2.94482421875,-3.8623046875,-2.3212890625,710.1829268292684,-59.207317073170735,-308.1707317073171,90,8
275,4.22265625,-3.021484375,-2.1181640625,701.7073170731708,-124.51219512195124,-498.10975609756105,90,8
276,4.77587890625,-2.5068359375,-2.60986328125,621.7682926829269,-170.1219512195122,-647.5609756097562,90,8
277,4.61376953125,-2.26123046875,-2.5986328125,508.8414634146342,-76.64634146341464,-716.3414634146342,90,8
278,3.41943359375,-2.64599609375,-2.3212890625,390.06097560975616,17.926829268292686,-758.109756097561,90,8
279,2.5537109375,-3.06201171875,-2.60205078125,290.4268292682927,104.02439024390245,-775.2439024390245,90,8
280,1.74560546875,-2.6279296875,-2.845703125,229.57317073170734,188.35365853658539,-793.6585365853659,90,8
281,1.9814453125,-2.33349609375,-2.25341796875,141.64634146341464,292.07317073170736,-726.8902439024391,90,8
282,1.20947265625,-2.6083984375,-1.51416015625,99.14634146341464,351.2804878048781,-700.0000000000001,90,8
283,0.57958984375,-2.5771484375,-1.3076171875,78.04878048780489,393.719512195122,-658.9634146341464,90,8
284,0.70263671875,-2.16748046875,-1.30615234375,96.15853658536587,402.01219512195127,-640.4878048780488,90,8
285,0.97998046875,-1.810546875,-1.47021484375,81.89024390243902,408.9024390243903,-617.0121951219513,90,8
286,1.509765625,-1.36474609375,-1.62109375,40.85365853658537,419.69512195121956,-608.4146341463415,90,8
287,1.6279296875,-1.0849609375,-1.49365234375,0.7317073170731708,432.86585365853665,-580.7926829268293,90,8
288,1.7802734375,-0.74755859375,-1.19873046875,-27.500000000000004,445.00000000000006,-574.8780487804878,90,8
289,1.70458984375,-1.234375,-1.14208984375,-57.07317073170732,460.8536585365854,-551.0365853658537,90,8
290,1.66357421875,-1.25,-1.0966796875,-70.1219512195122,469.87804878048786,-548.719512195122,90,8
291,1.626953125,-1.14892578125,-1.22314453125,-73.90243902439025,466.0365853658537,-541.7682926829269,90,8
292,1.6015625,-1.0029296875,-1.4140625,-71.03658536585367,445.42682926829275,-520.4268292682927,90,8
293,1.32080078125,-0.89453125,-1.3583984375,-64.08536585365854,418.2926829268293,-504.75609756097566,90,8
294,1.15283203125,-0.6875,-1.271484375,-99.81707317073172,397.74390243902445,-485.42682926829275,90,8
295,0.921875,-0.607421875,-1.2724609375,-128.109756097561,376.219512195122,-459.45121951219517,90,8
296,0.7744140625,-0.3310546875,-1.19189453125,-152.5,366.2804878048781,-452.01219512195127,90,8
297,0.79541015625,-0.2060546875,-1.23974609375,-174.51219512195124,361.4634146341464,-436.4634146341464,90,8
298,0.72412109375,-0.22705078125,-1.24169921875,-189.20731707317074,351.2804878048781,-404.63414634146346,90,8
299,0.68603515625,-0.2880859375,-1.4853515625,-225.06097560975613,347.9268292682927,-405.12195121951225,90,8
300,0.71142578125,-0.3515625,-1.51123046875,-240.00000000000003,349.93902439024396,-374.81707317073176,90,8
301,0.7236328125,-0.3388671875,-1.5498046875,-252.80487804878052,333.719512195122,-350.7317073170732,90,8
302,0.71484375,-0.52294921875,-1.5556640625,-246.70731707317074,314.87804878048786,-324.51219512195127,90,8
303,0.291015625,-0.64599609375,-1.396484375,-251.40243902439028,306.89024390243907,-300.0609756097561,90,8
304,0.052734375,-0.6494140625,-1.01318359375,-249.20731707317074,300.7926829268293,-271.0365853658537,90,8
305,-0.24951171875,-0.884765625,-0.95654296875,-264.0853658536586,296.70731707317077,-252.50000000000003,90,8
306,-0.3203125,-0.73046875,-0.951171875,-282.3780487804878,291.1585365853659,-235.06097560975613,90,8
307,-0.384765625,-0.41650390625,-0.99853515625,-286.2804878048781,277.01219512195127,-206.46341463414635,90,8
308,-0.623046875,-0.37744140625,-0.88818359375,-262.9268292682927,264.63414634146346,-182.01219512195124,90,8
309,-0.68408203125,-0.39111328125,-1.0693359375,-242.25609756097563,236.64634146341464,-169.93902439024393,90,8
310,-0.61376953125,-0.33837890625,-0.85888671875,-231.21951219512198,222.13414634146343,-161.03658536585368,90,8
311,-0.57177734375,-0.3564453125,-0.7587890625,-226.76829268292684,205.1829268292683,-157.31707317073173,90,8
312,-0.64697265625,-0.28564453125,-0.8564453125,-217.25609756097563,197.31707317073173,-157.7439024390244,90,8
313,-0.662109375,-0.162109375,-0.775390625,-210.00000000000003,184.93902439024393,-154.75609756097563,90,8
314,-0.66845703125,-0.14501953125,-0.8564453125,-198.0487804878049,170.7317073170732,-148.2317073170732,90,8
315,-0.8388671875,-0.2109375,-0.88037109375,-185.06097560975613,154.45121951219514,-143.109756097561,90,8
316,-0.86962890625,-0.2861328125,-0.94775390625,-179.39024390243904,138.41463414634148,-135.6707317073171,90,8
317,-0.89208984375,-0.404296875,-0.98828125,-172.50000000000003,139.87804878048783,-140.3658536585366,90,8
318,-0.9765625,-0.478515625,-1.0068359375,-159.93902439024393,110.3048780487805,-124.20731707317074,90,8
319,-1.01611328125,-0.6083984375,-1.01220703125,-154.26829268292684,96.34146341463415,-98.35365853658537,90,8
320,-1.0986328125,-0.625,-1.009765625,-146.21951219512195,83.53658536585367,-91.34146341463415,90,8
321,-1.04248046875,-0.3798828125,-1.0947265625,-133.35365853658539,72.13414634146342,-85.73170731707317,90,8
322,-0.97900390625,-0.3212890625,-1.03759765625,-123.65853658536587,60.304878048780495,-81.46341463414635,90,8
323,-0.9140625,-0.26416015625,-0.9365234375,-113.10975609756099,52.19512195121952,-78.35365853658537,90,8
324,-0.888671875,-0.279296875,-0.9296875,-107.25609756097562,42.13414634146342,-70.1219512195122,90,8
325,-0.97265625,-0.3544921875,-0.9892578125,-100.06097560975611,46.707317073170735,-56.768292682926834,90,8
326,-1.12451171875,-0.52001953125,-1.02197265625,-90.42682926829269,16.951219512195124,-44.207317073170735,90,8
327,-1.234375,-0.66845703125,-1.05859375,-81.03658536585367,5.731707317073171,-34.268292682926834,90,8
328,-1.1328125,-0.71044921875,-1.041015625,-69.87804878048782,-6.2804878048780495,-26.28048780487805,90,8
329,-1.16845703125,-0.60205078125,-1.0234375,-56.40243902439025,-17.743902439024392,-14.51219512195122,90,8
330,-1.1669921875,-0.62939453125,-0.92138671875,-50.0609756097561,-24.634146341463417,-6.585365853658537,90,8
331,-1.115234375,-0.5517578125,-0.8662109375,-43.35365853658537,-16.03658536585366,0.853658536585366,90,8
332,-1.07421875,-0.423828125,-0.806640625,-36.09756097560976,-39.451219512195124,4.75609756097561,90,8
333,-1.03515625,-0.29541015625,-0.83154296875,-27.743902439024392,-48.90243902439025,6.951219512195123,90,8
334,-0.99365234375,-0.21435546875,-0.8349609375,-19.939024390243905,-57.25609756097561,7.987804878048781,90,8
335,-0.974609375,-0.16162109375,-0.80419921875,-13.78048780487805,-65.42682926829269,10.060975609756099,90,8
336,-0.99853515625,-0.1787109375,-0.7685546875,-9.695121951219512,-72.6219512195122,11.951219512195124,90,8
337,-1.013671875,-0.21044921875,-0.7666015625,-7.195121951219513,-79.57317073170732,14.085365853658537,90,8
338,-1.05908203125,-0.2578125,-0.80859375,-3.1707317073170733,-87.37804878048782,15.182926829268293,90,8
339,-1.05712890625,-0.2529296875,-0.76171875,6.2804878048780495,-94.75609756097562,18.170731707317074,90,8
340,-1.10009765625,-0.298828125,-0.61865234375,12.987804878048781,-99.81707317073172,21.34146341463415,90,8
341,-1.134765625,-0.31591796875,-0.5234375,0.06097560975609757,-102.7439024390244,25.0609756097561,90,8
342,-1.1640625,-0.27734375,-0.51025390625,19.81707317073171,-105.79268292682927,27.073170731707318,90,8
343,-1.15185546875,-0.224609375,-0.54931640625,25.30487804878049,-110.97560975609757,28.292682926829272,90,8
344,-1.1328125,-0.1396484375,-0.5732421875,32.743902439024396,-115.54878048780489,28.719512195121954,90,8
345,-1.10888671875,-0.09130859375,-0.5263671875,38.65853658536586,-119.75609756097562,28.963414634146343,90,8
346,-1.0947265625,-0.0693359375,-0.474609375,43.23170731707317,-123.35365853658537,28.902439024390247,90,8
347,-1.08837890625,-0.02880859375,-0.44384765625,47.804878048780495,-126.95121951219514,28.84146341463415,90,8
348,-1.09716796875,-0.03515625,-0.39208984375,52.19512195121952,-129.8780487804878,29.451219512195124,90,8
349,-1.109375,-0.04248046875,-0.35791015625,56.28048780487806,-132.5609756097561,30.30487804878049,90,8
350,-1.10107421875,-0.06103515625,-0.3486328125,58.53658536585366,-135.85365853658539,31.03658536585366,90,8
351,-1.10546875,-0.04296875,-0.32275390625,61.15853658536586,-138.35365853658539,30.975609756097565,90,8
352,-1.09765625,-0.0146484375,-0.29541015625,63.71951219512196,-141.95121951219514,31.219512195121954,90,8
353,-1.0654296875,0.01416015625,-0.24609375,66.70731707317074,-144.9390243902439,31.280487804878053,90,8
354,-1.041015625,0.03662109375,-0.1826171875,68.41463414634147,-146.09756097560978,31.58536585365854,90,8
355,-1.0146484375,0.02978515625,-0.14599609375,68.47560975609757,-147.7439024390244,32.5609756097561,90,8
356,-1.02734375,0.0078125,-0.1171875,69.14634146341464,-150.5487804878049,33.170731707317074,90,8
357,-1.02490234375,0.0078125,-0.0927734375,71.70731707317074,-152.5609756097561,33.65853658536586,90,8
358,-1.0009765625,0.02197265625,-0.0732421875,74.08536585365854,-155.1829268292683,33.78048780487805,90,8
359,-0.98193359375,0.0078125,-0.02001953125,75.67073170731707,-156.34146341463415,34.024390243902445,90,8
360,-0.95703125,0.0078125,0.0087890625,75.2439024390244,-156.70731707317074,33.90243902439025,90,8
361,-0.94140625,0.11962890625,0.04052734375,75.67073170731707,-156.95121951219514,32.987804878048784,90,8
362,-0.92822265625,0.04296875,0.06689453125,76.95121951219512,-160.6707317073171,31.82926829268293,90,8
363,-0.90771484375,0.04345703125,0.08740234375,79.75609756097562,-163.90243902439025,31.280487804878053,90,8
364,-0.88134765625,0.0537109375,0.00341796875,82.5609756097561,-165.1219512195122,30.243902439024392,90,8
365,-0.85498046875,0.06005859375,0.1513671875,86.76829268292684,-171.28048780487805,29.26829268292683,90,8
366,-0.84130859375,0.05908203125,0.154296875,89.63414634146342,-172.19512195121953,27.5609756097561,90,8
367,-0.8173828125,0.0732421875,0.1796875,90.48780487804879,-171.95121951219514,26.463414634146343,90,8
368,-0.7919921875,0.09228515625,0.19580078125,89.08536585365854,-171.58536585365854,26.402439024390247,90,8
369,-0.75341796875,0.11083984375,0.22021484375,86.95121951219512,-172.43902439024393,26.89024390243903,90,8
370,-0.73974609375,0.099609375,0.24755859375,86.28048780487805,-174.63414634146343,27.31707317073171,90,8
371,-0.73095703125,0.08203125,0.2470703125,88.90243902439025,-178.96341463414635,28.10975609756098,90,8
372,-0.73974609375,0.060546875,0.25927734375,92.25609756097562,-181.28048780487808,27.439024390243905,90,8
373,-0.68798828125,0.08056640625,0.30126953125,95.2439024390244,-182.19512195121953,26.28048780487805,90,8
374,-0.630859375,0.1083984375,0.337890625,95.85365853658537,-181.64634146341464,26.402439024390247,90,8
375,-0.5888671875,0.1298828125,0.3857421875,92.8658536585366,-179.81707317073173,27.682926829268297,90,8
376,-0.55908203125,0.13134765625,0.408203125,89.02439024390245,-179.39024390243904,29.75609756097561,90,8
377,-0.5537109375,0.1103515625,0.4521484375,85.97560975609757,-178.71951219512198,30.914634146341466,90,8
378,-0.5625,0.09326171875,0.47900390625,84.63414634146342,-177.6219512195122,31.03658536585366,90,8
379,-0.55712890625,0.08447265625,0.46044921875,84.51219512195122,-177.43902439024393,31.219512195121954,90,8
380,-0.54052734375,0.08935546875,0.494140625,84.26829268292684,-177.37804878048783,31.03658536585366,90,8
381,-0.5205078125,0.11083984375,0.52587890625,84.93902439024392,-179.02439024390245,31.09756097560976,90,8
382,-0.501953125,0.134765625,0.5546875,84.57317073170732,-180.2439024390244,30.60975609756098,90,8
383,-0.453125,0.1708984375,0.55029296875,83.35365853658537,-181.58536585365854,29.451219512195124,90,8
384,-0.4287109375,0.18212890625,0.56787109375,82.6219512195122,-182.8658536585366,29.02439024390244,90,8
385,-0.408203125,0.162109375,0.57861328125,81.95121951219512,-184.26829268292684,29.207317073170735,90,8
386,-0.400390625,0.1318359375,0.59765625,82.31707317073172,-184.14634146341464,29.695121951219516,90,8
387,-0.3740234375,0.11865234375,0.6064453125,83.78048780487805,-184.63414634146343,30.182926829268297,90,8
388,-0.3447265625,0.12890625,0.50439453125,84.81707317073172,-185.2439024390244,31.03658536585366,90,8
389,-0.3251953125,0.1357421875,0.654296875,84.75609756097562,-183.78048780487808,32.25609756097561,90,8
390,-0.2958984375,0.16455078125,0.68505859375,80.1219512195122,-180.2439024390244,33.109756097560975,90,8
391,-0.27880859375,0.1962890625,0.71533203125,72.13414634146342,-175.3048780487805,33.59756097560976,90,8
392,-0.25048828125,0.2265625,0.74365234375,64.57317073170732,-172.13414634146343,33.109756097560975,90,8
393,-0.2255859375,0.244140625,0.708984375,60.97560975609757,-172.8048780487805,33.170731707317074,90,8
394,-0.24267578125,0.23291015625,0.6962890625,59.32926829268293,-174.14634146341464,33.109756097560975,90,8
395,-0.2392578125,0.22412109375,0.6806640625,60.1829268292683,-176.03658536585368,33.59756097560976,90,8
396,-0.2216796875,0.21923828125,0.6767578125,63.29268292682927,-179.69512195121953,34.32926829268293,90,8
397,-0.1884765625,0.234375,0.697265625,66.34146341463415,-183.41463414634148,35.243902439024396,90,8
398,-0.16455078125,0.2265625,0.74560546875,70.0609756097561,-186.82926829268294,37.13414634146342,90,8
399,-0.15234375,0.2001953125,0.802734375,73.96341463414635,-189.14634146341464,39.390243902439025,90,8
400,-0.13818359375,0.1806640625,0.88330078125,74.08536585365854,-185.7317073170732,41.09756097560976,90,8
401,-0.1142578125,0.19384765625,0.890625,70.91463414634147,-180.06097560975613,42.926829268292686,90,8
402,-0.06103515625,0.24267578125,0.8837890625,67.7439024390244,-177.07317073170734,45.243902439024396,90,8
403,-0.0361328125,0.27197265625,0.84326171875,65.73170731707317,-175.7926829268293,46.707317073170735,90,8
404,-0.0166015625,0.3017578125,0.80859375,64.32926829268293,-175.97560975609758,47.50000000000001,90,8
405,0.00927734375,0.30615234375,0.80078125,62.07317073170732,-174.93902439024393,47.987804878048784,90,8
406,0.0302734375,0.31787109375,0.810546875,60.1219512195122,-175.4878048780488,48.78048780487805,90,8
407,0.02392578125,0.31103515625,0.830078125,58.23170731707317,-174.75609756097563,49.87804878048781,90,8
408,0.04150390625,0.32421875,0.85009765625,57.25609756097561,-174.87804878048783,51.707317073170735,90,8
409,0.05615234375,0.32958984375,0.87890625,58.53658536585366,-176.82926829268294,54.085365853658544,90,8
410,0.0537109375,0.31201171875,0.95703125,59.87804878048781,-177.8658536585366,55.91463414634147,90,8
411,0.0517578125,0.3076171875,1.01708984375,59.085365853658544,-174.69512195121953,56.21951219512196,90,8
412,0.08544921875,0.33154296875,1.046875,58.23170731707317,-171.89024390243904,56.707317073170735,90,8
413,0.12109375,0.3671875,1.03173828125,59.87804878048781,-170.97560975609758,57.37804878048781,90,8
414,0.18310546875,0.4150390625,0.990234375,63.53658536585366,-173.1707317073171,57.25609756097561,90,8
415,0.21875,0.4228515625,0.921875,64.32926829268293,-172.8658536585366,57.07317073170732,90,8
416,0.2626953125,0.4404296875,0.87890625,62.804878048780495,-169.32926829268294,56.524390243902445,90,8
417,0.32470703125,0.45947265625,0.86279296875,59.63414634146342,-165.85365853658539,56.768292682926834,90,8
418,0.38427734375,0.49755859375,0.849609375,56.21951219512196,-162.43902439024393,56.89024390243903,90,8
419,0.40771484375,0.5,0.880859375,53.71951219512196,-162.13414634146343,57.865853658536594,90,8
420,0.38427734375,0.46728515625,0.93603515625,51.951219512195124,-159.81707317073173,57.804878048780495,90,8
421,0.34765625,0.431640625,0.94921875,49.57317073170732,-156.58536585365854,57.25609756097561,90,8
422,0.3193359375,0.42626953125,0.99267578125,47.43902439024391,-153.2317073170732,56.707317073170735,90,8
423,0.31591796875,0.4443359375,1.0146484375,47.25609756097561,-151.58536585365854,56.28048780487806,90,8
424,0.3203125,0.4736328125,1.03076171875,49.207317073170735,-153.59756097560978,57.13414634146342,90,8
425,0.3173828125,0.5048828125,1.013671875,53.10975609756098,-156.40243902439025,58.53658536585366,90,8
426,0.2958984375,0.37646484375,0.96240234375,53.29268292682927,-155.91463414634148,58.963414634146346,90,8
427,0.3125,0.51904296875,0.8837890625,52.19512195121952,-154.75609756097563,59.024390243902445,90,8
428,0.3505859375,0.5439453125,0.8525390625,49.39024390243903,-153.35365853658539,59.87804878048781,90,8
429,0.38818359375,0.5537109375,0.83837890625,45.91463414634147,-150.4878048780488,60.85365853658537,90,8
430,0.4111328125,0.53466796875,0.8583984375,40.670731707317074,-145.91463414634148,46.951219512195124,90,8
431,0.4443359375,0.48828125,0.86767578125,35.1829268292683,-141.28048780487805,64.26829268292684,90,8
432,0.45703125,0.45068359375,0.8681640625,30.487804878048784,-136.28048780487805,65.42682926829269,90,8
433,0.47998046875,0.4208984375,0.86865234375,27.926829268292686,-133.71951219512195,66.46341463414635,90,8
434,0.484375,0.3974609375,0.85595703125,27.682926829268297,-132.13414634146343,67.13414634146342,90,8
435,0.51318359375,0.3935546875,0.82666015625,32.13414634146342,-134.26829268292684,67.92682926829269,90,8
436,0.52099609375,0.3935546875,0.79443359375,37.926829268292686,-138.41463414634148,68.17073170731707,90,8
437,0.509765625,0.40576171875,0.76025390625,39.57317073170732,-138.84146341463415,67.8048780487805,90,8
438,0.51513671875,0.45849609375,0.74609375,40.54878048780488,-138.0487804878049,67.8658536585366,90,8
439,0.54541015625,0.51904296875,0.7236328125,41.15853658536586,-137.8658536585366,69.14634146341464,90,8
440,0.56298828125,0.53515625,0.6806640625,38.963414634146346,-136.89024390243904,70.54878048780489,90,8
441,0.560546875,0.50244140625,0.638671875,31.646341463414636,-132.07317073170734,70.97560975609757,90,8
442,0.576171875,0.466796875,0.626953125,21.585365853658537,-126.15853658536587,70.48780487804879,90,8
443,0.5732421875,0.44189453125,0.65966796875,14.207317073170733,-120.42682926829269,70.3658536585366,90,8
444,0.57568359375,0.4140625,0.69384765625,11.158536585365855,-116.82926829268294,71.28048780487805,90,8
445,0.57666015625,0.357421875,0.68310546875,11.341463414634147,-116.52439024390245,73.59756097560977,90,8
446,0.55078125,0.2939453125,0.67578125,13.719512195121952,-116.34146341463416,74.93902439024392,90,8
447,0.541015625,0.25390625,0.671875,16.82926829268293,-114.57317073170732,74.81707317073172,90,8
448,0.57080078125,0.2861328125,0.634765625,20.0609756097561,-114.93902439024392,74.26829268292684,90,8
449,0.60546875,0.3076171875,0.55908203125,23.231707317073173,-117.8048780487805,74.75609756097562,90,8
450,0.61669921875,0.32763671875,0.4541015625,25.54878048780488,-120.1829268292683,75.48780487804879,90,8
451,0.63037109375,0.35888671875,0.38330078125,22.865853658536587,-118.59756097560977,74.81707317073172,90,8
452,0.70068359375,0.39794921875,0.34228515625,15.975609756097562,-114.32926829268294,74.14634146341464,90,8
453,0.6279296875,0.4345703125,0.330078125,2.8658536585365857,-106.95121951219514,73.41463414634147,90,8
454,0.78662109375,0.46142578125,0.36279296875,-10.548780487804878,-100.00000000000001,74.08536585365854,90,8
455,0.78515625,0.4169921875,0.42333984375,-19.634146341463417,-94.51219512195122,74.14634146341464,90,8
456,0.765625,0.365234375,0.47607421875,-23.170731707317074,-92.13414634146342,74.57317073170732,90,8
457,0.7265625,0.30078125,0.51611328125,-21.219512195121954,-91.89024390243904,75.0,90,8
458,0.689453125,0.2431640625,0.541015625,-13.353658536585368,-95.54878048780489,74.51219512195122,90,8
459,0.6796875,0.20361328125,0.51171875,-2.8658536585365857,-98.59756097560977,72.31707317073172,90,8
460,0.681640625,0.21435546875,0.4697265625,4.390243902439025,-98.78048780487806,68.53658536585367,90,8
461,0.73095703125,0.25537109375,0.43896484375,7.987804878048781,-97.92682926829269,65.54878048780489,90,8
462,0.77783203125,0.32275390625,0.439453125,8.658536585365855,-96.21951219512196,64.45121951219512,90,8
463,0.79248046875,0.3447265625,0.400390625,5.731707317073171,-93.29268292682927,64.32926829268293,90,8
464,0.7919921875,0.34423828125,0.3486328125,15.30487804878049,-88.65853658536587,63.90243902439025,90,8
465,0.79638671875,0.33203125,0.32470703125,-9.085365853658537,-82.31707317073172,62.560975609756106,90,8
466,0.82275390625,0.341796875,0.333984375,-16.463414634146343,-77.5609756097561,46.82926829268293,90,8
467,0.82958984375,0.34521484375,0.34716796875,-22.012195121951223,-73.84146341463415,62.6829268292683,90,8
468,0.80615234375,0.296875,0.3408203125,-24.878048780487806,-73.78048780487805,63.65853658536586,90,8
469,0.763671875,0.22900390625,0.3212890625,-25.731707317073173,-72.25609756097562,77.92682926829269,90,8
470,0.755859375,0.21142578125,0.3720703125,-22.25609756097561,-71.03658536585367,60.243902439024396,90,8
471,0.79541015625,0.228515625,0.41162109375,-15.79268292682927,-70.85365853658537,57.926829268292686,90,8
472,0.82958984375,0.2333984375,0.43359375,-9.26829268292683,-71.28048780487805,55.487804878048784,90,8
473,0.830078125,0.22705078125,0.38671875,-2.9268292682926833,-71.64634146341464,53.23170731707317,90,8
474,0.8271484375,0.2373046875,0.35498046875,2.5609756097560976,-70.79268292682927,50.243902439024396,90,8
475,0.8330078125,0.25,0.34130859375,6.951219512195123,-70.0,48.04878048780488,90,8
476,0.833984375,0.25439453125,0.3271484375,8.353658536585366,-67.01219512195122,46.15853658536586,90,8
477,0.84375,0.12548828125,0.29443359375,4.634146341463415,-61.646341463414636,43.170731707317074,90,8
478,0.86767578125,0.2568359375,0.37255859375,-2.1341463414634148,-55.365853658536594,40.304878048780495,90,8
479,0.87158203125,0.24609375,0.21435546875,-11.28048780487805,-48.78048780487805,37.86585365853659,90,8
480,0.8623046875,0.2392578125,0.21875,-18.29268292682927,-42.804878048780495,35.54878048780488,90,8
481,0.8486328125,0.2236328125,0.2392578125,-23.53658536585366,-38.71951219512196,33.47560975609756,90,8
482,0.8291015625,0.20703125,0.2509765625,-26.52439024390244,-36.21951219512196,31.89024390243903,90,8
483,0.783203125,0.169921875,0.2548828125,-27.195121951219516,-33.41463414634146,30.000000000000004,90,8
484,0.77880859375,0.16796875,0.26708984375,-28.292682926829272,-30.182926829268297,27.378048780487806,90,8
485,0.7744140625,0.16748046875,0.27392578125,-29.32926829268293,-26.28048780487805,24.81707317073171,90,8
486,0.80224609375,0.2099609375,0.29296875,-30.54878048780488,-21.82926829268293,22.500000000000004,90,8
487,0.82177734375,0.21533203125,0.3037109375,-30.54878048780488,-17.804878048780488,20.54878048780488,90,8
488,0.8212890625,0.208984375,0.306640625,-29.87804878048781,-14.329268292682928,18.170731707317074,90,8
489,0.814453125,0.181640625,0.27587890625,-29.08536585365854,-10.24390243902439,15.182926829268293,90,8
490,0.8125,0.166015625,0.259765625,-28.902439024390247,-6.097560975609756,12.500000000000002,90,8
491,0.82177734375,0.1669921875,0.2197265625,-28.902439024390247,-2.987804878048781,10.30487804878049,90,8
492,0.8037109375,0.16357421875,0.197265625,-29.695121951219516,0.9146341463414634,8.597560975609756,90,8
493,0.80517578125,0.1552734375,0.19677734375,-31.82926829268293,5.7926829268292686,6.585365853658537,90,8
494,0.8046875,0.1640625,0.21142578125,-34.75609756097561,11.036585365853659,4.634146341463415,90,8
495,0.81201171875,0.1611328125,0.23486328125,-37.5,15.060975609756099,3.048780487804878,90,8
496,0.783203125,0.140625,0.23681640625,-38.10975609756098,19.02439024390244,1.3414634146341464,90,8
497,0.7734375,0.12841796875,0.25830078125,-37.6219512195122,21.890243902439025,0.0,90,8
498,0.75048828125,0.11572265625,0.271484375,-36.40243902439025,24.75609756097561,-1.2804878048780488,90,8
499,0.7451171875,0.10595703125,0.2578125,-35.79268292682927,26.402439024390247,-2.5,90,8
