,Ax,Ay,Az,Gx,Gy,Gz,distance,shot_type
0,0.779296875,-0.25927734375,-0.21435546875,4.75609756097561,3.048780487804878,-2.5,140,0
1,0.7587890625,-0.26025390625,-0.20361328125,7.500000000000001,2.682926829268293,-4.75609756097561,140,0
2,0.77392578125,-0.2568359375,-0.22412109375,10.365853658536587,1.9512195121951221,-6.341463414634147,140,0
3,0.81005859375,-0.24658203125,-0.25537109375,12.134146341463415,1.707317073170732,-6.707317073170732,140,0
4,0.81005859375,-0.2705078125,-0.2548828125,11.951219512195124,2.0121951219512195,-5.548780487804878,140,0
5,0.73876953125,-0.37158203125,-0.24658203125,11.646341463414634,3.353658536585366,-4.51219512195122,140,0
6,0.68896484375,-0.427734375,-0.2255859375,12.256097560975611,3.8414634146341466,-5.182926829268293,140,0
7,0.69580078125,-0.3916015625,-0.22607421875,13.536585365853659,4.939024390243903,-6.2804878048780495,140,0
8,0.72900390625,-0.34326171875,-0.21923828125,14.329268292682928,7.560975609756098,-8.170731707317074,140,0
9,0.75390625,-0.33349609375,-0.2607421875,11.28048780487805,10.731707317073171,-10.30487804878049,140,0
10,0.7822265625,-0.30419921875,-0.29150390625,7.8048780487804885,13.29268292682927,-10.731707317073171,140,0
11,0.7646484375,-0.3583984375,-0.30322265625,5.121951219512195,14.634146341463415,-10.914634146341465,140,0
12,0.7421875,-0.4150390625,-0.31005859375,3.1707317073170733,15.30487804878049,-10.975609756097562,140,0
13,0.72607421875,-0.46533203125,-0.30224609375,1.7682926829268295,14.817073170731708,-11.52439024390244,140,0
14,0.716796875,-0.4775390625,-0.28515625,2.5609756097560976,13.414634146341465,-12.01219512195122,140,0
15,0.71044921875,-0.525390625,-0.2578125,5.609756097560976,11.158536585365855,-12.926829268292684,140,0
16,0.6884765625,-0.56494140625,-0.26123046875,8.841463414634147,8.475609756097562,-12.682926829268293,140,0
17,0.66748046875,-0.5966796875,-0.291015625,12.926829268292684,4.939024390243903,-12.378048780487806,140,0
18,0.64453125,-0.65234375,-0.33056640625,16.585365853658537,2.3170731707317076,-12.01219512195122,140,0
19,0.62255859375,-0.6611328125,-0.26220703125,16.890243902439025,0.853658536585366,-11.646341463414634,140,0
20,0.62939453125,-0.64453125,-0.4013671875,13.353658536585368,2.439024390243903,-10.670731707317074,140,0
21,0.63037109375,-0.6513671875,-0.38671875,6.951219512195123,6.52439024390244,-8.78048780487805,140,0
22,0.591796875,-0.65625,-0.390625,0.9146341463414634,9.695121951219512,-6.707317073170732,140,0
23,0.5595703125,-0.69873046875,-0.3720703125,-1.3414634146341464,10.365853658536587,-4.2682926829268295,140,0
24,0.57470703125,-0.70556640625,-0.38916015625,-2.0121951219512195,9.634146341463415,-2.1341463414634148,140,0
25,0.556640625,-0.70703125,-0.3974609375,-2.25609756097561,9.51219512195122,-15.487804878048783,140,0
26,0.5517578125,-0.70849609375,-0.4091796875,-2.073170731707317,8.536585365853659,2.9268292682926833,140,0
27,0.5458984375,-0.7412109375,-0.384765625,-0.30487804878048785,6.7682926829268295,4.695121951219512,140,0
28,0.537109375,-0.744140625,-0.5,2.5609756097560976,4.939024390243903,6.707317073170732,140,0
29,0.509765625,-0.73828125,-0.3505859375,4.207317073170732,3.414634146341464,8.414634146341465,140,0
30,0.52392578125,-0.70556640625,-0.3583984375,5.060975609756098,2.0121951219512195,9.207317073170733,140,0
31,0.5615234375,-0.66015625,-0.3623046875,6.2804878048780495,0.48780487804878053,9.817073170731708,140,0
32,0.599609375,-0.62548828125,-0.3623046875,5.3048780487804885,0.24390243902439027,11.036585365853659,140,0
33,0.59423828125,-0.74365234375,-0.3642578125,3.048780487804878,1.6463414634146343,11.890243902439025,140,0
34,0.5869140625,-0.61328125,-0.35986328125,2.3170731707317076,1.7682926829268295,12.134146341463415,140,0
35,0.60302734375,-0.59912109375,-0.32763671875,1.707317073170732,1.9512195121951221,12.195121951219512,140,0
36,0.61181640625,-0.580078125,-0.30859375,0.9756097560975611,2.7439024390243905,12.01219512195122,140,0
37,0.60791015625,-0.54638671875,-0.2587890625,2.1951219512195124,2.1341463414634148,10.914634146341465,140,0
38,0.6328125,-0.51123046875,-0.1279296875,5.121951219512195,0.12195121951219513,9.573170731707318,140,0
39,0.65380859375,-0.474609375,-0.2568359375,6.829268292682928,-1.0975609756097562,8.292682926829269,140,0
40,0.6630859375,-0.44140625,-0.259765625,7.8048780487804885,-1.9512195121951221,7.25609756097561,140,0
41,0.6591796875,-0.4423828125,-0.2509765625,9.207317073170733,-2.8658536585365857,5.853658536585367,140,0
42,0.6689453125,-0.4365234375,-0.25146484375,9.146341463414634,-3.1097560975609757,4.878048780487806,140,0
43,0.68505859375,-0.4228515625,-0.37060546875,8.292682926829269,-1.829268292682927,4.390243902439025,140,0
44,0.685546875,-0.42724609375,-0.2568359375,7.8048780487804885,-0.3658536585365854,4.146341463414634,140,0
45,0.701171875,-0.42041015625,-0.2587890625,9.146341463414634,0.853658536585366,3.780487804878049,140,0
46,0.712890625,-0.41943359375,-0.2421875,9.329268292682928,3.1707317073170733,3.353658536585366,140,0
47,0.7275390625,-0.39453125,-0.2412109375,8.78048780487805,4.878048780487806,2.8658536585365857,140,0
48,0.7421875,-0.3896484375,-0.24658203125,8.170731707317074,6.463414634146342,2.6219512195121952,140,0
49,0.73681640625,-0.40185546875,-0.24169921875,9.02439024390244,6.585365853658537,2.5609756097560976,140,0
50,0.7412109375,-0.4326171875,-0.2373046875,10.182926829268293,6.585365853658537,2.682926829268293,140,0
51,0.73583984375,-0.470703125,-0.26123046875,8.902439024390244,6.890243902439025,2.987804878048781,140,0
52,0.72509765625,-0.48828125,-0.259765625,5.914634146341464,7.682926829268293,2.7439024390243905,140,0
53,0.71240234375,-0.4921875,-0.25634765625,3.9024390243902443,8.78048780487805,2.0121951219512195,140,0
54,0.70703125,-0.50634765625,-0.23828125,1.7682926829268295,9.51219512195122,1.9512195121951221,140,0
55,0.70166015625,-0.52685546875,-0.24658203125,-0.426829268292683,10.548780487804878,1.0975609756097562,140,0
56,0.70458984375,-0.53955078125,-0.2421875,-1.707317073170732,11.829268292682928,0.7317073170731708,140,0
57,0.6962890625,-0.55322265625,-0.224609375,-1.6463414634146343,13.04878048780488,0.7317073170731708,140,0
58,0.66943359375,-0.572265625,-0.22021484375,-0.9756097560975611,14.146341463414636,0.3658536585365854,140,0
59,0.67138671875,-0.5654296875,-0.22412109375,-0.7317073170731708,15.30487804878049,-0.48780487804878053,140,0
60,0.66455078125,-0.56298828125,-0.22021484375,-0.48780487804878053,16.70731707317073,15.54878048780488,140,0
61,0.6455078125,-0.57666015625,-0.2236328125,-0.853658536585366,17.682926829268293,-0.426829268292683,140,0
62,0.6181640625,-0.5966796875,-0.21484375,-0.06097560975609757,16.28048780487805,0.853658536585366,140,0
63,0.619140625,-0.599609375,-0.26220703125,2.804878048780488,14.085365853658537,0.6097560975609757,140,0
64,0.66015625,-0.5751953125,-0.27783203125,5.731707317073171,13.902439024390246,1.2195121951219514,140,0
65,0.658203125,-0.58154296875,-0.26611328125,7.01219512195122,14.26829268292683,0.7926829268292683,140,0
66,0.65771484375,-0.58203125,-0.37353515625,6.890243902439025,15.853658536585368,0.6707317073170732,140,0
67,0.6748046875,-0.5830078125,-0.23291015625,6.52439024390244,18.719512195121954,0.24390243902439027,140,0
68,0.6708984375,-0.578125,-0.20751953125,4.329268292682928,23.475609756097562,0.48780487804878053,140,0
69,0.6552734375,-0.6025390625,-0.158203125,1.6463414634146343,28.353658536585368,1.2195121951219514,140,0
70,0.63671875,-0.501953125,-0.11865234375,1.2804878048780488,30.487804878048784,3.414634146341464,140,0
71,0.61376953125,-0.6455078125,-0.14013671875,3.231707317073171,29.81707317073171,4.2682926829268295,140,0
72,0.64453125,-0.61083984375,-0.1279296875,5.487804878048781,31.03658536585366,5.060975609756098,140,0
73,0.6630859375,-0.5830078125,-0.11181640625,6.585365853658537,30.853658536585368,5.7926829268292686,140,0
74,0.65380859375,-0.5673828125,-0.01171875,8.597560975609756,27.378048780487806,6.890243902439025,140,0
75,0.6826171875,-0.5341796875,-0.1865234375,11.951219512195124,25.975609756097562,6.646341463414635,140,0
76,0.728515625,-0.5009765625,-0.20361328125,11.585365853658537,29.634146341463417,5.975609756097562,140,0
77,0.8740234375,-0.49462890625,-0.1884765625,8.78048780487805,33.47560975609756,5.426829268292684,140,0
78,0.76708984375,-0.47314453125,-0.19677734375,4.329268292682928,37.07317073170732,3.353658536585366,140,0
79,0.78076171875,-0.443359375,-0.20703125,0.48780487804878053,40.0609756097561,1.402439024390244,140,0
80,0.7783203125,-0.43603515625,-0.2294921875,-2.9268292682926833,40.36585365853659,-0.30487804878048785,140,0
81,0.76953125,-0.4375,-0.21826171875,-4.634146341463415,41.40243902439025,-0.12195121951219513,140,0
82,0.72412109375,-0.50244140625,-0.1904296875,-6.219512195121951,43.10975609756098,0.9756097560975611,140,0
83,0.66943359375,-0.55419921875,-0.15087890625,-5.975609756097562,42.926829268292686,2.9268292682926833,140,0
84,0.62451171875,-0.59130859375,-0.10693359375,-3.231707317073171,44.268292682926834,3.8414634146341466,140,0
85,0.609375,-0.58837890625,-0.0732421875,1.6463414634146343,44.32926829268293,5.2439024390243905,140,0
86,0.6142578125,-0.5771484375,-0.08642578125,5.7926829268292686,41.82926829268293,7.8048780487804885,140,0
87,0.59619140625,-0.59375,-0.14404296875,8.597560975609756,36.21951219512196,9.329268292682928,140,0
88,0.623046875,-0.5693359375,-0.19384765625,14.085365853658537,35.85365853658537,10.487804878048781,140,0
89,0.65234375,-0.58154296875,-0.220703125,16.70731707317073,35.1219512195122,12.01219512195122,140,0
90,0.67529296875,-0.5966796875,-0.31005859375,16.03658536585366,34.81707317073171,10.548780487804878,140,0
91,0.72021484375,-0.48388671875,-0.33251953125,12.073170731707318,38.47560975609756,8.536585365853659,140,0
92,0.767578125,-0.43212890625,-0.357421875,4.390243902439025,45.1219512195122,6.52439024390244,140,0
93,0.7529296875,-0.43115234375,-0.34814453125,-7.317073170731708,53.84146341463415,4.390243902439025,140,0
94,0.74267578125,-0.43603515625,-0.2666015625,-17.25609756097561,60.73170731707317,2.8658536585365857,140,0
95,0.69091796875,-0.4716796875,-0.1748046875,-22.926829268292686,70.1219512195122,2.3170731707317076,140,0
96,0.6103515625,-0.51806640625,-0.0361328125,-24.512195121951223,74.69512195121952,3.5975609756097566,140,0
97,0.55419921875,-0.58642578125,-0.013671875,-25.30487804878049,71.34146341463415,5.609756097560976,140,0
98,0.51416015625,-0.62939453125,-0.0888671875,-20.60975609756098,59.57317073170732,8.841463414634147,140,0
99,0.58984375,-0.546875,-0.19140625,-11.52439024390244,48.23170731707317,10.792682926829269,140,0
100,0.6572265625,-0.49169921875,-0.32666015625,-6.52439024390244,41.03658536585366,11.646341463414634,140,0
101,0.71533203125,-0.4296875,-0.4365234375,-11.28048780487805,41.40243902439025,9.634146341463415,140,0
102,0.79150390625,-0.32763671875,-0.40234375,-24.878048780487806,49.39024390243903,7.500000000000001,140,0
103,0.81005859375,-0.3203125,-0.373046875,-42.50000000000001,53.90243902439025,6.951219512195123,140,0
104,0.7734375,-0.33251953125,-0.35498046875,-59.085365853658544,61.524390243902445,5.853658536585367,140,0
105,0.70263671875,-0.38623046875,-0.29150390625,-64.57317073170732,63.59756097560976,5.731707317073171,140,0
106,0.63623046875,-0.48291015625,-0.20849609375,-60.54878048780488,61.82926829268293,6.7682926829268295,140,0
107,0.74951171875,-0.4970703125,-0.1689453125,-51.34146341463415,54.085365853658544,8.048780487804878,140,0
108,0.64013671875,-0.49658203125,-0.259765625,-41.58536585365854,44.93902439024391,7.134146341463415,140,0
109,0.66064453125,-0.40625,-0.30419921875,-36.82926829268293,40.0609756097561,6.829268292682928,140,0
110,0.68017578125,-0.3955078125,-0.33203125,-37.01219512195122,37.5609756097561,6.707317073170732,140,0
111,0.70166015625,-0.35107421875,-0.3505859375,-39.024390243902445,37.5609756097561,4.085365853658537,140,0
112,0.734375,-0.3076171875,-0.32958984375,-45.79268292682927,38.71951219512196,2.6219512195121952,140,0
113,0.7509765625,-0.28662109375,-0.36962890625,-54.51219512195122,40.91463414634147,-0.7926829268292683,140,0
114,0.7744140625,-0.23046875,-0.3876953125,-63.84146341463415,45.1829268292683,-3.536585365853659,140,0
115,0.76708984375,-0.1259765625,-0.35498046875,-70.0609756097561,46.34146341463415,-4.878048780487806,140,0
116,0.7041015625,-0.3125,-0.2900390625,-73.47560975609757,46.09756097560976,-6.2804878048780495,140,0
117,0.67919921875,-0.33642578125,-0.2578125,-74.51219512195122,45.487804878048784,-7.987804878048781,140,0
118,0.6806640625,-0.318359375,-0.27685546875,-73.10975609756098,41.463414634146346,-8.963414634146343,140,0
119,0.716796875,-0.25634765625,-0.34619140625,-72.98780487804879,39.146341463414636,-11.341463414634147,140,0
120,0.71435546875,-0.3740234375,-0.384765625,-75.0,37.926829268292686,-13.536585365853659,140,0
121,0.736328125,-0.22509765625,-0.4091796875,-78.90243902439025,38.963414634146346,-0.06097560975609757,140,0
122,0.77099609375,-0.205078125,-0.4052734375,-84.39024390243902,39.63414634146342,-17.98780487804878,140,0
123,0.78076171875,-0.20654296875,-0.41455078125,-89.69512195121952,40.487804878048784,-19.939024390243905,140,0
124,0.783203125,-0.1962890625,-0.3896484375,-94.32926829268294,41.09756097560976,-22.378048780487806,140,0
125,0.763671875,-0.2197265625,-0.35302734375,-96.89024390243904,41.03658536585366,-23.475609756097562,140,0
126,0.72998046875,-0.2587890625,-0.34033203125,-97.43902439024392,40.60975609756098,-24.939024390243905,140,0
127,0.72265625,-0.2578125,-0.3740234375,-98.90243902439025,39.69512195121951,-27.80487804878049,140,0
128,0.71728515625,-0.240234375,-0.361328125,-100.91463414634147,39.75609756097561,-29.81707317073171,140,0
129,0.71337890625,-0.23095703125,-0.345703125,-103.90243902439025,39.63414634146342,-31.82926829268293,140,0
130,0.62646484375,-0.21142578125,-0.2529296875,-106.40243902439025,38.10975609756098,-34.08536585365854,140,0
131,0.775390625,-0.1748046875,-0.39697265625,-108.04878048780489,36.28048780487805,-36.951219512195124,140,0
132,0.8076171875,-0.15478515625,-0.4208984375,-111.15853658536587,35.79268292682927,-39.87804878048781,140,0
133,0.8291015625,-0.16845703125,-0.42724609375,-116.64634146341464,36.58536585365854,-42.743902439024396,140,0
134,0.8291015625,-0.18603515625,-0.43017578125,-120.85365853658537,36.15853658536586,-46.03658536585366,140,0
135,0.82177734375,-0.193359375,-0.435546875,-123.84146341463416,36.09756097560976,-49.268292682926834,140,0
136,0.82470703125,-0.1982421875,-0.4462890625,-127.50000000000001,35.73170731707317,-51.768292682926834,140,0
137,0.83203125,-0.20947265625,-0.44921875,-130.7317073170732,36.463414634146346,-55.0609756097561,140,0
138,0.8544921875,-0.1826171875,-0.443359375,-134.14634146341464,37.01219512195122,-57.19512195121952,140,0
139,0.86572265625,-0.1806640625,-0.4345703125,-136.58536585365854,37.25609756097561,-58.71951219512196,140,0
140,0.85205078125,-0.18359375,-0.42919921875,-139.14634146341464,36.890243902439025,-60.85365853658537,140,0
141,0.853515625,-0.17822265625,-0.4248046875,-140.0,35.79268292682927,-63.35365853658537,140,0
142,0.85791015625,-0.17529296875,-0.41748046875,-140.3658536585366,34.63414634146342,-65.73170731707317,140,0
143,0.8916015625,-0.1552734375,-0.46044921875,-139.81707317073173,31.34146341463415,-68.84146341463415,140,0
144,0.912109375,-0.14404296875,-0.5009765625,-141.03658536585368,30.243902439024392,-72.8048780487805,140,0
145,0.9462890625,-0.130859375,-0.52392578125,-143.2317073170732,30.914634146341466,-77.5,140,0
146,0.96923828125,-0.24951171875,-0.38037109375,-146.95121951219514,32.07317073170732,-81.58536585365854,140,0
147,0.99169921875,-0.11376953125,-0.48388671875,-150.0609756097561,33.41463414634146,-85.3658536585366,140,0
148,0.9970703125,-0.138671875,-0.46044921875,-153.59756097560978,33.35365853658537,-88.35365853658537,140,0
149,0.978515625,-0.14306640625,-0.4638671875,-155.1829268292683,32.6829268292683,-91.70731707317074,140,0
150,0.9775390625,-0.14404296875,-0.44775390625,-155.4878048780488,32.5609756097561,-95.0609756097561,140,0
151,0.98779296875,-0.130859375,-0.4599609375,-156.15853658536588,31.34146341463415,-98.35365853658537,140,0
152,1.01318359375,-0.10888671875,-0.4765625,-157.5609756097561,32.25609756097561,-101.95121951219512,140,0
153,1.0361328125,-0.1005859375,-0.47509765625,-160.1829268292683,32.6829268292683,-104.57317073170732,140,0
154,1.05810546875,-0.08544921875,-0.49951171875,-162.19512195121953,33.47560975609756,-107.92682926829269,140,0
155,1.0859375,-0.0791015625,-0.5234375,-165.3048780487805,33.23170731707317,-111.28048780487806,140,0
156,1.0888671875,-0.1142578125,-0.5712890625,-167.8048780487805,34.57317073170732,-116.58536585365854,140,0
157,1.134765625,-0.03271484375,-0.55029296875,-169.26829268292684,35.1829268292683,-119.75609756097562,140,0
158,1.17626953125,-0.02783203125,-0.51416015625,-173.59756097560978,37.01219512195122,-122.07317073170732,140,0
159,1.1865234375,-0.05517578125,-0.53466796875,-177.9268292682927,39.32926829268293,-109.39024390243904,140,0
160,1.197265625,-0.01904296875,-0.51513671875,-178.59756097560978,39.08536585365854,-129.26829268292684,140,0
161,1.23291015625,-0.0166015625,-0.48828125,-178.2317073170732,38.170731707317074,-132.9878048780488,140,0
162,1.23974609375,-0.037109375,-0.48828125,-175.6707317073171,37.01219512195122,-136.46341463414635,140,0
163,1.25341796875,-0.04931640625,-0.4912109375,-174.26829268292684,34.63414634146342,-139.9390243902439,140,0
164,1.13671875,-0.056640625,-0.48388671875,-171.21951219512198,34.75609756097561,-144.9390243902439,140,0
165,1.31982421875,0.0146484375,-0.501953125,-169.45121951219514,33.41463414634146,-150.0,140,0
166,1.38525390625,0.08251953125,-0.5244140625,-168.84146341463415,32.07317073170732,-155.91463414634148,140,0
167,1.41259765625,0.08349609375,-0.54736328125,-168.59756097560978,28.231707317073173,-161.15853658536588,140,0
168,1.4169921875,0.1123046875,-0.564453125,-167.5609756097561,27.682926829268297,-166.76829268292684,140,0
169,1.44384765625,0.12939453125,-0.54541015625,-169.32926829268294,29.207317073170735,-156.40243902439025,140,0
170,1.46533203125,0.11474609375,-0.53466796875,-171.09756097560978,29.81707317073171,-176.95121951219514,140,0
171,1.46533203125,0.10888671875,-0.47705078125,-171.64634146341464,31.03658536585366,-180.609756097561,140,0
172,1.462890625,0.09033203125,-0.49560546875,-171.09756097560978,30.731707317073173,-183.47560975609758,140,0
173,1.46826171875,0.099609375,-0.4765625,-167.8658536585366,30.853658536585368,-171.89024390243904,140,0
174,1.4853515625,0.09326171875,-0.4423828125,-166.76829268292684,31.52439024390244,-190.97560975609758,140,0
175,1.49951171875,0.10498046875,-0.44775390625,-165.7317073170732,32.43902439024391,-195.4268292682927,140,0
176,1.55419921875,0.18115234375,-0.45947265625,-164.45121951219514,36.40243902439025,-200.6707317073171,140,0
177,1.5771484375,0.1865234375,-0.43115234375,-167.25609756097563,37.86585365853659,-203.2926829268293,140,0
178,1.5693359375,0.12548828125,-0.45751953125,-165.1829268292683,37.743902439024396,-205.5487804878049,140,0
179,1.578125,0.14111328125,-0.3935546875,-161.34146341463415,39.87804878048781,-209.87804878048783,140,0
180,1.50341796875,0.1650390625,-0.34912109375,-158.78048780487805,41.09756097560976,-212.8658536585366,140,0
181,1.6474609375,0.21337890625,-0.30419921875,-156.70731707317074,40.91463414634147,-215.4878048780488,140,0
182,1.66748046875,0.2880859375,-0.26904296875,-156.58536585365854,43.41463414634147,-219.81707317073173,140,0
183,1.64306640625,0.298828125,-0.25634765625,-158.78048780487805,45.91463414634147,-226.03658536585368,140,0
184,1.58544921875,0.3056640625,-0.232421875,-158.1707317073171,48.90243902439025,-231.58536585365854,140,0
185,1.56103515625,0.32666015625,-0.158203125,-154.81707317073173,50.54878048780488,-236.52439024390247,140,0
186,1.578125,0.33984375,-0.12646484375,-153.109756097561,52.37804878048781,-241.58536585365854,140,0
187,1.56982421875,0.341796875,-0.11474609375,-150.0609756097561,54.207317073170735,-243.2926829268293,140,0
188,1.54150390625,0.3134765625,-0.05126953125,-146.52439024390245,56.707317073170735,-244.69512195121953,140,0
189,1.5595703125,0.34912109375,-0.0029296875,-142.5,60.487804878048784,-248.109756097561,140,0
190,1.57080078125,0.38525390625,-0.0517578125,-143.96341463414635,63.29268292682927,-250.5487804878049,140,0
191,1.53857421875,0.36962890625,-0.05322265625,-145.7317073170732,68.35365853658537,-254.20731707317074,140,0
192,1.50244140625,0.39111328125,-0.02099609375,-143.47560975609758,71.34146341463415,-256.2804878048781,140,0
193,1.46875,0.37744140625,0.0400390625,-139.26829268292684,71.40243902439025,-257.9268292682927,140,0
194,1.38623046875,0.3388671875,0.0498046875,-131.70731707317074,68.84146341463415,-259.0243902439025,140,0
195,1.30224609375,0.2822265625,0.0302734375,-122.62195121951221,67.01219512195122,-261.1585365853659,140,0
196,1.22021484375,0.27099609375,0.06640625,-109.51219512195122,63.84146341463415,-261.0365853658537,140,0
197,1.16796875,0.27001953125,0.15625,-96.21951219512196,59.57317073170732,-261.89024390243907,140,0
198,1.1484375,0.29052734375,0.1533203125,-85.79268292682927,56.28048780487806,-262.8048780487805,140,0
199,1.119140625,0.3125,0.169921875,-82.13414634146342,56.03658536585366,-263.2317073170732,140,0
200,1.08349609375,0.29541015625,0.13330078125,-81.64634146341464,57.01219512195122,-262.19512195121956,140,0
201,0.97265625,0.2373046875,0.1337890625,-81.70731707317074,59.32926829268293,-258.9024390243903,140,0
202,0.88818359375,0.18701171875,0.12109375,-79.57317073170732,58.29268292682927,-256.76829268292687,140,0
203,0.7939453125,0.2412109375,0.09521484375,-71.95121951219512,55.54878048780488,-253.78048780487808,140,0
204,0.70849609375,0.078125,0.111328125,-77.7439024390244,52.804878048780495,-250.30487804878052,140,0
205,0.6552734375,0.1103515625,0.138671875,-54.024390243902445,49.268292682926834,-246.89024390243904,140,0
206,0.625,0.11865234375,0.1884765625,-62.13414634146342,45.1829268292683,-244.08536585365854,140,0
207,0.57568359375,0.14013671875,0.169921875,-42.19512195121951,41.646341463414636,-240.12195121951223,140,0
208,0.50537109375,0.1513671875,0.17138671875,-44.08536585365854,41.82926829268293,-236.95121951219514,140,0
209,0.46630859375,0.1279296875,0.1748046875,-48.65853658536586,41.82926829268293,-232.31707317073173,140,0
210,0.42724609375,0.0576171875,0.13330078125,-47.804878048780495,40.487804878048784,-227.68292682926833,140,0
211,0.44091796875,0.07177734375,0.10693359375,-45.304878048780495,40.0,-222.62195121951223,140,0
212,0.41748046875,0.02197265625,0.12109375,-45.487804878048784,39.390243902439025,-217.56097560975613,140,0
213,0.36279296875,-0.08154296875,0.1171875,-43.90243902439025,38.84146341463415,-213.53658536585368,140,0
214,0.30859375,-0.15576171875,0.15380859375,-38.04878048780488,36.768292682926834,-208.2926829268293,140,0
215,0.2578125,-0.17822265625,0.201171875,-32.07317073170732,35.0,-218.2317073170732,140,0
216,0.21826171875,-0.20068359375,0.23046875,-28.59756097560976,34.08536585365854,-196.64634146341464,140,0
217,0.20166015625,-0.2109375,0.27880859375,-27.500000000000004,33.53658536585366,-189.14634146341464,140,0
218,0.14013671875,-0.2724609375,0.33203125,-29.512195121951223,32.37804878048781,-180.7926829268293,140,0
219,0.05615234375,-0.2568359375,0.4970703125,-29.512195121951223,32.5609756097561,-172.25609756097563,140,0
220,0.00146484375,-0.40869140625,0.33251953125,-30.426829268292686,30.0609756097561,-163.47560975609758,140,0
221,-0.07861328125,-0.48291015625,0.3193359375,-31.951219512195124,33.04878048780488,-154.26829268292684,140,0
222,-0.10400390625,-0.58203125,0.3203125,-31.89024390243903,36.15853658536586,-143.35365853658539,140,0
223,-0.21630859375,-0.669921875,0.3203125,-33.35365853658537,39.207317073170735,-131.03658536585368,140,0
224,-0.33837890625,-0.77685546875,0.3671875,-37.31707317073171,43.53658536585366,-118.59756097560977,140,0
225,-0.43701171875,-0.884765625,0.47509765625,-38.59756097560976,47.50000000000001,-102.37804878048782,140,0
226,-0.44677734375,-1.025390625,0.5673828125,-38.04878048780488,49.75609756097561,-83.10975609756099,140,0
227,-0.6865234375,-1.1484375,0.6103515625,-34.93902439024391,50.85365853658537,-64.08536585365854,140,0
228,-0.70166015625,-1.2919921875,0.66357421875,-31.707317073170735,54.51219512195122,-43.59756097560976,140,0
229,-0.76171875,-1.45947265625,0.65380859375,-26.463414634146343,53.65853658536586,-22.25609756097561,140,0
230,-0.685546875,-1.61279296875,0.65087890625,-19.146341463414636,52.743902439024396,-15.182926829268293,140,0
231,-0.7109375,-1.74658203125,0.68017578125,-9.085365853658537,55.67073170731708,21.097560975609756,140,0
232,-0.6357421875,-1.81787109375,0.77880859375,-1.0365853658536586,54.69512195121952,43.84146341463415,140,0
233,-0.58056640625,-1.93798828125,0.69873046875,5.7926829268292686,53.29268292682927,68.41463414634147,140,0
234,-0.4990234375,-2.03857421875,0.544921875,13.231707317073171,51.21951219512196,91.15853658536587,140,0
235,-0.3701171875,-2.134765625,0.408203125,22.378048780487806,52.804878048780495,117.98780487804879,140,0
236,-0.26220703125,-2.25634765625,0.296875,35.426829268292686,51.768292682926834,126.46341463414635,140,0
237,-0.240234375,-2.32275390625,0.22314453125,44.51219512195122,54.268292682926834,168.47560975609758,140,0
238,-0.01318359375,-2.48193359375,0.1162109375,53.65853658536586,54.024390243902445,201.52439024390245,140,0
239,0.07470703125,-2.68359375,0.041015625,63.78048780487806,53.17073170731708,218.71951219512198,140,0
240,0.18701171875,-2.83642578125,-0.013671875,72.6219512195122,49.63414634146342,269.26829268292687,140,0
241,0.375,-3.02197265625,-0.03515625,75.60975609756098,47.31707317073171,306.5853658536586,140,0
242,0.52294921875,-3.22607421875,-0.091796875,73.84146341463415,44.93902439024391,347.9878048780488,140,0
243,0.7578125,-3.40869140625,-0.1796875,70.1219512195122,40.670731707317074,374.81707317073176,140,0
244,1.177734375,-3.7548828125,-0.392578125,70.42682926829269,46.03658536585366,423.8414634146342,140,0
245,1.43310546875,-4.298828125,-0.64208984375,88.59756097560977,14.26829268292683,493.5365853658537,140,0
246,2.03271484375,-4.80810546875,-1.1416015625,136.15853658536585,-6.036585365853659,542.7439024390244,140,0
247,2.79296875,-5.091796875,-1.40234375,197.37804878048783,-23.475609756097562,582.1341463414635,140,0
248,3.68359375,-5.23046875,-1.6484375,261.82926829268297,-37.6829268292683,618.3536585365854,140,0
249,4.6240234375,-5.3017578125,-1.61669921875,335.9146341463415,-53.29268292682927,664.4512195121952,140,0
250,5.642578125,-5.36865234375,-1.58056640625,408.5975609756098,-52.6219512195122,715.0000000000001,140,0
251,6.72509765625,-5.041015625,-1.6875,473.2926829268293,-42.25609756097561,757.9878048780488,140,0
252,7.90234375,-4.9072265625,-2.28662109375,529.939024390244,-26.158536585365855,804.329268292683,140,0
253,8.845703125,-4.673828125,-3.26416015625,544.2073170731708,4.695121951219512,830.0000000000001,140,0
254,9.87890625,-4.3583984375,-4.41552734375,548.109756097561,41.40243902439025,851.6463414634147,140,0
255,11.1142578125,-3.4130859375,-5.30810546875,577.3170731707318,76.46341463414635,874.0243902439025,140,0
256,12.28515625,-2.521484375,-5.90283203125,608.1707317073171,52.6219512195122,894.4512195121952,140,0
257,12.171875,-1.40625,-7.17236328125,563.719512195122,6.585365853658537,880.4268292682927,140,0
258,12.30126953125,-0.14306640625,-7.9033203125,627.0731707317074,-53.963414634146346,874.6951219512196,140,0
259,11.19384765625,0.30908203125,-8.583984375,802.6829268292684,-145.91463414634148,846.0975609756098,140,0
260,9.7412109375,-0.517578125,-8.0361328125,971.0975609756099,-246.15853658536588,790.4268292682927,140,0
261,7.34326171875,-1.29736328125,-7.142578125,1155.8536585365855,-376.70731707317077,759.0243902439025,140,0
262,5.31005859375,-3.001953125,-6.78173828125,1319.1463414634147,-571.5243902439025,629.1463414634147,140,0
263,6.328125,-1.35888671875,-16.0,1196.9512195121952,-1416.768292682927,1304.0853658536587,140,0
264,-16.0,-15.99755859375,-0.7373046875,700.4878048780488,884.8170731707318,-519.8170731707318,140,0
265,14.63916015625,4.67138671875,-11.83251953125,923.1097560975611,-408.4756097560976,206.09756097560978,140,0
266,0.60400390625,-8.287109375,-8.9013671875,1458.59756097561,-197.43902439024393,-217.01219512195124,140,0
267,15.99951171875,11.34326171875,5.76318359375,1021.0365853658537,-81.76829268292684,-283.4756097560976,140,0
268,-0.13671875,-5.26220703125,-6.47705078125,1354.939024390244,-30.0609756097561,-518.5975609756098,140,0
269,9.5126953125,0.91748046875,-1.83642578125,844.5731707317074,-129.39024390243904,-624.3902439024391,140,0
270,2.859375,-1.1640625,-2.9716796875,942.9268292682927,-121.34146341463416,-593.2317073170732,140,0
271,3.294921875,-0.24560546875,-4.9765625,691.5243902439025,46.82926829268293,-667.8658536585366,140,0
272,3.63427734375,-0.88720703125,-3.1240234375,517.8048780487806,-26.52439024390244,-679.329268292683,140,0
273,1.6103515625,-1.2470703125,-3.4755859375,476.82926829268297,-3.8414634146341466,-697.3780487804879,140,0
274,1.65673828125,-1.41845703125,-3.0244140625,403.7804878048781,45.60975609756098,-697.7439024390244,140,0
275,1.09375,-1.88427734375,-2.3876953125,284.81707317073176,84.93902439024392,-701.3414634146342,140,0
276,0.95654296875,-2.13720703125,-1.6220703125,208.65853658536588,149.69512195121953,-652.1341463414635,140,0
277,0.65869140625,-2.62451171875,-0.50537109375,165.2439024390244,186.76829268292684,-639.1463414634147,140,0
278,0.810546875,-1.87841796875,-0.27294921875,150.0,211.64634146341464,-644.5731707317074,140,0
279,1.39306640625,-1.26220703125,-0.15625,155.97560975609758,252.74390243902442,-646.5853658536586,140,0
280,2.3017578125,-0.7412109375,-0.34619140625,112.25609756097562,257.5,-672.6219512195122,140,0
281,2.9765625,-0.7080078125,-0.29443359375,56.03658536585366,271.4024390243903,-662.5000000000001,140,0
282,2.8583984375,-0.69384765625,-0.07373046875,4.024390243902439,289.57317073170736,-645.9756097560976,140,0
283,2.70556640625,-0.5478515625,0.0439453125,-51.15853658536586,317.9878048780488,-627.8658536585366,140,0
284,2.58642578125,-0.4169921875,-0.11865234375,-127.13414634146342,329.26829268292687,-622.8048780487806,140,0
285,2.5654296875,-0.4287109375,-0.54150390625,-214.32926829268294,334.0243902439025,-582.0731707317074,140,0
286,2.4853515625,-0.51708984375,-0.97705078125,-259.9390243902439,336.95121951219517,-547.5609756097562,140,0
287,2.09814453125,-0.875,-0.95263671875,-280.2439024390244,318.8414634146342,-520.8536585365854,140,0
288,1.78759765625,-0.75830078125,-0.84912109375,-272.8048780487805,314.81707317073176,-501.89024390243907,140,0
289,1.58984375,-0.54638671875,-0.7783203125,-251.58536585365854,317.25609756097566,-480.7317073170732,140,0
290,1.37548828125,-0.41064453125,-0.86279296875,-239.63414634146343,316.4024390243903,-462.37804878048786,140,0
291,1.5830078125,-0.443359375,-1.2138671875,-227.43902439024393,296.89024390243907,-445.5487804878049,140,0
292,1.568359375,-0.662109375,-1.3330078125,-213.47560975609758,307.9878048780488,-416.5243902439025,140,0
293,1.50146484375,-0.921875,-1.4814453125,-215.12195121951223,315.609756097561,-387.13414634146346,140,0
294,1.43505859375,-1.0244140625,-1.62255859375,-241.70731707317074,318.3536585365854,-346.76829268292687,140,0
295,1.310546875,-0.97216796875,-1.640625,-266.4634146341464,314.57317073170736,-327.31707317073176,140,0
296,0.955078125,-0.92041015625,-1.42919921875,-265.0,310.6707317073171,-296.5243902439025,140,0
297,0.7001953125,-0.75634765625,-1.2548828125,-284.39024390243907,279.45121951219517,-261.1585365853659,140,0
298,0.2548828125,-0.5166015625,-0.986328125,-292.07317073170736,262.5609756097561,-251.52439024390247,140,0
299,0.0703125,-0.169921875,-0.720703125,-341.6463414634147,267.5609756097561,-237.37804878048783,140,0
300,-0.3359375,-0.28515625,-0.84814453125,-362.37804878048786,257.8658536585366,-228.78048780487808,140,0
301,-0.13623046875,-0.23095703125,-1.060546875,-368.2317073170732,252.74390243902442,-220.4878048780488,140,0
302,-0.16845703125,0.00390625,-1.171875,-355.00000000000006,235.6707317073171,-214.69512195121953,140,0
303,-0.27978515625,-0.1162109375,-1.20703125,-332.19512195121956,211.46341463414635,-199.63414634146343,140,0
304,-0.2978515625,-0.20654296875,-1.1171875,-317.9878048780488,190.97560975609758,-180.1219512195122,140,0
305,-0.56982421875,-0.44482421875,-1.10498046875,-303.6585365853659,179.08536585365854,-159.51219512195124,140,0
306,-0.8212890625,-0.5537109375,-1.03271484375,-283.3536585365854,168.1707317073171,-144.87804878048783,140,0
307,-1.04150390625,-0.66162109375,-1.07421875,-266.5243902439025,154.14634146341464,-135.91463414634148,140,0
308,-0.99609375,-0.47216796875,-0.97021484375,-244.75609756097563,141.52439024390245,-140.2439024390244,140,0
309,-0.98583984375,-0.34912109375,-0.9521484375,-230.97560975609758,130.0,-110.1829268292683,140,0
310,-0.94189453125,-0.2626953125,-0.9248046875,-229.69512195121953,121.03658536585367,-90.42682926829269,140,0
311,-0.9765625,-0.28369140625,-0.9423828125,-224.14634146341464,116.82926829268294,-68.47560975609757,140,0
312,-1.0146484375,-0.404296875,-0.75390625,-216.15853658536588,110.67073170731709,-52.804878048780495,140,0
313,-1.181640625,-0.5537109375,-0.8193359375,-218.2926829268293,101.40243902439025,-43.35365853658537,140,0
314,-1.2568359375,-0.5810546875,-0.7880859375,-187.43902439024393,90.97560975609757,-36.951219512195124,140,0
315,-1.1640625,-0.54833984375,-0.87255859375,-168.41463414634148,78.84146341463415,-29.32926829268293,140,0
316,-1.09521484375,-0.42138671875,-0.64990234375,-146.64634146341464,67.8048780487805,-20.60975609756098,140,0
317,-1.06787109375,-0.3369140625,-0.53955078125,-134.9390243902439,60.97560975609757,-16.646341463414636,140,0
318,-1.0615234375,-0.3466796875,-0.5322265625,-126.03658536585367,55.487804878048784,-16.097560975609756,140,0
319,-1.0166015625,-0.23388671875,-0.5263671875,-120.00000000000001,47.5609756097561,-14.817073170731708,140,0
320,-1.11181640625,-0.23779296875,-0.5556640625,-115.2439024390244,35.1219512195122,-10.0,140,0
321,-1.22412109375,-0.33203125,-0.6669921875,-106.58536585365854,20.731707317073173,-6.890243902439025,140,0
322,-1.2861328125,-0.39697265625,-0.74560546875,-96.03658536585367,7.134146341463415,-2.3170731707317076,140,0
323,-1.30810546875,-0.44384765625,-0.72705078125,-82.6219512195122,-4.51219512195122,4.573170731707317,140,0
324,-1.318359375,-0.455078125,-0.66845703125,-70.79268292682927,-0.06097560975609757,12.378048780487806,140,0
325,-1.33984375,-0.39501953125,-0.63623046875,-59.63414634146342,-24.75609756097561,19.75609756097561,140,0
326,-1.33251953125,-0.30517578125,-0.65380859375,-49.63414634146342,-34.024390243902445,26.158536585365855,140,0
327,-1.29052734375,-0.2333984375,-0.6884765625,-39.146341463414636,-41.646341463414636,32.07317073170732,140,0
328,-1.25390625,-0.2177734375,-0.642578125,-29.451219512195124,-47.19512195121952,36.768292682926834,140,0
329,-1.228515625,-0.20703125,-0.56103515625,-21.951219512195124,-50.0609756097561,41.58536585365854,140,0
330,-1.21630859375,-0.21923828125,-0.484375,-16.646341463414636,-54.93902439024391,46.21951219512196,140,0
331,-1.20849609375,-0.21337890625,-0.47802734375,-10.975609756097562,-60.1829268292683,49.51219512195122,140,0
332,-1.19677734375,-0.1826171875,-0.470703125,-3.7195121951219514,-66.70731707317074,52.37804878048781,140,0
333,-1.1611328125,-0.1513671875,-0.4638671875,4.451219512195122,-73.04878048780489,54.024390243902445,140,0
334,-1.1337890625,-0.11083984375,-0.39013671875,14.02439024390244,-77.6219512195122,56.34146341463415,140,0
335,-1.10302734375,-0.08544921875,-0.33056640625,20.182926829268293,-83.29268292682927,58.10975609756098,140,0
336,-1.0830078125,-0.05810546875,-0.2880859375,24.878048780487806,-87.8658536585366,59.024390243902445,140,0
337,-1.06640625,-0.025390625,-0.2421875,30.975609756097565,-93.53658536585367,60.85365853658537,140,0
338,-1.060546875,-0.0166015625,-0.2158203125,37.5,-96.82926829268294,61.524390243902445,140,0
339,-1.0361328125,-0.12353515625,-0.21435546875,42.6829268292683,-100.85365853658537,61.28048780487806,140,0
340,-1.0380859375,0.01025390625,-0.1650390625,46.646341463414636,-105.1829268292683,60.91463414634147,140,0
341,-1.037109375,0.0185546875,-0.14453125,50.426829268292686,-109.08536585365854,60.97560975609757,140,0
342,-1.03271484375,0.017578125,-0.134765625,52.6219512195122,-112.56097560975611,61.03658536585366,140,0
343,-1.041015625,0.01318359375,-0.115234375,55.365853658536594,-116.15853658536587,61.40243902439025,140,0
344,-1.03662109375,0.013671875,-0.0869140625,57.6829268292683,-119.26829268292684,62.25609756097562,140,0
345,-1.0380859375,0.0341796875,-0.06298828125,60.00000000000001,-122.19512195121952,63.963414634146346,140,0
346,-1.04052734375,0.03955078125,-0.01171875,61.89024390243903,-123.78048780487806,65.0,140,0
347,-1.03369140625,0.07373046875,-0.125,46.89024390243903,-125.67073170731709,65.60975609756098,140,0
348,-1.013671875,0.1201171875,0.021484375,64.26829268292684,-129.75609756097563,66.64634146341464,140,0
349,-1.00830078125,0.14794921875,0.03369140625,67.43902439024392,-135.6707317073171,67.43902439024392,140,0
350,-0.9814453125,0.18115234375,0.04736328125,71.34146341463415,-140.0,67.37804878048782,140,0
351,-0.9541015625,0.20556640625,0.0947265625,72.8658536585366,-141.15853658536588,66.46341463414635,140,0
352,-0.88916015625,0.23291015625,0.11767578125,72.5,-142.9268292682927,66.21951219512195,140,0
353,-0.8515625,0.26318359375,0.14111328125,72.25609756097562,-145.2439024390244,65.48780487804879,140,0
354,-0.83251953125,0.28125,0.17236328125,74.26829268292684,-150.1219512195122,64.87804878048782,140,0
355,-0.8193359375,0.2666015625,0.20751953125,77.7439024390244,-154.08536585365854,63.78048780487806,140,0
356,-0.81103515625,0.2421875,0.25146484375,79.93902439024392,-154.75609756097563,61.463414634146346,140,0
357,-0.779296875,0.240234375,0.2978515625,81.89024390243902,-154.69512195121953,58.963414634146346,140,0
358,-0.74365234375,0.27490234375,0.35400390625,83.96341463414635,-157.8048780487805,58.53658536585366,140,0
359,-0.69580078125,0.29541015625,0.38330078125,86.15853658536587,-155.2439024390244,58.10975609756098,140,0
360,-0.6787109375,0.294921875,0.40380859375,85.00000000000001,-153.84146341463415,56.646341463414636,140,0
361,-0.66748046875,0.287109375,0.45556640625,83.10975609756099,-150.609756097561,54.451219512195124,140,0
362,-0.65869140625,0.30419921875,0.455078125,79.93902439024392,-149.45121951219514,53.71951219512196,140,0
363,-0.63232421875,0.31103515625,0.46728515625,79.32926829268294,-148.2317073170732,53.10975609756098,140,0
364,-0.623046875,0.31005859375,0.47607421875,79.93902439024392,-150.5487804878049,52.5609756097561,140,0
365,-0.60986328125,0.30859375,0.47607421875,83.65853658536587,-153.71951219512195,52.743902439024396,140,0
366,-0.60595703125,0.29150390625,0.505859375,85.85365853658537,-154.26829268292684,50.60975609756098,140,0
367,-0.56201171875,0.3125,0.533203125,88.47560975609757,-154.81707317073173,49.51219512195122,140,0
368,-0.53759765625,0.3330078125,0.54931640625,90.67073170731707,-155.4268292682927,49.81707317073171,140,0
369,-0.505859375,0.353515625,0.5546875,93.53658536585367,-156.34146341463415,50.487804878048784,140,0
370,-0.48583984375,0.36328125,0.55224609375,95.0609756097561,-154.69512195121953,50.243902439024396,140,0
371,-0.46533203125,0.36474609375,0.552734375,87.6219512195122,-147.6829268292683,47.743902439024396,140,0
372,-0.4267578125,0.39208984375,0.54150390625,78.35365853658537,-142.4390243902439,46.40243902439025,140,0
373,-0.427734375,0.3935546875,0.56787109375,73.29268292682927,-137.9878048780488,45.670731707317074,140,0
374,-0.42724609375,0.3876953125,0.59326171875,72.7439024390244,-136.64634146341464,46.09756097560976,140,0
375,-0.4248046875,0.36083984375,0.5009765625,75.79268292682927,-137.4390243902439,47.13414634146342,140,0
376,-0.41943359375,0.34326171875,0.6484375,81.76829268292684,-141.40243902439025,48.59756097560976,140,0
377,-0.43017578125,0.345703125,0.66357421875,89.81707317073172,-144.20731707317074,48.47560975609756,140,0
378,-0.416015625,0.35595703125,0.66748046875,94.32926829268294,-145.3048780487805,47.804878048780495,140,0
379,-0.38818359375,0.37353515625,0.66796875,95.79268292682927,-145.4268292682927,48.84146341463415,140,0
380,-0.40185546875,0.384765625,0.6318359375,90.60975609756099,-142.07317073170734,48.71951219512196,140,0
381,-0.38037109375,0.44189453125,0.6162109375,85.91463414634147,-140.4878048780488,49.63414634146342,140,0
382,-0.37744140625,0.44384765625,0.6181640625,80.97560975609757,-138.84146341463415,51.21951219512196,140,0
383,-0.3720703125,0.458984375,0.61181640625,76.21951219512196,-138.1707317073171,52.6219512195122,140,0
384,-0.37060546875,0.455078125,0.591796875,71.28048780487805,-136.21951219512195,53.59756097560976,140,0
385,-0.36181640625,0.47021484375,0.59423828125,69.39024390243902,-135.3048780487805,54.63414634146342,140,0
386,-0.333984375,0.4921875,0.58837890625,70.54878048780489,-135.1829268292683,56.707317073170735,140,0
387,-0.28515625,0.5068359375,0.60400390625,72.43902439024392,-135.85365853658539,59.63414634146342,140,0
388,-0.12939453125,0.62353515625,0.60986328125,74.14634146341464,-135.7317073170732,62.804878048780495,140,0
389,-0.24658203125,0.48046875,0.60498046875,72.31707317073172,-132.9878048780488,64.45121951219512,140,0
390,-0.240234375,0.4833984375,0.619140625,67.8658536585366,-128.65853658536585,65.67073170731707,140,0
391,-0.232421875,0.498046875,0.59814453125,61.524390243902445,-123.47560975609757,67.31707317073172,140,0
392,-0.21142578125,0.51123046875,0.58642578125,56.15853658536586,-119.63414634146342,68.96341463414635,140,0
393,-0.1728515625,0.52001953125,0.57958984375,53.84146341463415,-117.92682926829269,72.31707317073172,140,0
394,-0.130859375,0.5166015625,0.5810546875,53.84146341463415,-119.26829268292684,75.85365853658537,140,0
395,-0.12255859375,0.623046875,0.54833984375,53.23170731707317,-120.12195121951221,78.78048780487805,140,0
396,-0.111328125,0.51220703125,0.541015625,52.13414634146342,-119.87804878048782,80.0,140,0
397,-0.08251953125,0.5546875,0.57568359375,50.426829268292686,-119.93902439024392,81.52439024390245,140,0
398,-0.03125,0.58935546875,0.609375,48.84146341463415,-120.00000000000001,83.10975609756099,140,0
399,-0.01025390625,0.58056640625,0.74609375,46.89024390243903,-120.3048780487805,85.42682926829269,140,0
400,-0.0146484375,0.55517578125,0.6435546875,46.34146341463415,-119.75609756097562,85.91463414634147,140,0
401,-0.00732421875,0.53369140625,0.63720703125,31.219512195121954,-119.14634146341464,86.40243902439025,140,0
402,0.01611328125,0.544921875,0.615234375,47.804878048780495,-118.90243902439025,87.5609756097561,140,0
403,0.06640625,0.55517578125,0.58740234375,48.41463414634147,-119.20731707317074,89.08536585365854,140,0
404,0.1171875,0.578125,0.548828125,62.19512195121952,-120.3658536585366,90.67073170731707,140,0
405,0.1416015625,0.576171875,0.51708984375,40.97560975609756,-119.63414634146342,91.64634146341464,140,0
406,0.166015625,0.61376953125,0.5634765625,34.207317073170735,-118.59756097560977,92.13414634146342,140,0
407,0.17041015625,0.6337890625,0.60009765625,28.963414634146343,-117.13414634146342,91.64634146341464,140,0
408,0.1796875,0.62841796875,0.65869140625,26.09756097560976,-115.12195121951221,91.21951219512196,140,0
409,0.18408203125,0.6328125,0.6669921875,26.52439024390244,-114.26829268292684,90.60975609756099,140,0
410,0.19091796875,0.6083984375,0.6611328125,28.84146341463415,-114.51219512195122,90.85365853658537,140,0
411,0.19287109375,0.6201171875,0.63916015625,32.07317073170732,-115.97560975609757,91.76829268292684,140,0
412,0.22119140625,0.63525390625,0.5986328125,34.57317073170732,-117.31707317073172,92.98780487804879,140,0
413,0.21533203125,0.64501953125,0.56591796875,33.47560975609756,-115.91463414634147,94.81707317073172,140,0
414,0.23486328125,0.6875,0.53857421875,32.80487804878049,-114.39024390243904,94.87804878048782,140,0
415,0.26611328125,0.7177734375,0.55078125,32.987804878048784,-113.47560975609757,97.13414634146342,140,0
416,0.28955078125,0.74853515625,0.54833984375,33.29268292682927,-112.25609756097562,97.6829268292683,140,0
417,0.330078125,0.77294921875,0.5234375,31.03658536585366,-110.73170731707319,97.07317073170732,140,0
418,0.3564453125,0.7890625,0.5185546875,27.500000000000004,-108.41463414634147,96.03658536585367,140,0
419,0.37646484375,0.79736328125,0.5205078125,23.59756097560976,-105.60975609756099,93.71951219512196,140,0
420,0.39111328125,0.78369140625,0.5546875,19.75609756097561,-103.41463414634147,93.04878048780489,140,0
421,0.38134765625,0.75341796875,0.5966796875,19.81707317073171,-102.6219512195122,93.17073170731707,140,0
422,0.3525390625,0.69287109375,0.62158203125,22.25609756097561,-100.60975609756099,91.95121951219512,140,0
423,0.33837890625,0.67431640625,0.59912109375,25.914634146341466,-98.53658536585367,91.82926829268294,140,0
424,0.35986328125,0.6875,0.5478515625,27.80487804878049,-98.90243902439025,92.31707317073172,140,0
425,0.259765625,0.6943359375,0.375,26.28048780487805,-98.53658536585367,109.02439024390245,140,0
426,0.416015625,0.71875,0.435546875,23.902439024390247,-98.78048780487806,94.20731707317074,140,0
427,0.44287109375,0.73681640625,0.44775390625,22.012195121951223,-99.51219512195122,94.75609756097562,140,0
428,0.45556640625,0.75146484375,0.47509765625,21.097560975609756,-100.79268292682927,95.3658536585366,140,0
429,0.4345703125,0.73583984375,0.49755859375,20.48780487804878,-100.73170731707317,96.34146341463415,140,0
430,0.44091796875,0.69921875,0.5693359375,18.658536585365855,-98.35365853658537,95.67073170731709,140,0
431,0.4423828125,0.68603515625,0.60693359375,15.914634146341465,-94.39024390243904,94.26829268292684,140,0
432,0.4755859375,0.67724609375,0.58740234375,13.841463414634148,-91.52439024390245,92.25609756097562,140,0
433,0.529296875,0.69970703125,0.61328125,16.82926829268293,-92.19512195121952,92.8658536585366,140,0
434,0.5263671875,0.591796875,0.4541015625,19.32926829268293,-92.19512195121952,91.15853658536587,140,0
435,0.5693359375,0.56103515625,0.41748046875,19.390243902439025,-90.1219512195122,87.13414634146342,140,0
436,0.5,0.5703125,0.3701171875,21.03658536585366,-89.14634146341464,84.26829268292684,140,0
437,0.65673828125,0.6025390625,0.25048828125,22.621951219512198,-89.08536585365854,82.8048780487805,140,0
438,0.6708984375,0.595703125,0.3916015625,22.743902439024392,-89.69512195121952,82.8048780487805,140,0
439,0.6630859375,0.54638671875,0.38916015625,23.231707317073173,-91.28048780487806,83.53658536585367,140,0
440,0.640625,0.51025390625,0.4609375,23.902439024390247,-90.60975609756099,81.46341463414635,140,0
441,0.63916015625,0.4970703125,0.46142578125,22.439024390243905,-89.14634146341464,80.3658536585366,140,0
442,0.62109375,0.4921875,0.46337890625,22.439024390243905,-88.96341463414635,80.3658536585366,140,0
443,0.60888671875,0.46826171875,0.443359375,23.963414634146343,-90.3048780487805,81.34146341463415,140,0
444,0.59716796875,0.4501953125,0.38916015625,25.975609756097562,-92.92682926829269,83.17073170731707,140,0
445,0.61328125,0.42236328125,0.36279296875,26.03658536585366,-91.70731707317074,83.23170731707317,140,0
446,0.6455078125,0.4052734375,0.30126953125,18.10975609756098,-87.43902439024392,81.52439024390245,140,0
447,0.716796875,0.4375,0.314453125,10.182926829268293,-81.34146341463415,81.15853658536587,140,0
448,0.75830078125,0.44775390625,0.3525390625,4.51219512195122,-77.43902439024392,81.15853658536587,140,0
449,0.7705078125,0.42578125,0.43505859375,2.6219512195121952,-74.45121951219512,81.89024390243902,140,0
450,0.72607421875,0.49609375,0.44873046875,5.7926829268292686,-72.43902439024392,82.50000000000001,140,0
451,0.69384765625,0.34912109375,0.47119140625,13.963414634146343,-72.19512195121952,83.35365853658537,140,0
452,0.70263671875,0.32421875,0.48583984375,23.53658536585366,-71.95121951219512,80.2439024390244,140,0
453,0.75927734375,0.3525390625,0.45361328125,30.0609756097561,-72.31707317073172,78.96341463414635,140,0
454,0.75048828125,0.3486328125,0.38134765625,35.54878048780488,-72.7439024390244,78.35365853658537,140,0
455,0.72900390625,0.3330078125,0.3212890625,35.1219512195122,-70.73170731707317,75.0609756097561,140,0
456,0.77587890625,0.3583984375,0.2958984375,32.6829268292683,-67.43902439024392,73.04878048780489,140,0
457,0.78515625,0.3798828125,0.30224609375,32.86585365853659,-65.91463414634147,73.71951219512195,140,0
458,0.7822265625,0.35302734375,0.30029296875,30.121951219512198,-65.2439024390244,75.48780487804879,140,0
459,0.72705078125,0.28369140625,0.2470703125,27.012195121951223,-62.01219512195122,75.1829268292683,140,0
460,0.69970703125,0.25390625,0.27880859375,29.81707317073171,-59.451219512195124,75.0609756097561,140,0
461,0.716796875,0.2373046875,0.29931640625,32.37804878048781,-57.865853658536594,75.60975609756098,140,0
462,0.7275390625,0.203125,0.283203125,34.57317073170732,-55.73170731707317,77.25609756097562,140,0
463,0.66845703125,0.13916015625,0.31494140625,32.13414634146342,-46.03658536585366,75.73170731707317,140,0
464,0.66455078125,0.138671875,0.32373046875,26.28048780487805,-35.0,76.70731707317074,140,0
465,0.67333984375,0.1552734375,0.35498046875,23.902439024390247,-29.146341463414636,81.46341463414635,140,0
466,0.63916015625,0.09326171875,0.2890625,16.463414634146343,-21.158536585365855,85.85365853658537,140,0
467,0.60205078125,0.04736328125,0.2451171875,9.451219512195122,-11.219512195121952,87.43902439024392,140,0
468,0.662109375,0.0849609375,0.2509765625,6.646341463414635,-6.036585365853659,89.26829268292684,140,0
469,0.7216796875,0.08984375,0.23046875,2.378048780487805,0.7317073170731708,92.98780487804879,140,0
470,0.62744140625,0.0439453125,0.21337890625,-7.8048780487804885,10.792682926829269,96.28048780487806,140,0
471,0.634765625,0.021484375,0.21142578125,-16.951219512195124,20.975609756097562,96.46341463414635,140,0
472,0.78271484375,0.04345703125,0.23486328125,-21.646341463414636,27.926829268292686,96.34146341463415,140,0
473,0.8203125,0.04833984375,0.36669921875,-24.02439024390244,30.30487804878049,97.92682926829269,140,0
474,0.814453125,0.00244140625,0.19677734375,-26.09756097560976,30.914634146341466,98.96341463414635,140,0
475,0.8125,-0.01025390625,0.1416015625,-25.365853658536587,32.19512195121951,98.59756097560977,140,0
476,0.85498046875,0.02978515625,0.15771484375,-24.573170731707318,33.41463414634146,96.76829268292684,140,0
477,0.90380859375,0.05712890625,0.14111328125,-28.353658536585368,34.81707317073171,97.13414634146342,140,0
478,0.90869140625,0.03955078125,0.09814453125,-33.963414634146346,36.58536585365854,96.76829268292684,140,0
479,0.912109375,0.0390625,0.0859375,-38.59756097560976,38.04878048780488,92.31707317073172,140,0
480,0.9423828125,0.05322265625,0.07568359375,-42.07317073170732,37.25609756097561,88.78048780487805,140,0
481,0.9677734375,0.0576171875,0.05810546875,-44.32926829268293,35.91463414634147,86.21951219512196,140,0
482,0.9619140625,0.04541015625,0.0703125,-45.85365853658537,33.23170731707317,84.75609756097562,140,0
483,0.95263671875,0.0166015625,0.0400390625,-47.50000000000001,30.792682926829272,82.01219512195122,140,0
484,0.93310546875,0.0146484375,0.00927734375,-48.29268292682927,28.53658536585366,78.96341463414635,140,0
485,0.90966796875,0.01171875,0.00634765625,-49.085365853658544,25.975609756097562,76.46341463414635,140,0
486,0.92626953125,0.03662109375,0.00927734375,-50.1219512195122,22.5609756097561,74.51219512195122,140,0
487,0.88427734375,0.0087890625,0.009765625,-51.768292682926834,19.512195121951223,73.71951219512195,140,0
488,0.841796875,-0.04248046875,0.00927734375,-52.07317073170732,16.646341463414636,71.70731707317074,140,0
489,0.84375,-0.0361328125,-0.00732421875,-51.585365853658544,13.719512195121952,69.63414634146342,140,0
490,0.85107421875,-0.04345703125,-0.02392578125,-51.646341463414636,11.52439024390244,67.7439024390244,140,0
491,0.83251953125,-0.06689453125,-0.03759765625,-51.21951219512196,10.24390243902439,67.19512195121952,140,0
492,0.8193359375,-0.07177734375,-0.0146484375,-52.07317073170732,10.792682926829269,66.46341463414635,140,0
493,0.82666015625,-0.06494140625,0.0009765625,-54.81707317073171,10.975609756097562,65.97560975609757,140,0
494,0.8017578125,-0.09619140625,0.0107421875,-54.69512195121952,10.30487804878049,66.28048780487805,140,0
495,0.78173828125,-0.14404296875,0.0126953125,-50.00000000000001,5.609756097560976,65.91463414634147,140,0
496,0.76513671875,-0.16357421875,0.0234375,-43.53658536585366,2.5,63.84146341463415,140,0
497,0.7802734375,-0.166015625,0.02734375,-37.6219512195122,0.1829268292682927,77.98780487804879,140,0
498,0.81689453125,-0.134765625,0.02099609375,-35.426829268292686,0.7317073170731708,60.91463414634147,140,0
499,0.8134765625,-0.12451171875,0.015625,-36.58536585365854,2.5609756097560976,60.54878048780488,140,0
