,Ax,Ay,Az,Gx,Gy,Gz,distance,shot_type
0,0.6630859375,-0.48974609375,-0.314453125,7.926829268292684,-0.9146341463414634,-1.4634146341463417,135,4
1,0.654296875,-0.48291015625,-0.30810546875,8.292682926829269,-0.3658536585365854,-1.707317073170732,135,4
2,0.64111328125,-0.47021484375,-0.3037109375,8.902439024390244,-0.48780487804878053,-2.0121951219512195,135,4
3,0.6689453125,-0.45654296875,-0.296875,10.30487804878049,-0.853658536585366,-2.439024390243903,135,4
4,0.6806640625,-0.451171875,-0.28515625,11.097560975609756,-0.7317073170731708,-2.5609756097560976,135,4
5,0.7021484375,-0.435546875,-0.2822265625,10.914634146341465,-0.06097560975609757,-2.1951219512195124,135,4
6,0.71630859375,-0.431640625,-0.28857421875,9.085365853658537,1.2804878048780488,-2.1341463414634148,135,4
7,0.728515625,-0.43505859375,-0.2734375,7.01219512195122,3.1707317073170733,-1.707317073170732,135,4
8,0.69775390625,-0.4501953125,-0.28369140625,5.060975609756098,4.085365853658537,-2.0121951219512195,135,4
9,0.71044921875,-0.43701171875,-0.2890625,6.2804878048780495,2.682926829268293,-2.1951219512195124,135,4
10,0.73095703125,-0.44677734375,-0.2880859375,6.829268292682928,3.5975609756097566,-2.439024390243903,135,4
11,0.73583984375,-0.46435546875,-0.30419921875,3.8414634146341466,4.878048780487806,-1.0975609756097562,135,4
12,0.68017578125,-0.50439453125,-0.31396484375,1.7682926829268295,5.853658536585367,-1.0365853658536586,135,4
13,0.654296875,-0.53369140625,-0.30712890625,1.829268292682927,6.036585365853659,-1.2195121951219514,135,4
14,0.677734375,-0.53125,-0.31640625,0.06097560975609757,7.25609756097561,-1.8902439024390245,135,4
15,0.71826171875,-0.62451171875,-0.32373046875,-1.7682926829268295,9.390243902439025,-3.4756097560975614,135,4
16,0.7060546875,-0.37841796875,-0.3466796875,-6.2804878048780495,11.951219512195124,-3.780487804878049,135,4
17,0.6953125,-0.509765625,-0.3310546875,-10.365853658536587,14.26829268292683,-4.75609756097561,135,4
18,0.70654296875,-0.5078125,-0.30810546875,-12.560975609756099,15.182926829268293,-5.487804878048781,135,4
19,0.712890625,-0.5078125,-0.27978515625,-11.341463414634147,13.29268292682927,-5.7926829268292686,135,4
20,0.67626953125,-0.5400390625,-0.23974609375,-7.682926829268293,10.24390243902439,-5.0,135,4
21,0.63671875,-0.58251953125,-0.232421875,-2.378048780487805,7.25609756097561,-3.9024390243902443,135,4
22,0.64599609375,-0.58154296875,-0.23388671875,1.7682926829268295,5.426829268292684,-3.1097560975609757,135,4
23,0.64990234375,-0.56884765625,-0.2333984375,3.5975609756097566,5.182926829268293,-1.6463414634146343,135,4
24,0.63623046875,-0.560546875,-0.224609375,5.060975609756098,5.7926829268292686,-0.6097560975609757,135,4
25,0.642578125,-0.576171875,-0.21728515625,6.402439024390245,6.341463414634147,-0.426829268292683,135,4
26,0.66064453125,-0.5439453125,-0.23193359375,7.987804878048781,7.621951219512196,-0.6707317073170732,135,4
27,0.66796875,-0.53369140625,-0.24072265625,7.195121951219513,9.329268292682928,-0.24390243902439027,135,4
28,0.66455078125,-0.53759765625,-0.24072265625,5.853658536585367,11.402439024390246,0.30487804878048785,135,4
29,0.66015625,-0.54736328125,-0.2294921875,3.7195121951219514,13.475609756097562,0.6707317073170732,135,4
30,0.6591796875,-0.537109375,-0.22998046875,1.6463414634146343,0.0,1.2195121951219514,135,4
31,0.65771484375,-0.525390625,-0.24169921875,0.9146341463414634,16.34146341463415,1.402439024390244,135,4
32,0.64990234375,-0.54638671875,-0.23974609375,0.6707317073170732,16.951219512195124,1.7682926829268295,135,4
33,0.6591796875,-0.53857421875,-0.24267578125,0.3658536585365854,17.5,1.829268292682927,135,4
34,0.66748046875,-0.53271484375,-0.2099609375,2.682926829268293,16.402439024390244,2.1341463414634148,135,4
35,0.66650390625,-0.54833984375,-0.181640625,6.402439024390245,15.30487804878049,2.1341463414634148,135,4
36,0.6591796875,-0.54638671875,-0.1787109375,10.24390243902439,14.26829268292683,1.2804878048780488,135,4
37,0.6865234375,-0.52734375,-0.1943359375,11.52439024390244,13.78048780487805,1.4634146341463417,135,4
38,0.70458984375,-0.6240234375,-0.2353515625,11.402439024390246,12.256097560975611,1.1585365853658538,135,4
39,0.7265625,-0.48193359375,-0.23779296875,12.073170731707318,11.646341463414634,0.9756097560975611,135,4
40,0.7080078125,-0.49560546875,-0.232421875,11.036585365853659,12.682926829268293,0.9756097560975611,135,4
41,0.7109375,-0.48291015625,-0.23974609375,8.902439024390244,14.146341463414636,0.1829268292682927,135,4
42,0.7216796875,-0.46044921875,-0.27392578125,5.426829268292684,16.28048780487805,0.30487804878048785,135,4
43,0.6923828125,-0.49609375,-0.37158203125,2.5,19.81707317073171,1.1585365853658538,135,4
44,0.64794921875,-0.55615234375,-0.2353515625,15.54878048780488,22.5609756097561,3.414634146341464,135,4
45,0.62109375,-0.58984375,-0.20556640625,-0.6097560975609757,23.29268292682927,4.2682926829268295,135,4
46,0.63427734375,-0.58544921875,-0.208984375,1.3414634146341464,23.10975609756098,4.75609756097561,135,4
47,0.6337890625,-0.5576171875,-0.1962890625,2.25609756097561,24.207317073170735,5.121951219512195,135,4
48,0.634765625,-0.55908203125,-0.20703125,15.365853658536587,26.82926829268293,5.853658536585367,135,4
49,0.50048828125,-0.55908203125,-0.2021484375,-4.451219512195122,30.30487804878049,6.2804878048780495,135,4
50,0.6416015625,-0.53564453125,-0.22314453125,-8.536585365853659,34.451219512195124,6.097560975609756,135,4
51,0.63623046875,-0.5146484375,-0.21435546875,-12.134146341463415,39.69512195121951,6.158536585365854,135,4
52,0.64306640625,-0.537109375,-0.16552734375,-14.207317073170733,44.08536585365854,6.951219512195123,135,4
53,0.6513671875,-0.55712890625,-0.24755859375,-14.146341463414636,48.963414634146346,8.170731707317074,135,4
54,0.6640625,-0.5556640625,-0.04736328125,-11.158536585365855,49.51219512195122,8.719512195121952,135,4
55,0.66943359375,-0.54736328125,-0.04443359375,-5.670731707317073,48.78048780487805,10.548780487804878,135,4
56,0.62890625,-0.5810546875,-0.07666015625,-1.5853658536585367,46.21951219512196,12.74390243902439,135,4
57,0.6376953125,-0.5556640625,-0.16552734375,1.0975609756097562,44.87804878048781,12.073170731707318,135,4
58,0.69775390625,-0.46875,-0.22021484375,0.06097560975609757,46.58536585365854,11.158536585365855,135,4
59,0.63037109375,-0.427734375,-0.2587890625,-5.3048780487804885,50.1219512195122,9.451219512195122,135,4
60,0.7421875,-0.43212890625,-0.287109375,-11.341463414634147,52.6829268292683,7.682926829268293,135,4
61,0.73974609375,-0.4404296875,-0.26220703125,-11.585365853658537,51.585365853658544,6.219512195121951,135,4
62,0.701171875,-0.49560546875,-0.21923828125,-8.414634146341465,48.71951219512196,6.097560975609756,135,4
63,0.68603515625,-0.51611328125,-0.20703125,-4.75609756097561,45.426829268292686,6.463414634146342,135,4
64,0.6884765625,-0.49365234375,-0.19970703125,-2.3170731707317076,43.47560975609756,6.707317073170732,135,4
65,0.6640625,-0.4853515625,-0.2060546875,-0.9756097560975611,41.890243902439025,7.560975609756098,135,4
66,0.63720703125,-0.50390625,-0.21044921875,0.48780487804878053,41.34146341463415,8.048780487804878,135,4
67,0.64208984375,-0.49609375,-0.2021484375,1.0365853658536586,42.6219512195122,8.536585365853659,135,4
68,0.673828125,-0.4560546875,-0.22802734375,-3.231707317073171,44.87804878048781,9.573170731707318,135,4
69,0.70849609375,-0.40087890625,-0.318359375,-10.792682926829269,47.19512195121952,9.085365853658537,135,4
70,0.76708984375,-0.3203125,-0.341796875,-20.30487804878049,52.07317073170732,8.658536585365855,135,4
71,0.78857421875,-0.31396484375,-0.3466796875,-29.695121951219516,56.40243902439025,7.865853658536586,135,4
72,0.7783203125,-0.36572265625,-0.3583984375,-36.21951219512196,59.57317073170732,6.585365853658537,135,4
73,0.7529296875,-0.4384765625,-0.330078125,-39.57317073170732,60.1829268292683,6.036585365853659,135,4
74,0.7607421875,-0.44970703125,-0.34619140625,-38.41463414634147,57.6829268292683,5.7926829268292686,135,4
75,0.734375,-0.47607421875,-0.3359375,-34.81707317073171,54.207317073170735,5.7926829268292686,135,4
76,0.70263671875,-0.48193359375,-0.31103515625,-46.82926829268293,51.15853658536586,5.426829268292684,135,4
77,0.6875,-0.46875,-0.27587890625,-31.03658536585366,49.32926829268293,4.634146341463415,135,4
78,0.6708984375,-0.451171875,-0.2666015625,-32.43902439024391,50.426829268292686,4.146341463414634,135,4
79,0.66015625,-0.455078125,-0.24267578125,-36.82926829268293,50.670731707317074,4.75609756097561,135,4
80,0.65576171875,-0.44140625,-0.2509765625,-36.951219512195124,47.13414634146342,4.390243902439025,135,4
81,0.67529296875,-0.43408203125,-0.29443359375,-33.963414634146346,41.524390243902445,3.780487804878049,135,4
82,0.66064453125,-0.44775390625,-0.333984375,-30.731707317073173,35.0609756097561,2.682926829268293,135,4
83,0.67724609375,-0.42822265625,-0.37158203125,-28.170731707317074,31.219512195121954,0.853658536585366,135,4
84,0.7119140625,-0.404296875,-0.3583984375,-27.743902439024392,29.451219512195124,-0.6097560975609757,135,4
85,0.73779296875,-0.384765625,-0.345703125,-29.26829268292683,27.743902439024392,-1.6463414634146343,135,4
86,0.7099609375,-0.4150390625,-0.3447265625,-30.30487804878049,25.914634146341466,-2.1341463414634148,135,4
87,0.65234375,-0.45654296875,-0.302734375,-30.121951219512198,24.451219512195124,-2.378048780487805,135,4
88,0.64501953125,-0.44873046875,-0.126953125,-28.658536585365855,21.646341463414636,-3.1707317073170733,135,4
89,0.65185546875,-0.43408203125,-0.37451171875,-26.52439024390244,18.963414634146343,-3.231707317073171,135,4
90,0.64404296875,-0.4404296875,-0.2646484375,-24.939024390243905,16.463414634146343,-3.536585365853659,135,4
91,0.6650390625,-0.42041015625,-0.30810546875,-24.512195121951223,12.317073170731708,-4.207317073170732,135,4
92,0.6826171875,-0.38671875,-0.32666015625,-24.75609756097561,10.670731707317074,-5.182926829268293,135,4
93,0.67529296875,-0.3818359375,-0.3212890625,-28.963414634146343,9.756097560975611,-7.439024390243903,135,4
94,0.70849609375,-0.33251953125,-0.31884765625,-32.86585365853659,9.573170731707318,-9.451219512195122,135,4
95,0.70849609375,-0.3388671875,-0.31005859375,-37.80487804878049,10.609756097560977,-11.402439024390246,135,4
96,0.7080078125,-0.3583984375,-0.2783203125,-41.03658536585366,11.219512195121952,-12.74390243902439,135,4
97,0.697265625,-0.3798828125,-0.2822265625,-43.47560975609756,11.28048780487805,-13.719512195121952,135,4
98,0.69921875,-0.25048828125,-0.279296875,-45.1219512195122,10.731707317073171,-14.207317073170733,135,4
99,0.693359375,-0.38134765625,-0.2705078125,-46.646341463414636,10.24390243902439,-14.939024390243905,135,4
100,0.69775390625,-0.38134765625,-0.26708984375,-47.804878048780495,9.939024390243903,-15.609756097560977,135,4
101,0.69677734375,-0.3759765625,-0.27294921875,-49.32926829268293,10.121951219512196,-15.487804878048783,135,4
102,0.69677734375,-0.376953125,-0.31005859375,-52.31707317073171,10.487804878048781,-16.219512195121954,135,4
103,0.71337890625,-0.34765625,-0.2880859375,-55.73170731707317,10.914634146341465,-17.31707317073171,135,4
104,0.7216796875,-0.34375,-0.31884765625,-60.54878048780488,12.74390243902439,-18.231707317073173,135,4
105,0.732421875,-0.32470703125,-0.322265625,-66.70731707317074,14.451219512195124,-19.085365853658537,135,4
106,0.73583984375,-0.3037109375,-0.31689453125,-72.31707317073172,16.70731707317073,-20.670731707317074,135,4
107,0.74072265625,-0.31982421875,-0.29052734375,-77.7439024390244,18.84146341463415,-21.097560975609756,135,4
108,0.7431640625,-0.32763671875,-0.29248046875,-80.60975609756099,19.939024390243905,-22.195121951219512,135,4
109,0.72607421875,-0.32958984375,-0.27099609375,-82.98780487804879,20.0,-22.5609756097561,135,4
110,0.70556640625,-0.3408203125,-0.26611328125,-84.93902439024392,19.939024390243905,-23.170731707317074,135,4
111,0.72412109375,-0.3515625,-0.27294921875,-86.64634146341464,19.451219512195124,-24.390243902439025,135,4
112,0.7353515625,-0.32421875,-0.30078125,-87.43902439024392,18.29268292682927,-25.60975609756098,135,4
113,0.74267578125,-0.3154296875,-0.32275390625,-88.53658536585367,16.402439024390244,-26.402439024390247,135,4
114,0.748046875,-0.33203125,-0.35498046875,-90.97560975609757,16.28048780487805,-27.682926829268297,135,4
115,0.75830078125,-0.33251953125,-0.3486328125,-93.59756097560977,16.951219512195124,-29.451219512195124,135,4
116,0.77099609375,-0.29296875,-0.35791015625,-97.5609756097561,18.231707317073173,-31.58536585365854,135,4
117,0.78955078125,-0.267578125,-0.345703125,-102.8048780487805,21.52439024390244,-32.80487804878049,135,4
118,0.77978515625,-0.27197265625,-0.3388671875,-108.41463414634147,24.81707317073171,-34.207317073170735,135,4
119,0.7568359375,-0.27197265625,-0.294921875,-114.32926829268294,28.53658536585366,-34.81707317073171,135,4
120,0.73095703125,-0.2841796875,-0.27099609375,-119.45121951219514,32.6219512195122,-34.207317073170735,135,4
121,0.7001953125,-0.3046875,-0.26611328125,-122.50000000000001,36.21951219512196,-32.01219512195122,135,4
122,0.662109375,-0.32666015625,-0.27099609375,-122.62195121951221,40.304878048780495,-28.414634146341466,135,4
123,0.67236328125,-0.3310546875,-0.2841796875,-122.19512195121952,44.75609756097561,-24.695121951219516,135,4
124,0.72265625,-0.3173828125,-0.3330078125,-124.20731707317074,50.1219512195122,-23.719512195121954,135,4
125,0.7880859375,-0.2275390625,-0.39990234375,-125.3048780487805,52.01219512195122,-25.792682926829272,135,4
126,0.86181640625,-0.14697265625,-0.4228515625,-131.70731707317074,55.243902439024396,-29.87804878048781,135,4
127,0.91748046875,-0.13525390625,-0.43896484375,-142.01219512195124,58.90243902439025,-37.43902439024391,135,4
128,0.94091796875,-0.17138671875,-0.41796875,-150.1829268292683,59.87804878048781,-44.69512195121952,135,4
129,0.91259765625,-0.203125,-0.4990234375,-153.90243902439025,58.10975609756098,-51.524390243902445,135,4
130,0.92529296875,-0.2412109375,-0.302734375,-155.2439024390244,55.91463414634147,-57.6829268292683,135,4
131,0.89501953125,-0.3232421875,-0.25341796875,-154.93902439024393,53.78048780487806,-61.707317073170735,135,4
132,0.84375,-0.37646484375,-0.18212890625,-150.3048780487805,49.69512195121952,-65.0,135,4
133,0.83837890625,-0.3671875,-0.19384765625,-143.84146341463415,45.97560975609756,-67.37804878048782,135,4
134,0.84765625,-0.32763671875,-0.19287109375,-139.57317073170734,43.90243902439025,-68.96341463414635,135,4
135,0.84423828125,-0.298828125,-0.19287109375,-136.28048780487805,42.6829268292683,-70.79268292682927,135,4
136,0.8896484375,-0.23876953125,-0.23388671875,-135.609756097561,42.5609756097561,-73.04878048780489,135,4
137,0.90478515625,-0.1806640625,-0.3017578125,-137.25609756097563,41.58536585365854,-74.87804878048782,135,4
138,0.9150390625,-0.1669921875,-0.32177734375,-139.51219512195124,42.804878048780495,-76.95121951219512,135,4
139,0.939453125,-0.15673828125,-0.3330078125,-142.9268292682927,45.426829268292686,-62.560975609756106,135,4
140,0.9765625,-0.13720703125,-0.36083984375,-145.4268292682927,46.58536585365854,-80.67073170731707,135,4
141,0.998046875,-0.11181640625,-0.37060546875,-147.8658536585366,48.35365853658537,-84.57317073170732,135,4
142,1.00732421875,-0.09765625,-0.3544921875,-151.34146341463415,50.60975609756098,-87.98780487804879,135,4
143,1.12353515625,-0.13427734375,-0.333984375,-154.26829268292684,53.29268292682927,-89.20731707317074,135,4
144,0.97900390625,-0.1435546875,-0.3056640625,-156.34146341463415,55.0609756097561,-90.91463414634147,135,4
145,0.994140625,-0.24462890625,-0.32373046875,-156.34146341463415,54.024390243902445,-93.17073170731707,135,4
146,0.9990234375,-0.10400390625,-0.32666015625,-154.81707317073173,52.07317073170732,-94.81707317073172,135,4
147,0.9951171875,-0.1171875,-0.29345703125,-152.25609756097563,52.31707317073171,-96.64634146341464,135,4
148,1.03515625,-0.09912109375,-0.30419921875,-150.4878048780488,52.25609756097561,-98.71951219512196,135,4
149,1.03564453125,-0.08642578125,-0.283203125,-149.39024390243904,51.82926829268293,-101.64634146341464,135,4
150,1.0498046875,-0.05078125,-0.330078125,-147.9878048780488,48.23170731707317,-106.21951219512196,135,4
151,1.08251953125,0.02587890625,-0.341796875,-147.9268292682927,46.707317073170735,-111.03658536585367,135,4
152,1.08642578125,-0.0087890625,-0.32666015625,-150.4878048780488,47.6219512195122,-114.39024390243904,135,4
153,1.09228515625,-0.02734375,-0.30322265625,-151.46341463414635,48.84146341463415,-118.35365853658537,135,4
154,1.0009765625,0.005859375,-0.26171875,-150.1829268292683,48.78048780487805,-120.85365853658537,135,4
155,1.12060546875,0.00537109375,-0.2578125,-149.32926829268294,47.743902439024396,-123.71951219512196,135,4
156,1.10498046875,0.00439453125,-0.26611328125,-148.2317073170732,47.987804878048784,-125.48780487804879,135,4
157,1.10595703125,0.0322265625,-0.23583984375,-145.1829268292683,47.987804878048784,-127.50000000000001,135,4
158,1.1240234375,0.0537109375,-0.23291015625,-144.02439024390245,48.59756097560976,-128.59756097560978,135,4
159,1.11376953125,0.0615234375,-0.24755859375,-143.41463414634148,49.87804878048781,-130.91463414634148,135,4
160,1.13427734375,0.09716796875,-0.27001953125,-140.6707317073171,47.804878048780495,-133.47560975609758,135,4
161,1.17919921875,0.15283203125,-0.298828125,-138.65853658536585,45.60975609756098,-136.89024390243904,135,4
162,1.21484375,0.19970703125,-0.31103515625,-138.35365853658539,43.963414634146346,-141.70731707317074,135,4
163,1.22119140625,0.19873046875,-0.33984375,-140.0,43.35365853658537,-145.1219512195122,135,4
164,1.236328125,0.16943359375,-0.3046875,-140.609756097561,44.63414634146342,-149.69512195121953,135,4
165,1.267578125,0.1767578125,-0.240234375,-139.14634146341464,45.79268292682927,-152.6219512195122,135,4
166,1.27001953125,0.19921875,-0.2109375,-138.35365853658539,31.280487804878053,-155.1219512195122,135,4
167,1.265625,0.2021484375,-0.193359375,-137.5609756097561,46.646341463414636,-157.9878048780488,135,4
168,1.2783203125,0.24365234375,-0.17822265625,-134.45121951219514,46.58536585365854,-160.5487804878049,135,4
169,1.3095703125,0.28662109375,-0.1357421875,-133.109756097561,47.987804878048784,-163.71951219512198,135,4
170,1.31689453125,0.31787109375,-0.1083984375,-134.08536585365854,49.51219512195122,-167.43902439024393,135,4
171,1.32373046875,0.3212890625,-0.15625,-135.6707317073171,49.207317073170735,-171.21951219512198,135,4
172,1.314453125,0.32958984375,-0.16162109375,-133.1707317073171,47.5609756097561,-176.52439024390245,135,4
173,1.32666015625,0.37353515625,-0.1640625,-130.0609756097561,45.73170731707317,-181.28048780487808,135,4
174,1.333984375,0.498046875,-0.1572265625,-129.26829268292684,46.09756097560976,-187.07317073170734,135,4
175,1.3369140625,0.39306640625,-0.13525390625,-128.78048780487805,47.987804878048784,-192.50000000000003,135,4
176,1.34033203125,0.4033203125,-0.0546875,-126.82926829268294,49.268292682926834,-196.21951219512198,135,4
177,1.341796875,0.40625,0.0048828125,-123.53658536585367,49.32926829268293,-198.109756097561,135,4
178,1.3310546875,0.431640625,0.03759765625,-118.84146341463416,42.86585365853659,-201.03658536585368,135,4
179,1.1796875,0.60888671875,0.16650390625,-117.07317073170732,47.926829268292686,-203.2317073170732,135,4
180,1.3525390625,0.51513671875,0.04345703125,-114.08536585365854,48.47560975609756,-208.78048780487808,135,4
181,1.34814453125,0.58056640625,0.029296875,-115.00000000000001,50.85365853658537,-216.64634146341464,135,4
182,1.36572265625,0.640625,-0.01904296875,-119.87804878048782,53.29268292682927,-223.90243902439028,135,4
183,1.33251953125,0.640625,0.01318359375,-125.48780487804879,55.60975609756098,-229.20731707317074,135,4
184,1.2822265625,0.60888671875,0.01953125,-126.28048780487806,55.67073170731708,-232.62195121951223,135,4
185,1.2138671875,0.61328125,0.1240234375,-120.85365853658537,53.65853658536586,-235.18292682926833,135,4
186,1.21484375,0.6064453125,0.15869140625,-111.21951219512196,51.524390243902445,-235.7317073170732,135,4
187,1.2275390625,0.6162109375,0.2177734375,-101.15853658536587,50.0609756097561,-236.76829268292684,135,4
188,1.283203125,0.64794921875,0.20947265625,-94.57317073170732,51.09756097560976,-238.84146341463418,135,4
189,1.3056640625,0.64404296875,0.25732421875,-90.67073170731707,54.39024390243903,-242.37804878048783,135,4
190,1.25341796875,0.68505859375,0.3154296875,-89.69512195121952,58.90243902439025,-245.97560975609758,135,4
191,1.4150390625,0.66650390625,0.34130859375,-91.52439024390245,63.53658536585366,-249.32926829268294,135,4
192,1.40966796875,0.6162109375,0.30322265625,-91.52439024390245,66.15853658536587,-253.109756097561,135,4
193,1.36669921875,0.57763671875,0.28125,-87.50000000000001,66.76829268292684,-257.7439024390244,135,4
194,1.35693359375,0.546875,0.3056640625,-83.59756097560977,67.92682926829269,-260.609756097561,135,4
195,1.29736328125,0.47265625,0.30810546875,-80.67073170731707,69.51219512195122,-263.4146341463415,135,4
196,1.23681640625,0.41650390625,0.314453125,-77.01219512195122,70.79268292682927,-265.2439024390244,135,4
197,1.14501953125,0.375,0.33740234375,-72.19512195121952,71.46341463414635,-266.2804878048781,135,4
198,1.0537109375,0.3193359375,0.37255859375,-66.58536585365854,71.89024390243902,-265.1219512195122,135,4
199,0.9677734375,0.26708984375,0.39306640625,-59.87804878048781,72.13414634146342,-263.8414634146342,135,4
200,0.89208984375,0.24365234375,0.4072265625,-53.59756097560976,72.01219512195122,-261.76829268292687,135,4
201,0.85009765625,0.228515625,0.412109375,-49.57317073170732,72.98780487804879,-259.8780487804878,135,4
202,0.802734375,0.1982421875,0.38427734375,-47.37804878048781,73.29268292682927,-258.109756097561,135,4
203,0.8623046875,0.15234375,0.4990234375,-44.63414634146342,73.41463414634147,-255.18292682926833,135,4
204,0.732421875,0.07275390625,0.34912109375,-40.60975609756098,74.69512195121952,-251.34146341463418,135,4
205,0.67431640625,0.0205078125,0.31640625,-36.28048780487805,75.60975609756098,-248.47560975609758,135,4
206,0.6220703125,-0.00732421875,0.31884765625,-31.951219512195124,73.10975609756098,-244.81707317073173,135,4
207,0.57958984375,-0.0341796875,0.3388671875,-26.09756097560976,70.48780487804879,-240.6707317073171,135,4
208,0.525390625,-0.115234375,0.34765625,-22.378048780487806,69.39024390243902,-236.15853658536588,135,4
209,0.4736328125,-0.17431640625,0.36474609375,-17.31707317073171,66.21951219512195,-230.5487804878049,135,4
210,0.4169921875,-0.138671875,0.32763671875,-15.121951219512196,64.39024390243902,-222.01219512195124,135,4
211,0.3125,-0.40673828125,0.26220703125,-9.085365853658537,60.85365853658537,-213.53658536585368,135,4
212,0.25048828125,-0.4453125,0.28271484375,-5.487804878048781,50.243902439024396,-204.51219512195124,135,4
213,0.15771484375,-0.59619140625,0.22900390625,1.4634146341463417,51.82926829268293,-193.59756097560978,135,4
214,0.1494140625,-0.69921875,0.1826171875,5.670731707317073,50.487804878048784,-181.58536585365854,135,4
215,-0.048828125,-0.70361328125,0.20166015625,7.8048780487804885,31.82926829268293,-166.09756097560978,135,4
216,-0.17041015625,-0.76513671875,0.25341796875,15.121951219512196,52.25609756097561,-151.95121951219514,135,4
217,-0.248046875,-0.75927734375,0.19677734375,-7.743902439024391,57.743902439024396,-136.09756097560978,135,4
218,-0.25927734375,-0.962890625,0.3173828125,-11.707317073170733,59.39024390243903,-117.8658536585366,135,4
219,-0.5341796875,-1.05859375,0.41357421875,-11.036585365853659,55.426829268292686,-100.97560975609757,135,4
220,-0.62158203125,-1.00390625,0.48828125,-10.0,59.69512195121952,-83.65853658536587,135,4
221,-0.3779296875,-1.21337890625,0.53955078125,-8.170731707317074,61.03658536585366,-67.31707317073172,135,4
222,-0.7138671875,-1.27587890625,0.556640625,-9.51219512195122,62.19512195121952,-48.53658536585366,135,4
223,-0.787109375,-1.3291015625,0.53271484375,-5.609756097560976,52.07317073170732,-46.58536585365854,135,4
224,-0.77587890625,-1.3837890625,0.59912109375,0.12195121951219513,51.21951219512196,-11.951219512195124,135,4
225,-0.7626953125,-1.45556640625,0.55224609375,7.317073170731708,53.47560975609757,9.146341463414634,135,4
226,-0.84375,-1.4814453125,0.61328125,14.329268292682928,59.69512195121952,29.26829268292683,135,4
227,-0.84423828125,-1.53955078125,0.44921875,21.76829268292683,45.0609756097561,48.65853658536586,135,4
228,-0.8203125,-1.5283203125,0.453125,27.865853658536587,44.81707317073171,67.6829268292683,135,4
229,-0.8720703125,-1.55712890625,0.4228515625,32.743902439024396,46.09756097560976,89.45121951219512,135,4
230,-0.67919921875,-1.58935546875,0.4013671875,39.390243902439025,46.58536585365854,94.69512195121952,135,4
231,-0.58837890625,-1.50927734375,0.3291015625,49.146341463414636,44.93902439024391,131.09756097560978,135,4
232,-0.50732421875,-1.67822265625,0.26953125,58.35365853658537,42.13414634146342,152.31707317073173,135,4
233,-0.37890625,-1.69580078125,0.29296875,65.1219512195122,41.03658536585366,174.20731707317074,135,4
234,-0.25732421875,-1.7431640625,0.25390625,73.96341463414635,39.69512195121951,194.39024390243904,135,4
235,-0.1015625,-1.7919921875,0.34814453125,81.09756097560977,37.6829268292683,215.18292682926833,135,4
236,0.0810546875,-1.853515625,0.2509765625,86.28048780487805,35.36585365853659,236.03658536585368,135,4
237,0.251953125,-1.89990234375,0.21337890625,91.34146341463415,36.03658536585366,254.63414634146343,135,4
238,0.46484375,-1.9404296875,0.21826171875,94.93902439024392,38.78048780487805,275.4878048780488,135,4
239,0.5078125,-2.0634765625,0.15185546875,97.8658536585366,40.1219512195122,298.6585365853659,135,4
240,0.62646484375,-2.12744140625,0.1357421875,104.14634146341464,43.963414634146346,325.1219512195122,135,4
241,0.80224609375,-2.46044921875,0.12939453125,112.25609756097562,43.78048780487805,354.51219512195127,135,4
242,0.9248046875,-2.529296875,0.03564453125,122.7439024390244,40.60975609756098,385.8536585365854,135,4
243,1.13671875,-2.81689453125,-0.01416015625,130.3048780487805,37.25609756097561,419.69512195121956,135,4
244,1.26953125,-3.07958984375,-0.44189453125,130.1219512195122,33.170731707317074,459.75609756097566,135,4
245,1.7314453125,-3.3642578125,-0.65869140625,125.79268292682927,23.231707317073173,503.9024390243903,135,4
246,2.01708984375,-3.71240234375,-0.84765625,156.58536585365854,13.902439024390246,533.3536585365854,135,4
247,2.7080078125,-4.06640625,-0.9248046875,225.3658536585366,0.6097560975609757,588.2317073170732,135,4
248,3.33544921875,-4.26806640625,-1.18994140625,261.6463414634147,-5.426829268292684,621.7073170731708,135,4
249,4.0126953125,-4.6982421875,-1.25537109375,284.69512195121956,8.658536585365855,624.3902439024391,135,4
250,4.54248046875,-5.0234375,-0.966796875,310.3048780487805,30.487804878048784,668.4146341463415,135,4
251,5.28955078125,-5.4580078125,-1.240234375,309.51219512195127,44.57317073170732,707.9878048780488,135,4
252,6.09033203125,-5.58984375,-1.8505859375,321.95121951219517,57.743902439024396,744.0243902439025,135,4
253,6.64306640625,-5.73046875,-2.3798828125,367.7439024390244,69.08536585365854,782.1341463414635,135,4
254,7.76953125,-5.544921875,-2.85791015625,431.76829268292687,98.23170731707317,831.2804878048781,135,4
255,9.23388671875,-5.189453125,-3.13720703125,465.18292682926835,89.57317073170732,867.6219512195123,135,4
256,10.00732421875,-4.3974609375,-3.60986328125,469.57317073170736,64.57317073170732,901.5243902439025,135,4
257,10.38671875,-3.76123046875,-4.2763671875,509.20731707317077,42.6219512195122,933.8414634146342,135,4
258,11.29736328125,-2.99560546875,-5.4716796875,551.829268292683,0.6707317073170732,937.8048780487806,135,4
259,11.64697265625,-2.48486328125,-6.55419921875,581.219512195122,-50.97560975609756,916.219512195122,135,4
260,11.306640625,-2.27197265625,-6.50439453125,698.048780487805,-201.46341463414635,886.5243902439025,135,4
261,10.154296875,-2.76220703125,-6.64208984375,828.4146341463415,-330.6707317073171,817.1951219512196,135,4
262,9.01318359375,-3.40625,-7.9541015625,1037.5,-535.8536585365854,718.5975609756098,135,4
263,8.31396484375,-3.32763671875,-9.85595703125,1294.5121951219514,-758.1707317073171,555.3658536585366,135,4
264,8.4453125,-1.74462890625,-5.638671875,1601.09756097561,-1075.548780487805,351.5853658536586,135,4
265,12.49951171875,-5.46826171875,-3.55615234375,1020.8536585365855,-89.69512195121952,-296.5243902439025,135,4
266,2.4931640625,6.8076171875,-6.04931640625,882.3170731707318,-33.47560975609756,-98.10975609756099,135,4
267,10.9462890625,2.28857421875,-4.6962890625,1481.829268292683,-376.5853658536586,-212.7439024390244,135,4
268,9.560546875,3.72705078125,-0.78662109375,1128.59756097561,-269.39024390243907,-287.8048780487805,135,4
269,2.29150390625,1.12744140625,0.33984375,1018.048780487805,-96.09756097560977,-283.8414634146342,135,4
270,3.64208984375,0.81640625,-0.4072265625,924.5121951219513,-2.378048780487805,-513.1707317073171,135,4
271,5.49755859375,-0.91259765625,-1.6103515625,882.5609756097562,-121.89024390243904,-471.219512195122,135,4
272,5.564453125,-2.22705078125,-1.5830078125,806.4024390243903,-134.63414634146343,-612.1341463414635,135,4
273,5.189453125,-0.6416015625,-1.69140625,657.8048780487806,-62.865853658536594,-689.0853658536586,135,4
274,3.77880859375,-4.1923828125,-2.1884765625,519.0853658536586,-70.0609756097561,-740.0000000000001,135,4
275,2.69580078125,-3.1591796875,-2.37548828125,377.68292682926835,-10.792682926829269,-721.0365853658537,135,4
276,1.5556640625,-3.404296875,-1.8994140625,301.0365853658537,31.89024390243903,-724.6341463414635,135,4
277,1.01708984375,-2.8154296875,-1.39990234375,250.3658536585366,124.57317073170732,-737.6829268292684,135,4
278,1.251953125,-1.9375,-0.9541015625,204.08536585365854,196.09756097560978,-723.4756097560976,135,4
279,1.28515625,-1.65869140625,-1.09326171875,189.02439024390245,220.6707317073171,-721.5243902439025,135,4
280,1.63623046875,-0.869140625,-1.19775390625,163.1707317073171,276.5853658536586,-711.0365853658537,135,4
281,2.17529296875,-0.4111328125,-1.22119140625,133.53658536585368,318.4756097560976,-689.6951219512196,135,4
282,2.4814453125,-0.501953125,-1.02197265625,97.7439024390244,328.3536585365854,-673.3536585365854,135,4
283,2.74560546875,-1.02587890625,-0.916015625,57.560975609756106,360.4878048780488,-649.4512195121952,135,4
284,2.51416015625,-1.29931640625,-1.2138671875,-0.48780487804878053,360.9756097560976,-604.5731707317074,135,4
285,2.43505859375,-1.583984375,-1.591796875,-76.58536585365854,349.63414634146346,-576.4024390243903,135,4
286,2.39306640625,-1.4892578125,-1.62158203125,-112.19512195121952,358.9024390243903,-522.0121951219512,135,4
287,2.08447265625,-1.3056640625,-1.11181640625,-158.41463414634148,347.25609756097566,-486.76829268292687,135,4
288,1.5400390625,-1.578125,-0.5751953125,-213.41463414634148,357.9268292682927,-463.7804878048781,135,4
289,1.421875,-1.5302734375,-0.41064453125,-235.5487804878049,366.89024390243907,-444.0853658536586,135,4
290,1.4375,-1.2998046875,-0.44384765625,-233.2317073170732,366.70731707317077,-435.18292682926835,135,4
291,1.44091796875,-1.07373046875,-0.51611328125,-232.74390243902442,362.37804878048786,-392.37804878048786,135,4
292,1.49853515625,-0.94970703125,-0.96240234375,-203.109756097561,351.6463414634147,-369.39024390243907,135,4
293,1.5283203125,-0.78466796875,-1.33544921875,-204.93902439024393,346.5853658536586,-349.87804878048786,135,4
294,1.61474609375,-0.61572265625,-1.46435546875,-203.96341463414635,347.19512195121956,-343.4146341463415,135,4
295,1.349609375,-0.74560546875,-1.560546875,-232.74390243902442,349.63414634146346,-305.7926829268293,135,4
296,1.041015625,-0.8330078125,-1.451171875,-232.50000000000003,351.6463414634147,-286.89024390243907,135,4
297,0.8271484375,-0.82421875,-1.32666015625,-232.56097560975613,338.719512195122,-272.3780487804878,135,4
298,0.6025390625,-0.66357421875,-1.625,-228.1707317073171,318.4146341463415,-256.2804878048781,135,4
299,0.5205078125,-0.20703125,-1.32275390625,-223.47560975609758,307.9878048780488,-240.4878048780488,135,4
300,0.28466796875,-0.0400390625,-1.1650390625,-219.45121951219514,305.7926829268293,-220.6707317073171,135,4
301,0.22509765625,0.078125,-1.1123046875,-247.19512195121953,316.0975609756098,-206.58536585365854,135,4
302,-0.25537109375,-0.0888671875,-0.77587890625,-239.32926829268294,303.4146341463415,-217.9268292682927,135,4
303,0.09521484375,0.2490234375,-0.94970703125,-230.7317073170732,290.1219512195122,-193.47560975609758,135,4
304,-0.3037109375,-0.3740234375,-0.935546875,-229.14634146341464,266.2804878048781,-183.78048780487808,135,4
305,-0.1416015625,-0.009765625,-0.8466796875,-208.35365853658539,240.06097560975613,-186.34146341463415,135,4
306,-0.35986328125,0.11181640625,-0.8505859375,-206.34146341463418,221.15853658536588,-158.0487804878049,135,4
307,-0.611328125,-0.0517578125,-0.68896484375,-210.91463414634148,210.5487804878049,-152.01219512195124,135,4
308,-0.49609375,-0.0380859375,-0.70947265625,-221.82926829268294,203.0487804878049,-148.1707317073171,135,4
309,-0.47509765625,0.171875,-0.69482421875,-219.14634146341464,193.71951219512198,-135.3658536585366,135,4
310,-0.5087890625,0.10595703125,-0.71826171875,-211.15853658536588,185.85365853658539,-118.53658536585367,135,4
311,-0.84716796875,-0.07373046875,-0.7353515625,-196.82926829268294,171.82926829268294,-103.41463414634147,135,4
312,-1.03955078125,-0.2353515625,-0.7900390625,-173.1707317073171,171.58536585365854,-87.07317073170732,135,4
313,-1.06982421875,-0.2978515625,-0.71728515625,-151.15853658536588,143.78048780487805,-76.70731707317074,135,4
314,-1.103515625,-0.3310546875,-0.41845703125,-142.13414634146343,138.47560975609758,-69.02439024390245,135,4
315,-0.9833984375,-0.208984375,-0.353515625,-137.37804878048783,137.5,-64.57317073170732,135,4
316,-0.83349609375,-0.1103515625,-0.35498046875,-134.20731707317074,132.31707317073173,-60.60975609756098,135,4
317,-0.76318359375,0.1328125,-0.4326171875,-127.56097560975611,126.76829268292684,-58.17073170731708,135,4
318,-0.759765625,0.1376953125,-0.4619140625,-122.50000000000001,119.87804878048782,-56.707317073170735,135,4
319,-0.75439453125,0.11865234375,-0.51123046875,-116.15853658536587,113.59756097560977,-50.97560975609756,135,4
320,-1.02099609375,-0.0234375,-0.55517578125,-108.78048780487806,107.8658536585366,-46.463414634146346,135,4
321,-1.1572265625,-0.1484375,-0.7001953125,-107.50000000000001,100.3658536585366,-44.81707317073171,135,4
322,-1.13134765625,-0.18359375,-0.671875,-93.84146341463415,90.42682926829269,-38.59756097560976,135,4
323,-1.150390625,-0.20166015625,-0.48095703125,-83.35365853658537,81.21951219512196,-29.02439024390244,135,4
324,-1.216796875,-0.1953125,-0.4287109375,-80.60975609756099,76.28048780487805,-22.134146341463417,135,4
325,-1.2841796875,-0.138671875,-0.45458984375,-82.5609756097561,69.45121951219512,-17.073170731707318,135,4
326,-1.2978515625,-0.107421875,-0.5693359375,-80.1829268292683,59.75609756097562,-9.51219512195122,135,4
327,-1.3349609375,-0.1533203125,-0.58740234375,-72.01219512195122,62.13414634146342,-2.1341463414634148,135,4
328,-1.3427734375,-0.2275390625,-0.55078125,-63.17073170731708,38.35365853658537,4.634146341463415,135,4
329,-1.3662109375,-0.23876953125,-0.5078125,-56.951219512195124,31.402439024390247,10.609756097560977,135,4
330,-1.31689453125,-0.22900390625,-0.5341796875,-49.63414634146342,25.426829268292686,15.365853658536587,135,4
331,-1.22216796875,-0.16259765625,-0.5341796875,-40.670731707317074,15.79268292682927,19.878048780487806,135,4
332,-1.1923828125,-0.12109375,-0.525390625,-34.08536585365854,7.8048780487804885,21.82926829268293,135,4
333,-1.15380859375,-0.05078125,-0.4775390625,-30.365853658536587,15.30487804878049,24.085365853658537,135,4
334,-1.14599609375,-0.12353515625,-0.4521484375,-25.426829268292686,-8.78048780487805,25.670731707317074,135,4
335,-1.1689453125,0.02734375,-0.40966796875,-21.463414634146343,-0.30487804878048785,26.646341463414636,135,4
336,-1.1650390625,0.01806640625,-0.380859375,-19.26829268292683,-20.365853658536587,27.80487804878049,135,4
337,-1.171875,0.0087890625,-0.345703125,-16.76829268292683,-25.48780487804878,28.414634146341466,135,4
338,-1.19580078125,0.005859375,-0.3408203125,-14.390243902439027,-16.158536585365855,28.59756097560976,135,4
339,-1.20751953125,-0.00341796875,-0.34765625,-10.365853658536587,-37.80487804878049,29.207317073170735,135,4
340,-1.21435546875,-0.01123046875,-0.32080078125,-4.024390243902439,-43.65853658536586,30.54878048780488,135,4
341,-1.19287109375,0.02294921875,-0.2919921875,2.5609756097560976,-49.207317073170735,32.5,135,4
342,-1.18798828125,0.056640625,-0.27587890625,7.621951219512196,-54.39024390243903,34.32926829268293,135,4
343,-1.1875,0.0888671875,-0.25,12.195121951219512,-59.87804878048781,34.51219512195122,135,4
344,-1.169921875,0.1494140625,-0.26220703125,16.097560975609756,-65.1829268292683,34.451219512195124,135,4
345,-1.16650390625,0.1875,-0.25439453125,17.621951219512198,-69.39024390243902,34.63414634146342,135,4
346,-1.1787109375,0.1904296875,-0.2216796875,17.195121951219512,-72.5,34.51219512195122,135,4
347,-1.19091796875,0.17822265625,-0.19384765625,17.621951219512198,-76.34146341463415,35.0609756097561,135,4
348,-1.2216796875,0.15771484375,-0.16064453125,18.53658536585366,-79.45121951219512,35.30487804878049,135,4
349,-1.24365234375,0.158203125,-0.13916015625,20.30487804878049,-84.20731707317074,35.85365853658537,135,4
350,-1.24072265625,0.14697265625,-0.12548828125,22.926829268292686,-88.78048780487805,36.09756097560976,135,4
351,-1.21435546875,0.14453125,-0.080078125,26.76829268292683,-94.87804878048782,36.03658536585366,135,4
352,-1.20263671875,0.15283203125,-0.0517578125,15.609756097560977,-98.17073170731709,35.54878048780488,135,4
353,-1.1767578125,0.181640625,-0.01318359375,33.90243902439025,-101.03658536585367,35.1829268292683,135,4
354,-1.1484375,0.2021484375,0.0068359375,35.1829268292683,-103.59756097560977,34.63414634146342,135,4
355,-1.1298828125,0.2275390625,0.0283203125,35.426829268292686,-106.15853658536587,34.32926829268293,135,4
356,-1.11572265625,0.2314453125,0.0380859375,36.15853658536586,-110.00000000000001,33.90243902439025,135,4
357,-1.1044921875,0.236328125,0.04248046875,36.34146341463415,-113.41463414634147,33.59756097560976,135,4
358,-1.0771484375,0.25244140625,0.03564453125,36.03658536585366,-117.62195121951221,32.43902439024391,135,4
359,-1.068359375,0.2548828125,0.0224609375,34.451219512195124,-120.67073170731709,30.792682926829272,135,4
360,-1.0283203125,0.259765625,0.03759765625,32.80487804878049,-125.67073170731709,28.963414634146343,135,4
361,-1.01416015625,0.255859375,0.08056640625,31.82926829268293,-130.3658536585366,28.414634146341466,135,4
362,-1.1181640625,0.21630859375,0.17822265625,31.463414634146343,-136.21951219512195,29.146341463414636,135,4
363,-1.00146484375,0.171875,0.2333984375,33.41463414634146,-140.1829268292683,29.634146341463417,135,4
364,-1.02099609375,0.14599609375,0.27734375,34.024390243902445,-141.09756097560978,28.902439024390247,135,4
365,-0.99853515625,0.16259765625,0.2626953125,34.75609756097561,-141.82926829268294,28.780487804878053,135,4
366,-0.96044921875,0.19091796875,0.26513671875,36.34146341463415,-142.8658536585366,29.08536585365854,135,4
367,-0.93359375,0.21484375,0.26611328125,38.170731707317074,-145.609756097561,29.939024390243905,135,4
368,-0.8974609375,0.2451171875,0.27587890625,41.15853658536586,-152.8048780487805,30.792682926829272,135,4
369,-0.8623046875,0.2607421875,0.244140625,43.84146341463415,-157.43902439024393,30.975609756097565,135,4
370,-0.85693359375,0.25634765625,0.26953125,44.390243902439025,-160.7317073170732,30.426829268292686,135,4
371,-0.8212890625,0.25244140625,0.29833984375,41.15853658536586,-161.46341463414635,29.634146341463417,135,4
372,-0.7900390625,0.25048828125,0.36962890625,35.91463414634147,-160.7926829268293,29.32926829268293,135,4
373,-0.77734375,0.23681640625,0.439453125,33.71951219512196,-161.46341463414635,29.573170731707318,135,4
374,-0.77392578125,0.232421875,0.47607421875,34.451219512195124,-162.5,29.87804878048781,135,4
375,-0.75244140625,0.24755859375,0.49658203125,36.82926829268293,-166.28048780487805,30.670731707317074,135,4
376,-0.72216796875,0.27099609375,0.52294921875,39.63414634146342,-170.1219512195122,30.426829268292686,135,4
377,-0.68896484375,0.26416015625,0.53857421875,36.951219512195124,-171.58536585365854,29.87804878048781,135,4
378,-0.64892578125,0.306640625,0.53125,35.1219512195122,-174.32926829268294,29.32926829268293,135,4
379,-0.7490234375,0.31884765625,0.55078125,34.75609756097561,-177.6829268292683,28.59756097560976,135,4
380,-0.5947265625,0.3076171875,0.55126953125,35.426829268292686,-182.7439024390244,28.04878048780488,135,4
381,-0.5732421875,0.28466796875,0.56787109375,38.41463414634147,-187.7439024390244,27.500000000000004,135,4
382,-0.56689453125,0.12548828125,0.60546875,38.41463414634147,-191.82926829268294,26.09756097560976,135,4
383,-0.50390625,0.27392578125,0.63330078125,38.10975609756098,-193.2317073170732,24.695121951219516,135,4
384,-0.47216796875,0.29296875,0.640625,30.121951219512198,-191.82926829268294,23.719512195121954,135,4
385,-0.43017578125,0.3046875,0.66015625,25.121951219512198,-193.65853658536588,23.902439024390247,135,4
386,-0.40087890625,0.28759765625,0.6552734375,24.390243902439025,-200.91463414634148,24.695121951219516,135,4
387,-0.40380859375,0.37353515625,0.64404296875,26.34146341463415,-209.69512195121953,24.939024390243905,135,4
388,-0.38037109375,0.23974609375,0.67626953125,30.792682926829272,-220.4268292682927,25.853658536585368,135,4
389,-0.34228515625,0.23291015625,0.67724609375,33.78048780487805,-230.97560975609758,27.80487804878049,135,4
390,-0.2822265625,0.23046875,0.7119140625,32.5,-237.31707317073173,31.09756097560976,135,4
391,-0.26513671875,0.20947265625,0.71923828125,25.182926829268293,-236.76829268292684,33.109756097560975,135,4
392,-0.21044921875,0.20556640625,0.72802734375,16.82926829268293,-234.02439024390245,35.609756097560975,135,4
393,-0.16748046875,0.2265625,0.7685546875,13.29268292682927,-233.2926829268293,37.987804878048784,135,4
394,-0.13037109375,0.23291015625,0.6318359375,14.02439024390244,-231.52439024390245,39.146341463414636,135,4
395,-0.05419921875,0.22021484375,0.72119140625,15.731707317073171,-230.4878048780488,39.146341463414636,135,4
396,-0.021484375,0.23291015625,0.70263671875,14.329268292682928,-227.31707317073173,37.926829268292686,135,4
397,0.01318359375,0.234375,0.67333984375,9.451219512195122,-221.76829268292684,35.97560975609756,135,4
398,0.07958984375,0.29443359375,0.669921875,7.25609756097561,-215.7317073170732,34.57317073170732,135,4
399,0.001953125,0.322265625,0.701171875,6.707317073170732,-209.75609756097563,33.78048780487805,135,4
400,0.14208984375,0.3212890625,0.71142578125,7.378048780487806,-204.02439024390245,32.6219512195122,135,4
401,0.1630859375,0.31884765625,0.71484375,5.0,-196.15853658536588,29.32926829268293,135,4
402,0.16259765625,0.32568359375,0.626953125,4.451219512195122,-189.26829268292684,26.158536585365855,135,4
403,0.19091796875,0.3525390625,0.77001953125,5.670731707317073,-181.82926829268294,21.76829268292683,135,4
404,0.20458984375,0.38330078125,0.80419921875,10.426829268292684,-176.95121951219514,17.804878048780488,135,4
405,0.1865234375,0.38623046875,0.794921875,16.70731707317073,-169.39024390243904,13.841463414634148,135,4
406,0.17529296875,0.4052734375,0.7890625,22.073170731707318,-161.95121951219514,10.24390243902439,135,4
407,0.154296875,0.400390625,0.78173828125,29.81707317073171,-155.2439024390244,7.439024390243903,135,4
408,0.12353515625,0.404296875,0.74365234375,38.65853658536586,-149.32926829268294,4.451219512195122,135,4
409,0.0830078125,0.37939453125,0.69384765625,43.35365853658537,-141.89024390243904,1.8902439024390245,135,4
410,0.07080078125,0.40283203125,0.689453125,48.170731707317074,-133.90243902439025,-0.6707317073170732,135,4
411,0.06884765625,0.41357421875,0.69140625,52.37804878048781,-125.2439024390244,-2.6219512195121952,135,4
412,0.06201171875,0.3984375,0.69580078125,56.707317073170735,-117.43902439024392,-4.695121951219512,135,4
413,0.06396484375,0.42822265625,0.703125,61.89024390243903,-110.00000000000001,-6.402439024390245,135,4
414,0.087890625,0.45166015625,0.66943359375,66.82926829268293,-102.37804878048782,-8.353658536585366,135,4
415,0.1103515625,0.4814453125,0.64453125,70.2439024390244,-94.57317073170732,-9.51219512195122,135,4
416,0.11328125,0.48291015625,0.64013671875,74.81707317073172,-88.65853658536587,-10.365853658536587,135,4
417,0.091796875,0.45556640625,0.6005859375,75.0609756097561,-82.19512195121952,-10.487804878048781,135,4
418,0.10791015625,0.4638671875,0.59814453125,74.69512195121952,-74.87804878048782,-9.939024390243903,135,4
419,0.0,0.4736328125,0.5810546875,73.96341463414635,-68.71951219512195,-9.634146341463415,135,4
420,0.15625,0.4697265625,0.578125,74.39024390243902,-63.65853658536586,-8.719512195121952,135,4
421,0.1572265625,0.43359375,0.603515625,74.69512195121952,-58.35365853658537,-7.378048780487806,135,4
422,0.16064453125,0.39453125,0.60546875,75.79268292682927,-53.71951219512196,-6.7682926829268295,135,4
423,0.18505859375,0.38427734375,0.609375,79.26829268292684,-50.00000000000001,-6.219512195121951,135,4
424,0.20458984375,0.40185546875,0.60107421875,81.34146341463415,-45.54878048780488,-6.646341463414635,135,4
425,0.2333984375,0.44189453125,0.6025390625,81.95121951219512,-40.243902439024396,-5.975609756097562,135,4
426,0.25439453125,0.45263671875,0.55029296875,78.41463414634147,-34.75609756097561,-5.0,135,4
427,0.25,0.4912109375,0.515625,75.0609756097561,-33.23170731707317,-2.1951219512195124,135,4
428,0.2177734375,0.494140625,0.4697265625,72.25609756097562,-32.5609756097561,1.0365853658536586,135,4
429,0.21484375,0.49755859375,0.44970703125,69.87804878048782,-33.35365853658537,3.5975609756097566,135,4
430,0.24609375,0.52734375,0.48876953125,66.64634146341464,-34.024390243902445,7.01219512195122,135,4
431,0.24072265625,0.515625,0.51416015625,63.963414634146346,-35.30487804878049,11.463414634146343,135,4
432,0.228515625,0.62158203125,0.5234375,60.85365853658537,-35.36585365853659,14.207317073170733,135,4
433,0.2451171875,0.50048828125,0.537109375,59.024390243902445,-37.37804878048781,16.52439024390244,135,4
434,0.25634765625,0.5205078125,0.52197265625,59.024390243902445,-41.15853658536586,16.82926829268293,135,4
435,0.40673828125,0.4111328125,0.5146484375,57.31707317073171,-38.84146341463415,22.195121951219512,135,4
436,0.2841796875,0.5439453125,0.47265625,51.463414634146346,-40.426829268292686,26.76829268292683,135,4
437,0.29833984375,0.59521484375,0.50634765625,46.03658536585366,-41.34146341463415,29.207317073170735,135,4
438,0.31591796875,0.64697265625,0.54638671875,37.31707317073171,-43.10975609756098,33.29268292682927,135,4
439,0.3681640625,0.64501953125,0.5673828125,29.451219512195124,-42.37804878048781,34.146341463414636,135,4
440,0.38525390625,0.6875,0.60791015625,23.231707317073173,-40.79268292682927,34.390243902439025,135,4
441,0.41259765625,0.68701171875,0.6181640625,18.719512195121954,-40.1829268292683,35.0,135,4
442,0.41796875,0.68017578125,0.5859375,18.78048780487805,-39.81707317073171,34.51219512195122,135,4
443,0.43115234375,0.6611328125,0.52001953125,19.573170731707318,-42.6219512195122,33.04878048780488,135,4
444,0.4287109375,0.67822265625,0.51220703125,18.170731707317074,-48.35365853658537,32.37804878048781,135,4
445,0.4599609375,0.69287109375,0.5126953125,16.951219512195124,-54.63414634146342,32.43902439024391,135,4
446,0.470703125,0.7109375,0.5517578125,15.365853658536587,-61.09756097560976,32.25609756097561,135,4
447,0.462890625,0.68896484375,0.50341796875,13.414634146341465,-64.39024390243902,32.19512195121951,135,4
448,0.46240234375,0.6484375,0.73828125,11.585365853658537,-63.65853658536586,31.34146341463415,135,4
449,0.45751953125,0.63671875,0.8193359375,9.634146341463415,-59.268292682926834,28.53658536585366,135,4
450,0.48291015625,0.66748046875,0.841796875,11.52439024390244,-53.59756097560976,25.975609756097562,135,4
451,0.48583984375,0.677734375,0.80712890625,15.243902439024392,-48.23170731707317,24.390243902439025,135,4
452,0.49267578125,0.6806640625,0.701171875,22.682926829268293,-44.57317073170732,22.439024390243905,135,4
453,0.50244140625,0.69580078125,0.5908203125,27.134146341463417,-42.37804878048781,23.353658536585368,135,4
454,0.3759765625,0.77685546875,0.556640625,28.53658536585366,-42.13414634146342,18.414634146341466,135,4
455,0.50048828125,0.75537109375,0.546875,27.134146341463417,-40.85365853658537,18.29268292682927,135,4
456,0.47119140625,0.7548828125,0.56201171875,23.231707317073173,-39.146341463414636,18.10975609756098,135,4
457,0.43359375,0.76611328125,0.64208984375,22.378048780487806,-38.71951219512196,16.52439024390244,135,4
458,0.33935546875,0.732421875,0.7392578125,23.78048780487805,-37.86585365853659,15.365853658536587,135,4
459,0.314453125,0.7392578125,0.81494140625,26.52439024390244,-38.10975609756098,12.74390243902439,135,4
460,0.33154296875,0.77880859375,0.82470703125,28.902439024390247,-35.670731707317074,11.341463414634147,135,4
461,0.31640625,0.75732421875,0.82177734375,29.512195121951223,-33.41463414634146,11.158536585365855,135,4
462,0.33203125,0.7509765625,0.7841796875,22.5609756097561,-27.987804878048784,9.51219512195122,135,4
463,0.35791015625,0.79833984375,0.71337890625,16.951219512195124,-22.682926829268293,7.195121951219513,135,4
464,0.404296875,0.8359375,0.6884765625,12.01219512195122,-18.53658536585366,5.060975609756098,135,4
465,0.42724609375,0.82470703125,0.66845703125,8.841463414634147,-17.012195121951223,3.9024390243902443,135,4
466,0.40087890625,0.80224609375,0.67333984375,7.865853658536586,-15.731707317073171,2.804878048780488,135,4
467,0.3681640625,0.76708984375,0.66259765625,8.658536585365855,-15.487804878048783,1.7682926829268295,135,4
468,0.34814453125,0.720703125,0.62451171875,9.26829268292683,-15.975609756097562,0.12195121951219513,135,4
469,0.3486328125,0.7275390625,0.56494140625,10.182926829268293,-16.097560975609756,-2.9268292682926833,135,4
470,0.35791015625,0.75634765625,0.623046875,13.841463414634148,-17.621951219512198,-3.7195121951219514,135,4
471,0.29833984375,0.70703125,0.6044921875,18.10975609756098,-19.085365853658537,-4.085365853658537,135,4
472,0.28955078125,0.712890625,0.580078125,26.951219512195124,-20.182926829268293,-5.3048780487804885,135,4
473,0.26708984375,0.66455078125,0.55517578125,25.48780487804878,-14.26829268292683,-8.78048780487805,135,4
474,0.265625,0.6826171875,0.48095703125,18.414634146341466,-5.426829268292684,-9.878048780487806,135,4
475,0.4404296875,0.68017578125,0.5869140625,14.207317073170733,4.207317073170732,-10.548780487804878,135,4
476,0.416015625,0.708984375,0.591796875,12.01219512195122,14.085365853658537,-11.341463414634147,135,4
477,0.34912109375,0.6630859375,0.578125,14.085365853658537,21.890243902439025,-12.987804878048781,135,4
478,0.34375,0.6416015625,0.52099609375,20.731707317073173,26.09756097560976,-16.28048780487805,135,4
479,0.32861328125,0.611328125,0.50390625,28.414634146341466,28.170731707317074,-15.060975609756099,135,4
480,0.25048828125,0.54833984375,0.46142578125,33.47560975609756,29.02439024390244,-13.414634146341465,135,4
481,0.26513671875,0.5498046875,0.4111328125,40.79268292682927,28.780487804878053,-14.146341463414636,135,4
482,0.2587890625,0.57470703125,0.39404296875,48.29268292682927,27.500000000000004,-13.658536585365855,135,4
483,0.22900390625,0.564453125,0.33935546875,62.25609756097562,29.451219512195124,-12.621951219512196,135,4
484,0.23095703125,0.572265625,0.2763671875,36.951219512195124,35.1219512195122,-11.829268292682928,135,4
485,0.26025390625,0.62451171875,0.2744140625,25.670731707317074,38.963414634146346,-10.426829268292684,135,4
486,0.28173828125,0.64404296875,0.28857421875,16.28048780487805,40.60975609756098,-9.02439024390244,135,4
487,0.2607421875,0.74658203125,0.31298828125,11.52439024390244,39.81707317073171,-6.2804878048780495,135,4
488,0.22021484375,0.54296875,0.2861328125,12.317073170731708,46.09756097560976,-3.780487804878049,135,4
489,0.17236328125,0.462890625,0.197265625,18.29268292682927,20.670731707317074,-4.329268292682928,135,4
490,0.15283203125,0.44677734375,0.1416015625,27.682926829268297,10.609756097560977,-5.3048780487804885,135,4
491,0.19140625,0.5341796875,0.1611328125,31.58536585365854,3.2926829268292686,-3.8414634146341466,135,4
492,0.21044921875,0.580078125,0.1689453125,22.073170731707318,1.5853658536585367,-1.2804878048780488,135,4
493,0.21728515625,0.60791015625,0.20263671875,6.2804878048780495,3.231707317073171,2.0121951219512195,135,4
494,0.2109375,0.62939453125,0.25390625,-8.597560975609756,3.536585365853659,2.7439024390243905,135,4
495,0.21826171875,0.609375,0.3154296875,-16.82926829268293,2.5,4.146341463414634,135,4
496,0.189453125,0.58056640625,0.3720703125,-19.085365853658537,-0.5487804878048781,7.560975609756098,135,4
497,0.18212890625,0.5576171875,0.36328125,-12.74390243902439,-12.865853658536587,10.731707317073171,135,4
498,0.13330078125,0.474609375,0.294921875,-6.219512195121951,-23.231707317073173,10.0,135,4
499,0.13720703125,0.49951171875,0.279296875,1.2195121951219514,-15.853658536585368,10.609756097560977,135,4
