,Ax,Ay,Az,Gx,Gy,Gz,distance,shot_type
0,0.6708984375,-0.51513671875,-0.41796875,8.78048780487805,11.646341463414634,-14.146341463414636,115,2
1,0.671875,-0.52978515625,-0.39892578125,6.219512195121951,12.682926829268293,-13.658536585365855,115,2
2,0.67236328125,-0.57080078125,-0.3896484375,5.0,12.560975609756099,-12.560975609756099,115,2
3,0.6279296875,-0.61474609375,-0.36376953125,5.853658536585367,11.28048780487805,-11.890243902439025,115,2
4,0.63037109375,-0.62255859375,-0.34765625,7.439024390243903,10.792682926829269,-11.463414634146343,115,2
5,0.630859375,-0.6142578125,-0.33642578125,8.414634146341465,9.695121951219512,-10.731707317073171,115,2
6,0.62158203125,-0.74609375,-0.3515625,10.609756097560977,7.25609756097561,-9.451219512195122,115,2
7,0.62451171875,-0.640625,-0.37109375,13.536585365853659,4.573170731707317,-8.048780487804878,115,2
8,0.61669921875,-0.6669921875,-0.3671875,16.097560975609756,2.5,-6.951219512195123,115,2
9,0.6123046875,-0.6728515625,-0.36376953125,17.865853658536587,2.6219512195121952,-6.158536585365854,115,2
10,0.50341796875,-0.65478515625,-0.3740234375,18.353658536585368,3.963414634146342,-5.365853658536586,115,2
11,0.62890625,-0.63037109375,-0.2587890625,19.26829268292683,5.060975609756098,-3.7195121951219514,115,2
12,0.6103515625,-0.64013671875,-0.38037109375,19.512195121951223,5.0,-2.0121951219512195,115,2
13,0.60595703125,-0.63330078125,-0.3779296875,21.158536585365855,5.0,-1.2195121951219514,115,2
14,0.6015625,-0.634765625,-0.3681640625,22.743902439024392,5.182926829268293,-1.2804878048780488,115,2
15,0.61181640625,-0.60986328125,-0.36376953125,24.634146341463417,5.609756097560976,-1.8902439024390245,115,2
16,0.6259765625,-0.580078125,-0.37890625,26.34146341463415,5.3048780487804885,-2.804878048780488,115,2
17,0.6396484375,-0.5615234375,-0.39794921875,27.195121951219516,5.7926829268292686,-3.1707317073170733,115,2
18,0.6728515625,-0.52197265625,-0.39453125,28.04878048780488,5.548780487804878,-3.5975609756097566,115,2
19,0.6611328125,-0.52490234375,-0.38525390625,28.170731707317074,7.01219512195122,-3.353658536585366,115,2
20,0.6396484375,-0.51611328125,-0.35400390625,27.926829268292686,7.378048780487806,-2.1341463414634148,115,2
21,0.63427734375,-0.53857421875,-0.34521484375,26.09756097560976,6.951219512195123,-0.426829268292683,115,2
22,0.6015625,-0.55810546875,-0.35400390625,29.32926829268293,3.8414634146341466,1.7682926829268295,115,2
23,0.5478515625,-0.583984375,-0.353515625,36.15853658536586,-2.25609756097561,4.024390243902439,115,2
24,0.5458984375,-0.5830078125,-0.400390625,45.00000000000001,-10.548780487804878,4.390243902439025,115,2
25,0.56103515625,-0.560546875,-0.4482421875,51.03658536585366,-16.585365853658537,4.085365853658537,115,2
26,0.5634765625,-0.55126953125,-0.43896484375,52.07317073170732,-17.804878048780488,5.609756097560976,115,2
27,0.56787109375,-0.55908203125,-0.443359375,47.743902439024396,-16.097560975609756,6.402439024390245,115,2
28,0.54833984375,-0.55322265625,-0.46728515625,41.09756097560976,-13.597560975609758,7.439024390243903,115,2
29,0.55322265625,-0.5283203125,-0.45556640625,34.32926829268293,-8.963414634146343,6.52439024390244,115,2
30,0.58935546875,-0.46484375,-0.45556640625,26.34146341463415,-3.963414634146342,7.01219512195122,115,2
31,0.59521484375,-0.45556640625,-0.4248046875,16.28048780487805,-15.426829268292684,7.317073170731708,115,2
32,0.59423828125,-0.46630859375,-0.42724609375,6.341463414634147,4.451219512195122,7.317073170731708,115,2
33,0.587890625,-0.47607421875,-0.4208984375,15.365853658536587,7.743902439024391,5.670731707317073,115,2
34,0.60009765625,-0.46630859375,-0.40673828125,-3.353658536585366,7.01219512195122,4.51219512195122,115,2
35,0.607421875,-0.4755859375,-0.39794921875,-5.426829268292684,5.487804878048781,4.390243902439025,115,2
36,0.5859375,-0.50390625,-0.41455078125,-7.987804878048781,4.085365853658537,4.390243902439025,115,2
37,0.58642578125,-0.51806640625,-0.43359375,-8.475609756097562,1.6463414634146343,3.8414634146341466,115,2
38,0.607421875,-0.5166015625,-0.43408203125,-7.25609756097561,-0.5487804878048781,3.780487804878049,115,2
39,0.50341796875,-0.529296875,-0.44140625,-6.52439024390244,-15.426829268292684,3.8414634146341466,115,2
40,0.7060546875,-0.455078125,-0.453125,-9.329268292682928,3.7195121951219514,3.231707317073171,115,2
41,0.68408203125,-0.46337890625,-0.45458984375,-10.975609756097562,7.01219512195122,4.695121951219512,115,2
42,0.68798828125,-0.4521484375,-0.4287109375,-11.707317073170733,7.987804878048781,5.121951219512195,115,2
43,0.669921875,-0.49853515625,-0.43603515625,-10.792682926829269,7.621951219512196,6.52439024390244,115,2
44,0.67529296875,-0.4716796875,-0.46630859375,-10.609756097560977,7.8048780487804885,5.853658536585367,115,2
45,0.69775390625,-0.43994140625,-0.482421875,-10.975609756097562,7.560975609756098,5.914634146341464,115,2
46,0.7021484375,-0.43212890625,-0.4365234375,-11.646341463414634,8.841463414634147,7.01219512195122,115,2
47,0.6806640625,-0.46875,-0.3837890625,-14.085365853658537,10.487804878048781,7.317073170731708,115,2
48,0.673828125,-0.49365234375,-0.34912109375,-13.475609756097562,10.0,7.926829268292684,115,2
49,0.681640625,-0.4921875,-0.337890625,-12.195121951219512,9.390243902439025,7.195121951219513,115,2
50,0.67333984375,-0.4912109375,-0.33154296875,-10.365853658536587,7.8048780487804885,6.829268292682928,115,2
51,0.66748046875,-0.498046875,-0.3330078125,-7.8048780487804885,6.7682926829268295,6.890243902439025,115,2
52,0.64697265625,-0.51123046875,-0.326171875,-8.536585365853659,8.292682926829269,6.402439024390245,115,2
53,0.671875,-0.48388671875,-0.32080078125,-10.609756097560977,11.52439024390244,6.158536585365854,115,2
54,0.673828125,-0.46875,-0.3115234375,-13.04878048780488,13.658536585365855,7.134146341463415,115,2
55,0.67724609375,-0.46484375,-0.30712890625,-15.121951219512196,17.25609756097561,8.109756097560977,115,2
56,0.69970703125,-0.45849609375,-0.29931640625,-19.32926829268293,21.585365853658537,7.073170731707318,115,2
57,0.69873046875,-0.45703125,-0.2890625,-22.378048780487806,23.414634146341466,6.402439024390245,115,2
58,0.68603515625,-0.48486328125,-0.25537109375,-20.30487804878049,23.658536585365855,6.7682926829268295,115,2
59,0.67626953125,-0.52587890625,-0.23583984375,-30.975609756097565,19.939024390243905,5.670731707317073,115,2
60,0.685546875,-0.53759765625,-0.24853515625,-10.731707317073171,17.804878048780488,3.780487804878049,115,2
61,0.68017578125,-0.55517578125,-0.1318359375,-6.2804878048780495,14.878048780487806,2.987804878048781,115,2
62,0.6689453125,-0.55517578125,-0.2666015625,-3.1707317073170733,13.04878048780488,2.073170731707317,115,2
63,0.69287109375,-0.515625,-0.283203125,-2.1341463414634148,13.109756097560977,1.0365853658536586,115,2
64,0.7060546875,-0.3759765625,-0.29638671875,-4.2682926829268295,14.390243902439027,0.426829268292683,115,2
65,0.70654296875,-0.490234375,-0.2978515625,-6.707317073170732,15.487804878048783,-0.24390243902439027,115,2
66,0.7138671875,-0.48486328125,-0.2822265625,-8.841463414634147,16.951219512195124,-2.0121951219512195,115,2
67,0.7275390625,-0.47314453125,-0.27490234375,-9.451219512195122,17.012195121951223,-2.682926829268293,115,2
68,0.71728515625,-0.4697265625,-0.275390625,-9.329268292682928,15.975609756097562,-3.414634146341464,115,2
69,0.7001953125,-0.47705078125,-0.28369140625,-7.682926829268293,15.060975609756099,-4.2682926829268295,115,2
70,0.69970703125,-0.49853515625,-0.27880859375,-5.121951219512195,13.78048780487805,-4.085365853658537,115,2
71,0.6865234375,-0.51025390625,-0.2685546875,-2.9268292682926833,12.621951219512196,-3.9024390243902443,115,2
72,0.6748046875,-0.51611328125,-0.271484375,-0.5487804878048781,12.256097560975611,-3.353658536585366,115,2
73,0.67724609375,-0.51708984375,-0.265625,2.1951219512195124,12.439024390243903,-2.8658536585365857,115,2
74,0.6923828125,-0.51025390625,-0.28662109375,2.3170731707317076,13.597560975609758,-2.682926829268293,115,2
75,0.69140625,-0.50244140625,-0.28955078125,1.2804878048780488,16.585365853658537,-1.1585365853658538,115,2
76,0.6904296875,-0.5205078125,-0.29248046875,-2.439024390243903,20.731707317073173,-15.54878048780488,115,2
77,0.68994140625,-0.50634765625,-0.30029296875,-6.158536585365854,24.390243902439025,1.2804878048780488,115,2
78,0.66455078125,-0.51806640625,-0.263671875,-7.500000000000001,26.463414634146343,1.8902439024390245,115,2
79,0.65625,-0.5361328125,-0.2431640625,-7.621951219512196,27.743902439024392,2.9268292682926833,115,2
80,0.66015625,-0.5322265625,-0.22900390625,-7.378048780487806,29.695121951219516,3.414634146341464,115,2
81,0.65087890625,-0.53662109375,-0.18798828125,-8.170731707317074,32.19512195121951,3.780487804878049,115,2
82,0.65966796875,-0.5556640625,-0.1630859375,-7.987804878048781,34.57317073170732,4.817073170731708,115,2
83,0.6611328125,-0.57275390625,-0.1328125,-8.170731707317074,36.646341463414636,5.7926829268292686,115,2
84,0.63818359375,-0.58837890625,-0.12451171875,-7.987804878048781,36.890243902439025,6.951219512195123,115,2
85,0.6533203125,-0.57666015625,-0.005859375,-6.585365853658537,37.37804878048781,8.78048780487805,115,2
86,0.6494140625,-0.5927734375,-0.16015625,-6.585365853658537,38.90243902439025,8.597560975609756,115,2
87,0.6806640625,-0.5673828125,-0.17578125,-8.841463414634147,42.43902439024391,8.475609756097562,115,2
88,0.67724609375,-0.55126953125,-0.201171875,-13.963414634146343,48.10975609756098,8.048780487804878,115,2
89,0.71923828125,-0.529296875,-0.18408203125,-16.34146341463415,49.085365853658544,8.231707317073171,115,2
90,0.69580078125,-0.59765625,-0.142578125,-14.878048780487806,49.63414634146342,8.841463414634147,115,2
91,0.6787109375,-0.61376953125,-0.12939453125,-12.317073170731708,49.81707317073171,8.78048780487805,115,2
92,0.68505859375,-0.60400390625,-0.10205078125,-11.829268292682928,52.743902439024396,8.78048780487805,115,2
93,0.6865234375,-0.576171875,-0.08837890625,-12.378048780487806,54.32926829268293,9.390243902439025,115,2
94,0.66650390625,-0.58837890625,-0.0869140625,-9.817073170731708,53.71951219512196,10.609756097560977,115,2
95,0.65625,-0.59765625,-0.12158203125,-6.890243902439025,51.21951219512196,9.451219512195122,115,2
96,0.68896484375,-0.54296875,-0.1572265625,-4.2682926829268295,51.03658536585366,8.292682926829269,115,2
97,0.71875,-0.48876953125,-0.20263671875,-5.3048780487804885,50.60975609756098,6.2804878048780495,115,2
98,0.7138671875,-0.4638671875,-0.23583984375,-7.439024390243903,52.987804878048784,4.817073170731708,115,2
99,0.71728515625,-0.46142578125,-0.25732421875,-12.682926829268293,54.81707317073171,2.3170731707317076,115,2
100,0.73779296875,-0.43701171875,-0.3349609375,-19.146341463414636,59.32926829268293,-1.0365853658536586,115,2
101,0.79638671875,-0.3544921875,-0.3310546875,-25.0609756097561,64.32926829268293,-2.1341463414634148,115,2
102,0.80517578125,-0.3740234375,-0.28173828125,-30.30487804878049,67.19512195121952,-0.6097560975609757,115,2
103,0.7548828125,-0.455078125,-0.25244140625,-33.90243902439025,68.65853658536587,1.0365853658536586,115,2
104,0.72314453125,-0.494140625,-0.21533203125,-35.85365853658537,69.39024390243902,2.987804878048781,115,2
105,0.6640625,-0.5234375,-0.1845703125,-36.09756097560976,68.29268292682927,5.365853658536586,115,2
106,0.62646484375,-0.52978515625,-0.2138671875,-37.07317073170732,66.89024390243902,7.378048780487806,115,2
107,0.6552734375,-0.48828125,-0.29638671875,-39.451219512195124,66.09756097560977,8.963414634146343,115,2
108,0.69775390625,-0.39892578125,-0.3154296875,-39.63414634146342,67.25609756097562,9.451219512195122,115,2
109,0.73095703125,-0.33984375,-0.3310546875,-41.09756097560976,65.91463414634147,11.890243902439025,115,2
110,0.7158203125,-0.359375,-0.37939453125,-45.36585365853659,66.34146341463415,12.073170731707318,115,2
111,0.7314453125,-0.30224609375,-0.43798828125,-51.40243902439025,68.78048780487805,10.30487804878049,115,2
112,0.744140625,-0.2548828125,-0.47021484375,-57.50000000000001,69.93902439024392,7.621951219512196,115,2
113,0.77880859375,-0.2158203125,-0.4697265625,-64.63414634146342,70.97560975609757,6.585365853658537,115,2
114,0.7705078125,-0.126953125,-0.41748046875,-71.58536585365854,71.70731707317074,7.01219512195122,115,2
115,0.72314453125,-0.29833984375,-0.41748046875,-75.91463414634147,70.73170731707317,6.463414634146342,115,2
116,0.67822265625,-0.3232421875,-0.37939453125,-74.81707317073172,67.92682926829269,5.3048780487804885,115,2
117,0.66552734375,-0.3271484375,-0.33544921875,-72.19512195121952,63.53658536585366,5.365853658536586,115,2
118,0.654296875,-0.341796875,-0.35546875,-68.04878048780489,56.646341463414636,5.060975609756098,115,2
119,0.63427734375,-0.314453125,-0.38232421875,-63.29268292682927,50.304878048780495,3.2926829268292686,115,2
120,0.65234375,-0.25390625,-0.3779296875,-61.82926829268293,47.13414634146342,1.5853658536585367,115,2
121,0.6953125,-0.220703125,-0.38720703125,-63.17073170731708,43.71951219512196,15.54878048780488,115,2
122,0.697265625,-0.19775390625,-0.3916015625,-66.28048780487805,42.6829268292683,-2.682926829268293,115,2
123,0.69970703125,-0.16357421875,-0.4306640625,-70.42682926829269,41.40243902439025,-6.097560975609756,115,2
124,0.701171875,-0.1376953125,-0.41552734375,-75.0609756097561,41.768292682926834,-8.78048780487805,115,2
125,0.701171875,-0.15234375,-0.40087890625,-62.560975609756106,38.71951219512196,-9.878048780487806,115,2
126,0.67529296875,-0.17529296875,-0.42236328125,-79.26829268292684,36.890243902439025,-13.414634146341465,115,2
127,0.6806640625,-0.1474609375,-0.40185546875,-79.81707317073172,35.73170731707317,-16.158536585365855,115,2
128,0.70703125,-0.14013671875,-0.42431640625,-81.58536585365854,33.71951219512196,-17.5609756097561,115,2
129,0.7099609375,-0.12939453125,-0.39794921875,-83.10975609756099,31.951219512195124,-19.146341463414636,115,2
130,0.71435546875,-0.12060546875,-0.392578125,-86.64634146341464,30.0609756097561,-20.426829268292686,115,2
131,0.71875,-0.080078125,-0.41064453125,-91.15853658536587,30.60975609756098,-22.98780487804878,115,2
132,0.72900390625,-0.08447265625,-0.423828125,-96.76829268292684,31.58536585365854,-25.914634146341466,115,2
133,0.7470703125,-0.06494140625,-0.40673828125,-102.07317073170732,31.89024390243903,-28.292682926829272,115,2
134,0.73876953125,-0.10498046875,-0.3916015625,-104.81707317073172,31.951219512195124,-30.365853658536587,115,2
135,0.7412109375,-0.1181640625,-0.4052734375,-108.17073170731709,30.975609756097565,-32.86585365853659,115,2
136,0.73291015625,-0.11279296875,-0.41796875,-110.1829268292683,29.08536585365854,-35.30487804878049,115,2
137,0.75390625,-0.08154296875,-0.42626953125,-110.48780487804879,27.500000000000004,-39.024390243902445,115,2
138,0.775390625,-0.05810546875,-0.4443359375,-112.6829268292683,25.975609756097562,-42.19512195121951,115,2
139,0.787109375,-0.03271484375,-0.49267578125,-115.42682926829269,23.719512195121954,-45.85365853658537,115,2
140,0.8095703125,0.12255859375,-0.47900390625,-120.73170731707319,23.658536585365855,-49.69512195121952,115,2
141,0.82958984375,0.00927734375,-0.48291015625,-128.59756097560978,25.182926829268293,-53.47560975609757,115,2
142,0.84326171875,0.015625,-0.466796875,-135.1829268292683,25.853658536585368,-56.707317073170735,115,2
143,0.833984375,-0.0166015625,-0.46728515625,-139.51219512195124,25.000000000000004,-60.426829268292686,115,2
144,0.8017578125,-0.03955078125,-0.4423828125,-141.64634146341464,24.32926829268293,-64.26829268292684,115,2
145,0.79833984375,-0.0302734375,-0.4619140625,-142.25609756097563,20.914634146341466,-67.8658536585366,115,2
146,0.81298828125,-0.11572265625,-0.4912109375,-140.0,30.792682926829272,-73.17073170731707,115,2
147,0.79931640625,0.07421875,-0.54296875,-136.15853658536585,6.951219512195123,-78.71951219512196,115,2
148,0.77001953125,0.0224609375,-0.6376953125,-131.89024390243904,-2.439024390243903,-85.73170731707317,115,2
149,0.7890625,0.240234375,-0.66552734375,-131.95121951219514,-8.109756097560977,-90.54878048780489,115,2
150,0.8701171875,0.28564453125,-0.74755859375,-135.609756097561,-13.475609756097562,-96.89024390243904,115,2
151,0.94140625,0.3359375,-0.859375,-144.81707317073173,-17.5,-102.8658536585366,115,2
152,1.04052734375,0.38232421875,-0.98876953125,-157.7439024390244,-17.5609756097561,-108.65853658536587,115,2
153,1.1640625,0.42138671875,-1.013671875,-169.51219512195124,-13.29268292682927,-112.31707317073172,115,2
154,1.28759765625,0.404296875,-0.96533203125,-180.609756097561,-7.317073170731708,-115.12195121951221,115,2
155,1.35888671875,0.35498046875,-0.93359375,-190.85365853658539,-15.182926829268293,-118.53658536585367,115,2
156,1.4208984375,0.36474609375,-0.87939453125,-201.09756097560978,6.585365853658537,-122.13414634146342,115,2
157,1.48291015625,0.34033203125,-0.8271484375,-209.20731707317074,13.902439024390246,-109.32926829268294,115,2
158,1.52685546875,0.26611328125,-0.75732421875,-217.62195121951223,21.097560975609756,-127.37804878048782,115,2
159,1.51611328125,0.17578125,-0.86962890625,-224.20731707317074,25.243902439024392,-132.4390243902439,115,2
160,1.51708984375,0.1435546875,-0.62744140625,-226.89024390243904,30.54878048780488,-137.13414634146343,115,2
161,1.54931640625,0.158203125,-0.55224609375,-228.90243902439028,35.36585365853659,-142.6829268292683,115,2
162,1.55908203125,0.24462890625,-0.537109375,-231.89024390243904,38.65853658536586,-149.02439024390245,115,2
163,1.55078125,0.00146484375,-0.57861328125,-231.40243902439028,41.707317073170735,-141.03658536585368,115,2
164,1.55517578125,0.14501953125,-0.56787109375,-230.3048780487805,42.6829268292683,-162.19512195121953,115,2
165,1.56640625,0.09375,-0.58154296875,-230.3048780487805,46.463414634146346,-168.2317073170732,115,2
166,1.5654296875,0.1162109375,-0.60009765625,-230.3048780487805,49.51219512195122,-174.26829268292684,115,2
167,1.57275390625,0.13134765625,-0.60546875,-229.14634146341464,50.00000000000001,-179.08536585365854,115,2
168,1.576171875,0.00439453125,-0.64306640625,-227.7439024390244,51.89024390243903,-183.71951219512198,115,2
169,1.55078125,0.126953125,-0.6357421875,-227.9268292682927,53.84146341463415,-188.41463414634148,115,2
170,1.541015625,0.10595703125,-0.6650390625,-227.62195121951223,54.81707317073171,-191.40243902439025,115,2
171,1.5498046875,0.1484375,-0.64453125,-223.1707317073171,56.09756097560976,-194.69512195121953,115,2
172,1.5751953125,0.228515625,-0.61962890625,-221.76829268292684,58.35365853658537,-198.71951219512198,115,2
173,1.6259765625,0.3037109375,-0.638671875,-222.68292682926833,62.13414634146342,-201.58536585365854,115,2
174,1.66259765625,0.33544921875,-0.71240234375,-222.19512195121953,65.3048780487805,-205.4268292682927,115,2
175,1.70068359375,0.3671875,-0.6806640625,-227.31707317073173,70.79268292682927,-211.03658536585368,115,2
176,1.63525390625,0.39306640625,-0.65087890625,-228.0487804878049,75.2439024390244,-214.51219512195124,115,2
177,1.77099609375,0.34423828125,-0.630859375,-226.76829268292684,79.20731707317074,-217.50000000000003,115,2
178,1.76171875,0.31005859375,-0.5751953125,-224.75609756097563,82.31707317073172,-220.5487804878049,115,2
179,1.8671875,0.30029296875,-0.53076171875,-219.75609756097563,84.08536585365854,-222.9878048780488,115,2
180,1.71826171875,0.2998046875,-0.4462890625,-213.53658536585368,86.76829268292684,-227.01219512195124,115,2
181,1.7158203125,0.31640625,-0.42529296875,-205.7926829268293,89.57317073170732,-231.15853658536588,115,2
182,1.7421875,0.38037109375,-0.388671875,-201.15853658536588,91.21951219512196,-235.12195121951223,115,2
183,1.73291015625,0.40380859375,-0.251953125,-197.6829268292683,93.96341463414635,-241.09756097560978,115,2
184,1.75439453125,0.45458984375,-0.33349609375,-195.1219512195122,95.54878048780489,-246.28048780487808,115,2
185,1.7353515625,0.43017578125,-0.3310546875,-190.3048780487805,78.96341463414635,-248.71951219512198,115,2
186,1.65673828125,0.40966796875,-0.31494140625,-183.96341463414635,92.6219512195122,-253.65853658536588,115,2
187,1.6416015625,0.435546875,-0.3203125,-177.50000000000003,91.34146341463415,-254.14634146341464,115,2
188,1.60693359375,0.396484375,-0.2763671875,-168.47560975609758,91.28048780487806,-253.2926829268293,115,2
189,1.5205078125,0.38134765625,-0.373046875,-158.1707317073171,88.17073170731707,-253.2317073170732,115,2
190,1.46142578125,0.4326171875,-0.22314453125,-150.3048780487805,84.63414634146342,-253.47560975609758,115,2
191,1.412109375,0.4267578125,-0.18359375,-145.4878048780488,83.84146341463415,-253.78048780487808,115,2
192,1.40185546875,0.45556640625,-0.1767578125,-141.82926829268294,82.8048780487805,-253.53658536585368,115,2
193,1.37841796875,0.44677734375,-0.17236328125,-138.0487804878049,81.09756097560977,-253.41463414634148,115,2
194,1.494140625,0.4453125,-0.17919921875,-135.0,79.45121951219512,-254.93902439024393,115,2
195,1.3662109375,0.4248046875,-0.17333984375,-129.75609756097563,77.92682926829269,-257.3170731707317,115,2
196,1.365234375,0.41455078125,-0.16455078125,-125.1829268292683,74.51219512195122,-258.6585365853659,115,2
197,1.296875,0.26171875,-0.2275390625,-117.07317073170732,73.53658536585367,-262.6829268292683,115,2
198,1.30859375,0.29248046875,-0.001953125,-124.45121951219514,72.6219512195122,-262.2560975609756,115,2
199,1.298828125,0.27978515625,0.05517578125,-105.79268292682927,74.75609756097562,-264.69512195121956,115,2
200,1.23779296875,0.173828125,0.0986328125,-103.59756097560977,76.52439024390245,-263.9634146341464,115,2
201,1.14404296875,0.052734375,0.11083984375,-101.09756097560977,76.40243902439025,-261.82926829268297,115,2
202,1.04833984375,-0.064453125,0.11181640625,-98.71951219512196,77.6219512195122,-260.5487804878049,115,2
203,0.98779296875,-0.0078125,0.10693359375,-93.96341463414635,77.7439024390244,-258.5975609756098,115,2
204,0.93603515625,-0.18017578125,0.0732421875,-89.63414634146342,76.21951219512196,-253.2317073170732,115,2
205,0.85009765625,-0.2822265625,0.09765625,-83.41463414634147,74.81707317073172,-248.90243902439028,115,2
206,0.86669921875,-0.25146484375,0.08544921875,-77.13414634146342,70.91463414634147,-242.01219512195124,115,2
207,0.626953125,-0.48193359375,0.07470703125,-69.45121951219512,66.70731707317074,-234.39024390243904,115,2
208,0.517578125,-0.52392578125,0.1171875,-63.78048780487806,65.3048780487805,-226.70731707317074,115,2
209,0.42041015625,-0.55078125,0.17822265625,-60.67073170731708,64.87804878048782,-217.07317073170734,115,2
210,0.3330078125,-0.6025390625,0.185546875,-60.365853658536594,65.60975609756098,-205.7317073170732,115,2
211,0.22119140625,-0.6533203125,0.19287109375,-62.37804878048781,67.13414634146342,-194.32926829268294,115,2
212,0.134765625,-0.720703125,0.12744140625,-61.585365853658544,69.69512195121952,-182.7439024390244,115,2
213,0.10498046875,-0.74755859375,0.3046875,-63.17073170731708,70.73170731707317,-170.00000000000003,115,2
214,-0.080078125,-0.876953125,0.345703125,-61.524390243902445,71.40243902439025,-156.46341463414635,115,2
215,-0.11474609375,-0.90087890625,0.37890625,-57.804878048780495,70.48780487804879,-145.91463414634148,115,2
216,-0.19287109375,-0.921875,0.35546875,-53.53658536585366,72.8048780487805,-135.3658536585366,115,2
217,-0.205078125,-0.89208984375,0.32421875,-53.59756097560976,73.17073170731707,-122.8658536585366,115,2
218,-0.322265625,-0.998046875,0.39306640625,-50.91463414634147,69.08536585365854,-110.00000000000001,115,2
219,-0.42822265625,-1.20703125,0.2998046875,-42.50000000000001,68.04878048780489,-96.64634146341464,115,2
220,-0.447265625,-1.23095703125,0.42626953125,-35.609756097560975,66.40243902439025,-81.76829268292684,115,2
221,-0.51220703125,-1.330078125,0.3349609375,-29.08536585365854,60.304878048780495,-67.13414634146342,115,2
222,-0.60400390625,-1.4541015625,0.32861328125,-19.390243902439025,52.50000000000001,-47.01219512195122,115,2
223,-0.66455078125,-1.552734375,0.255859375,-5.548780487804878,47.987804878048784,-26.58536585365854,115,2
224,-0.69287109375,-1.638671875,0.3515625,5.3048780487804885,43.71951219512196,-6.585365853658537,115,2
225,-0.71826171875,-1.6669921875,0.22119140625,12.987804878048781,41.40243902439025,12.926829268292684,115,2
226,-0.72216796875,-1.68798828125,0.2802734375,18.658536585365855,37.37804878048781,34.32926829268293,115,2
227,-0.66259765625,-1.76611328125,0.2734375,23.658536585365855,34.81707317073171,58.65853658536586,115,2
228,-0.59228515625,-1.8046875,0.19970703125,26.58536585365854,33.29268292682927,81.52439024390245,115,2
229,-0.5712890625,-1.90380859375,0.20361328125,35.73170731707317,26.28048780487805,102.6829268292683,115,2
230,-0.4208984375,-2.05029296875,0.17041015625,52.07317073170732,19.26829268292683,123.96341463414635,115,2
231,-0.3994140625,-2.046875,0.19287109375,67.6829268292683,12.926829268292684,142.13414634146343,115,2
232,-0.28466796875,-2.07177734375,0.23583984375,83.65853658536587,6.951219512195123,159.81707317073173,115,2
233,-0.07177734375,-2.04052734375,0.08203125,92.5609756097561,3.9024390243902443,176.21951219512198,115,2
234,0.0029296875,-2.009765625,0.0546875,99.14634146341464,1.1585365853658538,197.13414634146343,115,2
235,0.2392578125,-2.0625,-0.060546875,105.1219512195122,-3.2926829268292686,221.52439024390245,115,2
236,0.34228515625,-2.16796875,-0.1630859375,116.52439024390245,-9.878048780487806,248.1707317073171,115,2
237,0.4853515625,-2.21875,-0.20458984375,130.4268292682927,-14.939024390243905,276.5853658536586,115,2
238,0.7041015625,-2.21435546875,-0.13330078125,141.95121951219514,-18.658536585365855,306.5243902439025,115,2
239,0.9365234375,-2.21435546875,-0.33154296875,153.0487804878049,-22.073170731707318,332.25609756097566,115,2
240,1.1982421875,-2.16845703125,-0.49609375,161.21951219512198,-25.853658536585368,358.109756097561,115,2
241,1.4296875,-2.15283203125,-0.61181640625,165.4268292682927,-25.48780487804878,384.87804878048786,115,2
242,1.66357421875,-2.2265625,-0.68798828125,170.5487804878049,-29.695121951219516,412.56097560975616,115,2
243,1.79052734375,-2.30419921875,-0.791015625,182.9268292682927,-33.35365853658537,439.57317073170736,115,2
244,2.3046875,-2.3359375,-0.8173828125,196.82926829268294,-30.365853658536587,454.32926829268297,115,2
245,2.70166015625,-2.3984375,-0.8427734375,210.06097560975613,-29.87804878048781,502.62195121951225,115,2
246,3.07080078125,-2.53271484375,-1.06689453125,231.46341463414637,-31.646341463414636,538.7804878048781,115,2
247,3.5263671875,-2.55615234375,-1.3095703125,260.3658536585366,-28.59756097560976,571.3414634146342,115,2
248,3.89794921875,-2.59326171875,-1.3798828125,302.9878048780488,-27.926829268292686,607.6829268292684,115,2
249,4.44580078125,-2.6845703125,-1.72900390625,353.5975609756098,-26.158536585365855,638.719512195122,115,2
250,4.88525390625,-2.83740234375,-1.9560546875,400.9756097560976,-11.646341463414634,660.3048780487806,115,2
251,5.4970703125,-2.884765625,-2.03466796875,441.4634146341464,5.0,670.609756097561,115,2
252,5.6328125,-2.96630859375,-2.251953125,495.18292682926835,0.9756097560975611,675.1829268292684,115,2
253,5.7197265625,-2.8427734375,-2.6611328125,501.0975609756098,46.707317073170735,683.6585365853659,115,2
254,6.18310546875,-2.56103515625,-3.0146484375,489.1463414634147,64.81707317073172,716.0975609756098,115,2
255,6.22119140625,-2.7080078125,-3.47216796875,477.68292682926835,63.71951219512196,743.6585365853659,115,2
256,6.44677734375,-2.99462890625,-3.748046875,469.1463414634147,41.09756097560976,779.939024390244,115,2
257,6.763671875,-3.494140625,-4.0068359375,527.1341463414634,-0.6707317073170732,815.4878048780489,115,2
258,7.158203125,-3.9462890625,-4.42822265625,606.0975609756098,-83.23170731707317,885.3048780487806,115,2
259,7.66650390625,-4.01025390625,-5.615234375,682.6829268292684,-160.91463414634148,905.9756097560976,115,2
260,7.9443359375,-3.8408203125,-6.40087890625,789.6951219512196,-275.0,891.6463414634147,115,2
261,8.4775390625,-4.13916015625,-7.4755859375,972.5609756097562,-429.63414634146346,868.2317073170733,115,2
262,8.35107421875,-4.3232421875,-8.4931640625,1181.768292682927,-606.4634146341464,701.2804878048781,115,2
263,8.22900390625,-4.2529296875,-9.27978515625,1382.3170731707319,-748.5365853658537,446.5243902439025,115,2
264,11.9384765625,-5.45458984375,-15.07275390625,1935.548780487805,-1249.6951219512196,502.80487804878055,115,2
265,-14.875,-6.7861328125,-8.458984375,500.6707317073171,752.6219512195123,-606.0975609756098,115,2
266,15.99951171875,13.15185546875,-8.61083984375,778.1707317073171,-337.6829268292683,39.024390243902445,115,2
267,2.0810546875,-7.26416015625,-6.21533203125,1182.8658536585367,-368.8414634146342,-159.81707317073173,115,2
268,10.3818359375,6.60302734375,1.4130859375,953.9024390243903,-108.96341463414635,-186.76829268292684,115,2
269,1.01904296875,-0.08544921875,-5.50732421875,951.6463414634147,-73.47560975609757,-242.50000000000003,115,2
270,3.60205078125,1.03271484375,-3.12841796875,734.8170731707318,-16.28048780487805,-340.1219512195122,115,2
271,3.1298828125,0.88232421875,-1.38330078125,877.8048780487806,-81.70731707317074,-343.5365853658537,115,2
272,3.51025390625,-0.37841796875,-1.9453125,815.0609756097562,-54.451219512195124,-471.4024390243903,115,2
273,3.41357421875,-1.2568359375,-1.83740234375,694.5121951219513,-121.76829268292684,-565.0609756097562,115,2
274,2.55126953125,-0.27685546875,-2.02294921875,630.0,-65.2439024390244,-582.0121951219513,115,2
275,2.59326171875,-0.64306640625,-2.19873046875,565.8536585365854,-53.10975609756098,-594.8170731707318,115,2
276,2.4931640625,-1.2685546875,-2.24462890625,457.01219512195127,-34.08536585365854,-652.9268292682927,115,2
277,2.07421875,-1.08642578125,-1.83203125,364.0243902439025,43.41463414634147,-666.4634146341464,115,2
278,1.84375,-1.29345703125,-1.4990234375,298.2317073170732,84.63414634146342,-672.8658536585366,115,2
279,1.64404296875,-1.26708984375,-1.60986328125,252.07317073170734,117.01219512195122,-675.2439024390244,115,2
280,1.45703125,-0.96630859375,-1.609375,211.40243902439028,159.57317073170734,-657.3170731707318,115,2
281,1.3916015625,-0.9951171875,-1.509765625,177.37804878048783,194.39024390243904,-632.3170731707318,115,2
282,1.49658203125,-0.826171875,-1.33935546875,142.9268292682927,223.41463414634148,-624.0243902439025,115,2
283,1.63818359375,-0.822265625,-1.03662109375,104.63414634146342,246.28048780487808,-594.939024390244,115,2
284,2.02001953125,-0.75,-0.75048828125,56.585365853658544,263.4756097560976,-579.6951219512196,115,2
285,2.22021484375,-0.82177734375,-0.53125,7.439024390243903,273.1707317073171,-563.6585365853659,115,2
286,2.14013671875,-0.97509765625,-0.384765625,-17.012195121951223,283.4146341463415,-548.719512195122,115,2
287,2.048828125,-1.07861328125,-0.55078125,-73.17073170731707,295.3048780487805,-533.3536585365854,115,2
288,1.98974609375,-1.02978515625,-0.83203125,-112.50000000000001,297.5609756097561,-515.6707317073171,115,2
289,1.91162109375,-0.94921875,-0.88720703125,-125.00000000000001,291.76829268292687,-495.00000000000006,115,2
290,1.69580078125,-0.95703125,-0.71337890625,-169.08536585365854,296.1585365853659,-470.48780487804885,115,2
291,1.47314453125,-1.0751953125,-0.48388671875,-172.8048780487805,301.76829268292687,-444.69512195121956,115,2
292,1.0283203125,-1.17919921875,-0.3984375,-197.07317073170734,300.7317073170732,-418.2926829268293,115,2
293,0.8740234375,-1.11572265625,-0.46533203125,-201.28048780487808,297.07317073170736,-405.7926829268293,115,2
294,0.7958984375,-0.92919921875,-0.48974609375,-201.28048780487808,292.7439024390244,-364.63414634146346,115,2
295,0.822265625,-0.72509765625,-0.51123046875,-201.76829268292684,294.57317073170736,-340.4878048780488,115,2
296,0.8046875,-0.61376953125,-0.55322265625,-214.51219512195124,292.25609756097566,-320.1219512195122,115,2
297,0.72509765625,-0.6142578125,-0.74853515625,-222.07317073170734,293.5365853658537,-303.2926829268293,115,2
298,0.60986328125,-0.52880859375,-0.7958984375,-220.00000000000003,299.45121951219517,-287.31707317073176,115,2
299,0.66845703125,-0.44873046875,-0.81689453125,-204.02439024390245,302.19512195121956,-269.1463414634147,115,2
300,0.58349609375,-0.43994140625,-0.9599609375,-219.87804878048783,300.3658536585366,-250.24390243902442,115,2
301,0.4267578125,-0.4013671875,-1.12646484375,-248.59756097560978,302.7439024390244,-234.63414634146343,115,2
302,0.31494140625,-0.2734375,-1.0888671875,-241.21951219512198,300.9146341463415,-217.07317073170734,115,2
303,0.1630859375,-0.12646484375,-0.89892578125,-223.35365853658539,292.5609756097561,-199.81707317073173,115,2
304,-0.0322265625,-0.23828125,-0.87060546875,-207.13414634146343,276.4024390243903,-183.90243902439025,115,2
305,-0.19287109375,-0.1982421875,-0.69482421875,-193.0487804878049,261.5853658536586,-187.25609756097563,115,2
306,-0.2783203125,-0.04345703125,-0.60205078125,-189.63414634146343,250.609756097561,-163.41463414634148,115,2
307,-0.341796875,0.0595703125,-0.5537109375,-201.03658536585368,238.2926829268293,-159.14634146341464,115,2
308,-0.3173828125,0.1162109375,-0.6650390625,-187.9878048780488,225.7317073170732,-150.6707317073171,115,2
309,-0.48779296875,0.05322265625,-0.70849609375,-227.37804878048783,205.3658536585366,-143.41463414634148,115,2
310,-0.3203125,0.0107421875,-0.86767578125,-233.90243902439028,192.07317073170734,-129.81707317073173,115,2
311,-0.2626953125,0.00390625,-0.818359375,-233.109756097561,183.65853658536588,-113.41463414634147,115,2
312,-0.580078125,-0.15869140625,-0.65087890625,-233.2317073170732,179.26829268292684,-101.76829268292684,115,2
313,-0.8017578125,-0.27587890625,-0.6298828125,-229.81707317073173,173.90243902439025,-95.91463414634147,115,2
314,-0.83447265625,-0.1865234375,-0.60107421875,-211.40243902439028,187.07317073170734,-93.78048780487806,115,2
315,-0.8623046875,-0.0498046875,-0.58544921875,-194.26829268292684,162.8048780487805,-90.97560975609757,115,2
316,-0.697265625,0.0380859375,-0.54638671875,-186.03658536585368,153.1707317073171,-86.15853658536587,115,2
317,-0.751953125,0.11865234375,-0.509765625,-184.14634146341464,143.59756097560978,-78.78048780487805,115,2
318,-0.89453125,-0.01806640625,-0.587890625,-179.20731707317074,129.45121951219514,-69.39024390243902,115,2
319,-0.97119140625,-0.2333984375,-0.60791015625,-165.6707317073171,122.98780487804879,-60.1219512195122,115,2
320,-0.99462890625,-0.26708984375,-0.51708984375,-152.8048780487805,118.29268292682927,-50.60975609756098,115,2
321,-1.0283203125,-0.2666015625,-0.4013671875,-147.01219512195124,112.8658536585366,-43.59756097560976,115,2
322,-1.0263671875,-0.14404296875,-0.41455078125,-136.76829268292684,109.81707317073172,-38.170731707317074,115,2
323,-1.02099609375,-0.02197265625,-0.455078125,-128.59756097560978,105.67073170731709,-34.75609756097561,115,2
324,-1.0439453125,0.0380859375,-0.53369140625,-120.06097560975611,98.35365853658537,-32.987804878048784,115,2
325,-1.06201171875,0.0712890625,-0.53515625,-109.75609756097562,92.50000000000001,-30.853658536585368,115,2
326,-1.005859375,0.0439453125,-0.4951171875,-104.45121951219514,82.43902439024392,-28.719512195121954,115,2
327,-1.19091796875,-0.02734375,-0.45166015625,-98.78048780487806,72.8048780487805,-23.719512195121954,115,2
328,-1.14208984375,-0.14111328125,-0.4033203125,-92.6219512195122,64.14634146341464,-17.682926829268293,115,2
329,-1.28759765625,-0.21875,-0.3564453125,-89.45121951219512,58.78048780487806,-13.04878048780488,115,2
330,-1.25732421875,-0.1552734375,-0.28759765625,-84.26829268292684,53.23170731707317,-7.195121951219513,115,2
331,-1.26611328125,-0.10595703125,-0.2548828125,-81.70731707317074,61.95121951219513,-2.987804878048781,115,2
332,-1.26171875,-0.03662109375,-0.29052734375,-77.5609756097561,38.35365853658537,0.426829268292683,115,2
333,-1.24169921875,-0.001953125,-0.330078125,-70.3658536585366,28.719512195121954,1.2804878048780488,115,2
334,-1.2177734375,0.01318359375,-0.35546875,-61.524390243902445,19.695121951219512,0.24390243902439027,115,2
335,-1.17431640625,0.0234375,-0.3349609375,-53.35365853658537,12.74390243902439,0.06097560975609757,115,2
336,-1.1376953125,0.12353515625,-0.27685546875,-49.451219512195124,5.975609756097562,1.9512195121951221,115,2
337,-1.12744140625,-0.01025390625,-0.25146484375,-62.19512195121952,-1.0365853658536586,5.426829268292684,115,2
338,-1.12890625,-0.0341796875,-0.2314453125,-42.19512195121951,-6.7682926829268295,9.26829268292683,115,2
339,-1.15283203125,-0.05126953125,-0.2001953125,-37.31707317073171,-12.926829268292684,11.829268292682928,115,2
340,-1.1669921875,-0.03271484375,-0.16552734375,-32.13414634146342,-18.902439024390244,14.390243902439027,115,2
341,-1.181640625,-0.01123046875,-0.15380859375,-26.402439024390247,-25.914634146341466,16.52439024390244,115,2
342,-1.17529296875,0.02197265625,-0.1513671875,-20.853658536585368,-32.31707317073171,17.98780487804878,115,2
343,-1.1748046875,0.0556640625,-0.1484375,-15.060975609756099,-38.170731707317074,20.243902439024392,115,2
344,-1.1953125,0.06396484375,-0.14306640625,-10.853658536585368,-42.50000000000001,22.5609756097561,115,2
345,-1.21240234375,0.0625,-0.12744140625,-6.2804878048780495,-31.34146341463415,25.30487804878049,115,2
346,-1.22509765625,0.07373046875,-0.07958984375,-2.25609756097561,-52.31707317073171,28.231707317073173,115,2
347,-1.24072265625,0.07470703125,-0.046875,1.2195121951219514,-57.37804878048781,29.207317073170735,115,2
348,-1.234375,0.10107421875,-0.03662109375,4.329268292682928,-61.09756097560976,29.02439024390244,115,2
349,-1.21728515625,0.14013671875,-0.00927734375,6.585365853658537,-65.73170731707317,28.414634146341466,115,2
350,-1.18505859375,0.1748046875,0.0234375,8.475609756097562,-69.20731707317074,28.353658536585368,115,2
351,-1.15576171875,0.1953125,0.0595703125,9.390243902439025,-73.59756097560977,28.719512195121954,115,2
352,-1.15771484375,0.19140625,0.095703125,10.30487804878049,-77.8048780487805,29.146341463414636,115,2
353,-1.18896484375,0.18310546875,0.1494140625,12.01219512195122,-82.25609756097562,28.963414634146343,115,2
354,-1.18505859375,0.17138671875,0.173828125,14.756097560975611,-85.3658536585366,28.292682926829272,115,2
355,-1.17578125,0.2060546875,0.201171875,16.76829268292683,-87.43902439024392,26.402439024390247,115,2
356,-1.1591796875,0.22607421875,0.1904296875,19.573170731707318,-90.54878048780489,25.426829268292686,115,2
357,-1.123046875,0.22900390625,0.19482421875,23.658536585365855,-93.10975609756099,23.78048780487805,115,2
358,-1.0888671875,0.2392578125,0.20556640625,27.987804878048784,-95.79268292682927,22.926829268292686,115,2
359,-1.0595703125,0.24365234375,0.21728515625,32.5609756097561,-100.1829268292683,22.195121951219512,115,2
360,-1.02685546875,0.232421875,0.23095703125,35.243902439024396,-102.37804878048782,20.670731707317074,115,2
361,-1.00146484375,0.22509765625,0.2333984375,36.15853658536586,-104.08536585365854,19.878048780487806,115,2
362,-0.984375,0.21435546875,0.25634765625,38.41463414634147,-105.97560975609757,18.658536585365855,115,2
363,-0.97314453125,0.21484375,0.29150390625,40.85365853658537,-107.56097560975611,17.012195121951223,115,2
364,-0.9248046875,0.2236328125,0.3369140625,42.6219512195122,-109.63414634146342,15.914634146341465,115,2
365,-0.92236328125,0.21728515625,0.37841796875,44.81707317073171,-111.09756097560977,15.30487804878049,115,2
366,-0.9267578125,0.1953125,0.40185546875,31.34146341463415,-111.34146341463416,14.51219512195122,115,2
367,-0.9189453125,0.18310546875,0.4033203125,50.54878048780488,-111.58536585365854,13.902439024390246,115,2
368,-0.912109375,0.1904296875,0.40576171875,53.41463414634147,-111.64634146341464,14.451219512195124,115,2
369,-0.91064453125,0.2001953125,0.3935546875,55.73170731707317,-111.40243902439025,14.390243902439027,115,2
370,-0.89599609375,0.189453125,0.39599609375,57.07317073170732,-110.48780487804879,13.658536585365855,115,2
371,-0.87255859375,0.21923828125,0.3974609375,57.560975609756106,-111.76829268292684,13.78048780487805,115,2
372,-0.861328125,0.2021484375,0.41943359375,58.47560975609757,-112.37804878048782,13.231707317073171,115,2
373,-0.8427734375,0.201171875,0.42724609375,58.90243902439025,-112.07317073170732,12.80487804878049,115,2
374,-0.80908203125,0.201171875,0.43994140625,59.451219512195124,-112.25609756097562,13.536585365853659,115,2
375,-0.79248046875,0.1884765625,0.46240234375,60.97560975609757,-112.98780487804879,14.390243902439027,115,2
376,-0.78662109375,0.18408203125,0.4384765625,60.79268292682927,-112.19512195121952,14.207317073170733,115,2
377,-0.7734375,0.1865234375,0.4404296875,46.89024390243903,-112.43902439024392,13.719512195121952,115,2
378,-0.75830078125,0.2001953125,0.4580078125,64.26829268292684,-113.84146341463416,13.658536585365855,115,2
379,-0.74169921875,0.21630859375,0.45849609375,65.1829268292683,-115.2439024390244,13.719512195121952,115,2
380,-0.71533203125,0.22216796875,0.45654296875,65.73170731707317,-117.7439024390244,14.085365853658537,115,2
381,-0.72607421875,0.20068359375,0.47265625,66.09756097560977,-120.3658536585366,14.695121951219514,115,2
382,-0.7158203125,0.19189453125,0.478515625,67.8658536585366,-122.01219512195124,15.426829268292684,115,2
383,-0.68505859375,0.205078125,0.5185546875,68.71951219512195,-121.21951219512196,16.03658536585366,115,2
384,-0.64306640625,0.212890625,0.5234375,66.15853658536587,-122.07317073170732,17.378048780487806,115,2
385,-0.63232421875,0.19140625,0.5146484375,64.20731707317074,-122.98780487804879,18.353658536585368,115,2
386,-0.6201171875,0.17578125,0.509765625,64.39024390243902,-124.45121951219514,18.475609756097562,115,2
387,-0.6123046875,0.1923828125,0.52587890625,66.76829268292684,-125.2439024390244,18.658536585365855,115,2
388,-0.5546875,0.20703125,0.55517578125,69.02439024390245,-126.52439024390245,19.81707317073171,115,2
389,-0.53369140625,0.21337890625,0.58203125,70.73170731707317,-127.92682926829269,21.52439024390244,115,2
390,-0.5234375,0.21484375,0.57373046875,70.2439024390244,-128.47560975609758,23.231707317073173,115,2
391,-0.52001953125,0.2275390625,0.5625,69.57317073170732,-128.35365853658539,24.26829268292683,115,2
392,-0.50927734375,0.2451171875,0.5732421875,69.32926829268293,-129.20731707317074,25.365853658536587,115,2
393,-0.486328125,0.27392578125,0.568359375,68.71951219512195,-129.51219512195124,25.670731707317074,115,2
394,-0.4560546875,0.2958984375,0.611328125,64.75609756097562,-126.89024390243904,25.975609756097562,115,2
395,-0.42138671875,0.310546875,0.63525390625,59.451219512195124,-140.3048780487805,26.951219512195124,115,2
396,-0.39892578125,0.3046875,0.66650390625,55.1829268292683,-122.62195121951221,28.170731707317074,115,2
397,-0.380859375,0.28857421875,0.67626953125,54.207317073170735,-123.47560975609757,29.02439024390244,115,2
398,-0.38671875,0.26416015625,0.6416015625,56.82926829268293,-125.73170731707319,29.451219512195124,115,2
399,-0.39990234375,0.24169921875,0.64208984375,60.79268292682927,-127.8658536585366,28.84146341463415,115,2
400,-0.3974609375,0.24755859375,0.6376953125,65.79268292682927,-130.4268292682927,29.02439024390244,115,2
401,-0.376953125,0.26953125,0.63623046875,68.41463414634147,-130.97560975609758,29.02439024390244,115,2
402,-0.357421875,0.302734375,0.63623046875,67.8048780487805,-130.85365853658539,30.121951219512198,115,2
403,-0.3369140625,0.33154296875,0.623046875,66.89024390243902,-131.82926829268294,31.707317073170735,115,2
404,-0.32080078125,0.37109375,0.623046875,64.69512195121952,-131.64634146341464,33.53658536585366,115,2
405,-0.30908203125,0.3818359375,0.623046875,60.365853658536594,-130.4878048780488,35.0,115,2
406,-0.28515625,0.388671875,0.6337890625,56.28048780487806,-128.59756097560978,36.40243902439025,115,2
407,-0.26708984375,0.38623046875,0.66162109375,52.987804878048784,-127.13414634146342,37.926829268292686,115,2
408,-0.2509765625,0.38671875,0.67578125,51.21951219512196,-126.34146341463416,38.90243902439025,115,2
409,-0.2353515625,0.392578125,0.7041015625,51.21951219512196,-125.60975609756099,39.81707317073171,115,2
410,-0.23046875,0.39404296875,0.68896484375,52.743902439024396,-126.82926829268294,40.97560975609756,115,2
411,-0.2265625,0.3681640625,0.658203125,55.67073170731708,-127.50000000000001,42.31707317073171,115,2
412,-0.2138671875,0.3662109375,0.65185546875,57.926829268292686,-127.13414634146342,43.53658536585366,115,2
413,-0.18115234375,0.39599609375,0.64453125,59.93902439024391,-127.50000000000001,45.1829268292683,115,2
414,-0.14892578125,0.4091796875,0.62060546875,59.75609756097562,-127.01219512195124,46.768292682926834,115,2
415,-0.1220703125,0.44921875,0.58544921875,58.23170731707317,-127.13414634146342,48.29268292682927,115,2
416,-0.10791015625,0.47900390625,0.60107421875,55.97560975609757,-126.70731707317074,49.75609756097561,115,2
417,-0.09130859375,0.4892578125,0.619140625,49.024390243902445,-124.69512195121952,50.54878048780488,115,2
418,-0.0693359375,0.51513671875,0.6533203125,44.51219512195122,-122.50000000000001,52.01219512195122,115,2
419,-0.06640625,0.5029296875,0.67333984375,40.670731707317074,-121.03658536585367,53.71951219512196,115,2
420,-0.0654296875,0.49853515625,0.68310546875,39.08536585365854,-120.73170731707319,55.1829268292683,115,2
421,-0.068359375,0.4833984375,0.68798828125,38.78048780487805,-120.79268292682927,57.25609756097561,115,2
422,-0.0556640625,0.47412109375,0.67333984375,40.0,-122.13414634146342,59.32926829268293,115,2
423,-0.04931640625,0.45361328125,0.6611328125,41.82926829268293,-123.71951219512196,61.585365853658544,115,2
424,-0.041015625,0.44970703125,0.6376953125,43.90243902439025,-124.32926829268294,64.02439024390245,115,2
425,-0.0185546875,0.47216796875,0.6376953125,44.93902439024391,-123.96341463414635,66.03658536585367,115,2
426,0.00927734375,0.5166015625,0.6513671875,42.37804878048781,-122.98780487804879,68.71951219512195,115,2
427,0.03662109375,0.55419921875,0.669921875,39.75609756097561,-122.01219512195124,71.40243902439025,115,2
428,0.0615234375,0.56640625,0.69970703125,35.97560975609756,-120.48780487804879,73.96341463414635,115,2
429,0.07470703125,0.57177734375,0.68994140625,33.109756097560975,-118.65853658536587,75.91463414634147,115,2
430,0.1005859375,0.55029296875,0.673828125,31.52439024390244,-117.50000000000001,76.82926829268294,115,2
431,0.12451171875,0.55712890625,0.69482421875,30.243902439024392,-117.01219512195122,77.92682926829269,115,2
432,0.15380859375,0.53955078125,0.68603515625,30.0609756097561,-117.43902439024392,79.39024390243902,115,2
433,0.1650390625,0.52734375,0.69189453125,29.634146341463417,-115.97560975609757,79.81707317073172,115,2
434,0.17724609375,0.537109375,0.69091796875,30.54878048780488,-115.00000000000001,80.48780487804879,115,2
435,0.1923828125,0.5244140625,0.72412109375,15.609756097560977,-112.98780487804879,81.15853658536587,115,2
436,0.2197265625,0.54150390625,0.734375,31.402439024390247,-110.54878048780489,81.82926829268294,115,2
437,0.2705078125,0.564453125,0.75244140625,30.60975609756098,-107.25609756097562,82.7439024390244,115,2
438,0.30126953125,0.5830078125,0.73681640625,30.792682926829272,-105.54878048780489,82.92682926829269,115,2
439,0.33056640625,0.60693359375,0.861328125,33.170731707317074,-104.87804878048782,82.8658536585366,115,2
440,0.353515625,0.61376953125,0.7216796875,35.36585365853659,-103.78048780487806,82.50000000000001,115,2
441,0.36865234375,0.60205078125,0.68701171875,37.5,-103.96341463414635,81.76829268292684,115,2
442,0.37939453125,0.58544921875,0.64599609375,38.65853658536586,-104.69512195121952,80.97560975609757,115,2
443,0.3603515625,0.56640625,0.74169921875,35.1829268292683,-103.35365853658537,80.3048780487805,115,2
444,0.3671875,0.5703125,0.50048828125,30.0609756097561,-100.2439024390244,78.90243902439025,115,2
445,0.392578125,0.57763671875,0.6494140625,26.219512195121954,-98.04878048780489,78.96341463414635,115,2
446,0.42919921875,0.5771484375,0.68212890625,24.695121951219516,-95.79268292682927,78.78048780487805,115,2
447,0.44189453125,0.55908203125,0.6962890625,23.170731707317074,-92.37804878048782,78.17073170731707,115,2
448,0.45849609375,0.55419921875,0.69580078125,23.658536585365855,-89.87804878048782,77.6829268292683,115,2
449,0.48291015625,0.56298828125,0.6845703125,25.426829268292686,-88.23170731707317,76.76829268292684,115,2
450,0.5107421875,0.58056640625,0.64111328125,27.682926829268297,-87.92682926829269,76.21951219512196,115,2
451,0.53466796875,0.595703125,0.595703125,28.780487804878053,-88.65853658536587,75.1829268292683,115,2
452,0.53955078125,0.6005859375,0.5634765625,28.84146341463415,-89.63414634146342,73.53658536585367,115,2
453,0.5302734375,0.58740234375,0.55908203125,26.951219512195124,-88.78048780487805,71.46341463414635,115,2
454,0.55078125,0.57666015625,0.5341796875,24.390243902439025,-86.76829268292684,69.45121951219512,115,2
455,0.56396484375,0.54150390625,0.52734375,23.414634146341466,-86.21951219512196,68.71951219512195,115,2
456,0.55419921875,0.50146484375,0.51611328125,21.707317073170735,-85.60975609756099,68.23170731707317,115,2
457,0.54833984375,0.46630859375,0.51416015625,18.353658536585368,-83.10975609756099,68.10975609756098,115,2
458,0.54443359375,0.47265625,0.51708984375,15.914634146341465,-79.93902439024392,67.6219512195122,115,2
459,0.54345703125,0.4921875,0.55517578125,14.695121951219514,-78.17073170731707,68.29268292682927,115,2
460,0.5556640625,0.5,0.5625,14.390243902439027,-77.5,68.84146341463415,115,2
461,0.55322265625,0.5029296875,0.53515625,12.073170731707318,-75.1829268292683,69.75609756097562,115,2
462,0.5537109375,0.50048828125,0.51611328125,10.426829268292684,-74.08536585365854,70.0,115,2
463,0.568359375,0.50048828125,0.47216796875,9.390243902439025,-75.3048780487805,70.0,115,2
464,0.58349609375,0.50634765625,0.4482421875,10.548780487804878,-77.5,70.2439024390244,115,2
465,0.5703125,0.4921875,0.4140625,12.80487804878049,-80.3048780487805,71.15853658536587,115,2
466,0.5390625,0.4501953125,0.3828125,16.03658536585366,-82.50000000000001,70.79268292682927,115,2
467,0.52587890625,0.427734375,0.41357421875,19.939024390243905,-84.20731707317074,70.3048780487805,115,2
468,0.52783203125,0.412109375,0.42431640625,20.914634146341466,-84.02439024390245,69.26829268292684,115,2
469,0.55908203125,0.41357421875,0.43603515625,20.365853658536587,-82.31707317073172,69.45121951219512,115,2
470,0.5546875,0.39599609375,0.43994140625,18.231707317073173,-80.2439024390244,70.0609756097561,115,2
471,0.54833984375,0.40283203125,0.38623046875,16.097560975609756,-77.43902439024392,69.45121951219512,115,2
472,0.5654296875,0.4091796875,0.37841796875,14.085365853658537,-74.39024390243902,70.0609756097561,115,2
473,0.5791015625,0.41650390625,0.35693359375,10.914634146341465,-71.40243902439025,69.87804878048782,115,2
474,0.57666015625,0.41796875,0.33984375,9.02439024390244,-68.96341463414635,71.28048780487805,115,2
475,0.59912109375,0.41650390625,0.32470703125,8.963414634146343,-67.8658536585366,71.58536585365854,115,2
476,0.603515625,0.40966796875,0.30029296875,10.792682926829269,-70.73170731707317,73.29268292682927,115,2
477,0.59619140625,0.35400390625,0.27783203125,14.695121951219514,-74.69512195121952,74.69512195121952,115,2
478,0.56103515625,0.341796875,0.265625,19.207317073170735,-77.13414634146342,74.08536585365854,115,2
479,0.60009765625,0.33935546875,0.2841796875,23.475609756097562,-79.26829268292684,72.8658536585366,115,2
480,0.62060546875,0.33203125,0.306640625,26.09756097560976,-79.87804878048782,72.6829268292683,115,2
481,0.62451171875,0.29736328125,0.32421875,24.75609756097561,-77.07317073170732,72.13414634146342,115,2
482,0.62451171875,0.27783203125,0.30859375,18.53658536585366,-71.40243902439025,71.21951219512195,115,2
483,0.64599609375,0.2890625,0.2998046875,9.878048780487806,-65.0,69.32926829268293,115,2
484,0.67431640625,0.31689453125,0.31103515625,4.2682926829268295,-61.34146341463415,69.26829268292684,115,2
485,0.6982421875,0.328125,0.296875,2.25609756097561,-57.43902439024391,68.59756097560977,115,2
486,0.7158203125,0.33349609375,0.296875,1.0975609756097562,-55.304878048780495,68.78048780487805,115,2
487,0.734375,0.32861328125,0.26708984375,1.9512195121951221,-57.07317073170732,69.87804878048782,115,2
488,0.72607421875,0.29931640625,0.244140625,3.963414634146342,-59.146341463414636,70.67073170731707,115,2
489,0.712890625,0.29052734375,0.201171875,5.3048780487804885,-59.451219512195124,69.20731707317074,115,2
490,0.74853515625,0.32470703125,0.19873046875,5.182926829268293,-57.6829268292683,66.34146341463415,115,2
491,0.7880859375,0.3564453125,0.18505859375,4.75609756097561,-58.10975609756098,64.45121951219512,115,2
492,0.81298828125,0.35791015625,0.17822265625,2.439024390243903,-56.646341463414636,61.463414634146346,115,2
493,0.82373046875,0.3681640625,0.21826171875,0.853658536585366,-53.963414634146346,58.78048780487806,115,2
494,0.8330078125,0.3720703125,0.2421875,0.5487804878048781,-53.10975609756098,56.28048780487806,115,2
495,0.81884765625,0.3564453125,0.2548828125,2.7439024390243905,-53.17073170731708,55.00000000000001,115,2
496,0.81005859375,0.34521484375,0.26904296875,4.75609756097561,-52.86585365853659,53.59756097560976,115,2
497,0.79150390625,0.302734375,0.240234375,7.682926829268293,-53.53658536585366,51.89024390243903,115,2
498,0.79736328125,0.28125,0.21875,6.402439024390245,-51.03658536585366,49.085365853658544,115,2
499,0.81591796875,0.28466796875,0.1865234375,0.7317073170731708,-46.03658536585366,45.243902439024396,115,2
