,Ax,Ay,Az,Gx,Gy,Gz,distance,shot_type
0,0.66796875,-0.52587890625,-0.23291015625,-2.5609756097560976,15.853658536585368,-12.317073170731708,10,8
1,0.64990234375,-0.59130859375,-0.3154296875,-4.207317073170732,14.634146341463415,-10.792682926829269,10,8
2,0.63818359375,-0.6630859375,-0.369140625,-2.987804878048781,13.597560975609758,-10.121951219512196,10,8
3,0.66259765625,-0.7001953125,-0.40576171875,-1.8902439024390245,12.682926829268293,-8.658536585365855,10,8
4,0.66015625,-0.71923828125,-0.4208984375,-2.1341463414634148,12.682926829268293,-6.52439024390244,10,8
5,0.74755859375,-0.7548828125,-0.41259765625,-2.378048780487805,13.109756097560977,-4.51219512195122,10,8
6,0.58349609375,-0.77392578125,-0.40380859375,-0.06097560975609757,11.341463414634147,-2.5609756097560976,10,8
7,0.58349609375,-0.73828125,-0.482421875,1.0365853658536586,10.060975609756099,-1.0975609756097562,10,8
8,0.5517578125,-0.673828125,-0.29833984375,0.06097560975609757,9.451219512195122,0.853658536585366,10,8
9,0.53564453125,-0.64501953125,-0.28076171875,-2.378048780487805,9.573170731707318,2.987804878048781,10,8
10,0.54638671875,-0.61767578125,-0.2841796875,-4.634146341463415,9.51219512195122,4.695121951219512,10,8
11,0.56494140625,-0.59228515625,-0.275390625,-5.914634146341464,9.02439024390244,6.646341463414635,10,8
12,0.5751953125,-0.5771484375,-0.259765625,-7.8048780487804885,9.085365853658537,8.414634146341465,10,8
13,0.57275390625,-0.57470703125,-0.27685546875,-9.02439024390244,8.902439024390244,10.30487804878049,10,8
14,0.57470703125,-0.57763671875,-0.29248046875,-7.865853658536586,7.134146341463415,11.341463414634147,10,8
15,0.58837890625,-0.5703125,-0.29345703125,-5.548780487804878,5.670731707317073,11.463414634146343,10,8
16,0.64013671875,-0.55712890625,-0.310546875,-3.536585365853659,4.817073170731708,11.28048780487805,10,8
17,0.61572265625,-0.56494140625,-0.322265625,-1.8902439024390245,4.878048780487806,10.426829268292684,10,8
18,0.60888671875,-0.57666015625,-0.31103515625,0.48780487804878053,3.780487804878049,9.390243902439025,10,8
19,0.626953125,-0.5361328125,-0.287109375,2.804878048780488,2.3170731707317076,7.682926829268293,10,8
20,0.6318359375,-0.48388671875,-0.23876953125,4.451219512195122,1.2195121951219514,6.829268292682928,10,8
21,0.6455078125,-0.46875,-0.2294921875,6.2804878048780495,-0.9146341463414634,5.914634146341464,10,8
22,0.638671875,-0.48291015625,-0.2373046875,8.902439024390244,-2.439024390243903,4.878048780487806,10,8
23,0.6708984375,-0.447265625,-0.23046875,9.878048780487806,-2.5,4.329268292682928,10,8
24,0.69921875,-0.400390625,-0.19775390625,8.78048780487805,-1.0365853658536586,3.7195121951219514,10,8
25,0.70703125,-0.380859375,-0.173828125,7.073170731707318,0.1829268292682927,2.378048780487805,10,8
26,0.71142578125,-0.36767578125,-0.1533203125,7.682926829268293,0.12195121951219513,1.2195121951219514,10,8
27,0.708984375,-0.384765625,-0.1513671875,9.51219512195122,-0.6097560975609757,0.06097560975609757,10,8
28,0.7216796875,-0.396484375,-0.15966796875,11.76829268292683,-0.853658536585366,-0.9756097560975611,10,8
29,0.74462890625,-0.388671875,-0.19287109375,13.04878048780488,-0.1829268292682927,-1.7682926829268295,10,8
30,0.76171875,-0.37451171875,-0.2099609375,11.52439024390244,2.1951219512195124,-2.439024390243903,10,8
31,0.76171875,-0.38037109375,-0.20751953125,8.902439024390244,4.207317073170732,-2.25609756097561,10,8
32,0.77490234375,-0.4072265625,-0.203125,6.585365853658537,6.158536585365854,-1.2804878048780488,10,8
33,0.7509765625,-0.46337890625,-0.197265625,3.414634146341464,8.902439024390244,-0.426829268292683,10,8
34,0.716796875,-0.49755859375,-0.19873046875,1.4634146341463417,10.914634146341465,-0.12195121951219513,10,8
35,0.71435546875,-0.51611328125,-0.19189453125,0.30487804878048785,12.74390243902439,1.1585365853658538,10,8
36,0.71484375,-0.52880859375,-0.18994140625,-1.1585365853658538,13.841463414634148,1.707317073170732,10,8
37,0.70849609375,-0.52880859375,-0.1962890625,-0.3658536585365854,14.390243902439027,2.0121951219512195,10,8
38,0.681640625,-0.55029296875,-0.1865234375,0.06097560975609757,14.51219512195122,1.6463414634146343,10,8
39,0.6943359375,-0.5400390625,-0.1962890625,-0.7317073170731708,15.914634146341465,1.7682926829268295,10,8
40,0.7109375,-0.52294921875,-0.1845703125,-2.8658536585365857,17.378048780487806,2.0121951219512195,10,8
41,0.67041015625,-0.5341796875,-0.181640625,-3.963414634146342,17.134146341463417,1.707317073170732,10,8
42,0.6630859375,-0.541015625,-0.18701171875,-1.9512195121951221,15.365853658536587,1.524390243902439,10,8
43,0.6611328125,-0.55712890625,-0.18017578125,1.3414634146341464,13.597560975609758,1.707317073170732,10,8
44,0.65625,-0.5751953125,-0.16162109375,3.963414634146342,11.585365853658537,1.402439024390244,10,8
45,0.64453125,-0.55908203125,-0.20458984375,6.890243902439025,7.926829268292684,1.524390243902439,10,8
46,0.654296875,-0.57177734375,-0.2548828125,12.01219512195122,4.695121951219512,1.707317073170732,10,8
47,0.66552734375,-0.55908203125,-0.23388671875,15.426829268292684,4.024390243902439,1.402439024390244,10,8
48,0.69189453125,-0.541015625,-0.19482421875,14.756097560975611,6.646341463414635,0.48780487804878053,10,8
49,0.7099609375,-0.5166015625,-0.1796875,11.28048780487805,10.670731707317074,-0.06097560975609757,10,8
50,0.703125,-0.515625,-0.18896484375,8.048780487804878,13.841463414634148,-0.06097560975609757,10,8
51,0.67822265625,-0.54833984375,-0.17529296875,5.609756097560976,16.76829268292683,0.1829268292682927,10,8
52,0.6689453125,-0.5625,-0.1494140625,3.5975609756097566,18.902439024390244,0.5487804878048781,10,8
53,0.67236328125,-0.54931640625,-0.13525390625,4.207317073170732,19.02439024390244,0.6707317073170732,10,8
54,0.66064453125,-0.54833984375,-0.15576171875,6.463414634146342,17.804878048780488,1.0975609756097562,10,8
55,0.63818359375,-0.56298828125,-0.14990234375,9.207317073170733,16.34146341463415,1.5853658536585367,10,8
56,0.64892578125,-0.55810546875,-0.13330078125,10.30487804878049,16.76829268292683,1.707317073170732,10,8
57,0.66064453125,-0.5478515625,-0.130859375,9.634146341463415,17.926829268292686,1.707317073170732,10,8
58,0.66357421875,-0.541015625,-0.125,9.634146341463415,18.719512195121954,1.5853658536585367,10,8
59,0.64501953125,-0.5703125,-0.1240234375,10.609756097560977,19.573170731707318,2.378048780487805,10,8
60,0.50048828125,-0.59423828125,-0.13232421875,12.317073170731708,19.26829268292683,3.231707317073171,10,8
61,0.64208984375,-0.5986328125,-0.1298828125,14.146341463414636,19.75609756097561,3.8414634146341466,10,8
62,0.65673828125,-0.5791015625,-0.1171875,14.634146341463415,21.890243902439025,4.75609756097561,10,8
63,0.66357421875,-0.5732421875,-0.09912109375,12.073170731707318,24.573170731707318,4.695121951219512,10,8
64,0.68359375,-0.5478515625,-0.08984375,10.060975609756099,26.89024390243903,4.2682926829268295,10,8
65,0.71875,-0.4794921875,-0.06201171875,10.609756097560977,27.012195121951223,3.4756097560975614,10,8
66,0.7314453125,-0.48779296875,-0.041015625,11.890243902439025,27.134146341463417,2.7439024390243905,10,8
67,0.736328125,-0.49267578125,-0.0810546875,11.646341463414634,27.25609756097561,2.378048780487805,10,8
68,0.72412109375,-0.49267578125,-0.087890625,10.670731707317074,29.02439024390244,3.1707317073170733,10,8
69,0.6748046875,-0.5234375,-0.06787109375,9.146341463414634,31.951219512195124,4.390243902439025,10,8
70,0.64599609375,-0.5625,-0.0166015625,9.329268292682928,34.32926829268293,5.7926829268292686,10,8
71,0.62548828125,-0.5791015625,0.01220703125,13.109756097560977,36.28048780487805,6.52439024390244,10,8
72,0.64990234375,-0.56689453125,0.12158203125,17.804878048780488,37.01219512195122,6.341463414634147,10,8
73,0.65380859375,-0.5771484375,-0.05859375,21.158536585365855,38.10975609756098,7.682926829268293,10,8
74,0.66650390625,-0.5751953125,-0.056640625,22.25609756097561,40.0609756097561,8.597560975609756,10,8
75,0.68310546875,-0.5810546875,-0.0322265625,22.98780487804878,41.82926829268293,9.695121951219512,10,8
76,0.6845703125,-0.56396484375,-0.03466796875,22.378048780487806,44.024390243902445,9.51219512195122,10,8
77,0.71630859375,-0.54150390625,-0.03564453125,20.121951219512198,47.19512195121952,9.878048780487806,10,8
78,0.72998046875,-0.5166015625,-0.078125,30.792682926829272,49.39024390243903,8.719512195121952,10,8
79,0.72509765625,-0.494140625,-0.09912109375,11.036585365853659,51.34146341463415,8.048780487804878,10,8
80,0.72900390625,-0.494140625,-0.00048828125,5.975609756097562,54.085365853658544,7.073170731707318,10,8
81,0.732421875,-0.4970703125,-0.244140625,0.5487804878048781,58.10975609756098,6.463414634146342,10,8
82,0.7294921875,-0.5048828125,-0.10498046875,-5.3048780487804885,61.768292682926834,5.487804878048781,10,8
83,0.734375,-0.47705078125,-0.10498046875,-9.390243902439025,63.17073170731708,4.75609756097561,10,8
84,0.72705078125,-0.4755859375,-0.107421875,-10.426829268292684,62.987804878048784,5.121951219512195,10,8
85,0.71044921875,-0.50146484375,-0.1025390625,-9.451219512195122,61.34146341463415,5.182926829268293,10,8
86,0.71923828125,-0.50830078125,-0.1162109375,-7.01219512195122,60.060975609756106,5.670731707317073,10,8
87,0.73681640625,-0.482421875,-0.1318359375,-4.878048780487806,56.646341463414636,5.365853658536586,10,8
88,0.76806640625,-0.47216796875,-0.15771484375,-2.378048780487805,51.463414634146346,5.670731707317073,10,8
89,0.7431640625,-0.49755859375,-0.130859375,0.0,49.268292682926834,5.670731707317073,10,8
90,0.7275390625,-0.51171875,-0.1162109375,0.7317073170731708,48.170731707317074,5.609756097560976,10,8
91,0.73046875,-0.47509765625,-0.11669921875,-1.9512195121951221,48.04878048780488,4.939024390243903,10,8
92,0.7431640625,-0.44140625,-0.1259765625,-5.487804878048781,49.024390243902445,2.987804878048781,10,8
93,0.740234375,-0.4326171875,-0.16064453125,-9.390243902439025,49.268292682926834,1.5853658536585367,10,8
94,0.740234375,-0.4521484375,-0.19873046875,-13.109756097560977,49.024390243902445,0.9756097560975611,10,8
95,0.73388671875,-0.46240234375,-0.22607421875,-17.134146341463417,48.41463414634147,0.06097560975609757,10,8
96,0.73486328125,-0.4609375,-0.22216796875,-21.402439024390247,48.59756097560976,-1.2804878048780488,10,8
97,0.74560546875,-0.4443359375,-0.22119140625,-25.60975609756098,49.69512195121952,-2.682926829268293,10,8
98,0.73583984375,-0.43603515625,-0.22021484375,-28.658536585365855,50.1219512195122,-3.8414634146341466,10,8
99,0.73291015625,-0.4501953125,-0.1708984375,-29.146341463414636,48.84146341463415,-3.1097560975609757,10,8
100,0.7236328125,-0.48291015625,-0.17919921875,-26.646341463414636,45.243902439024396,-3.231707317073171,10,8
101,0.6865234375,-0.50537109375,-0.19775390625,-24.390243902439025,42.19512195121951,-2.8658536585365857,10,8
102,0.7001953125,-0.48779296875,-0.22216796875,-21.402439024390247,38.78048780487805,-2.3170731707317076,10,8
103,0.7138671875,-0.431640625,-0.24169921875,-22.25609756097561,37.43902439024391,-2.9268292682926833,10,8
104,0.73974609375,-0.38818359375,-0.22314453125,-27.80487804878049,39.69512195121951,-3.963414634146342,10,8
105,0.72412109375,-0.37646484375,-0.21630859375,-36.15853658536586,41.951219512195124,-5.548780487804878,10,8
106,0.6826171875,-0.392578125,-0.22021484375,-41.951219512195124,42.6829268292683,-7.682926829268293,10,8
107,0.6591796875,-0.42138671875,-0.18994140625,-43.65853658536586,41.40243902439025,-8.78048780487805,10,8
108,0.662109375,-0.42919921875,-0.1875,-42.43902439024391,36.707317073170735,-10.30487804878049,10,8
109,0.64794921875,-0.42724609375,-0.173828125,-37.987804878048784,30.182926829268297,-10.670731707317074,10,8
110,0.62841796875,-0.4521484375,-0.16259765625,-33.29268292682927,24.695121951219516,-11.158536585365855,10,8
111,0.6416015625,-0.41943359375,-0.1513671875,-29.32926829268293,20.79268292682927,-11.463414634146343,10,8
112,0.64501953125,-0.41650390625,-0.1513671875,-27.926829268292686,18.53658536585366,-12.256097560975611,10,8
113,0.658203125,-0.3798828125,-0.17822265625,-29.39024390243903,17.865853658536587,-13.597560975609758,10,8
114,0.65966796875,-0.361328125,-0.1611328125,-32.07317073170732,17.378048780487806,-14.146341463414636,10,8
115,0.68896484375,-0.34521484375,-0.16748046875,-35.30487804878049,17.073170731707318,-15.365853658536587,10,8
116,0.697265625,-0.33251953125,-0.20166015625,-38.53658536585366,16.890243902439025,-17.134146341463417,10,8
117,0.69775390625,-0.294921875,-0.267578125,-43.35365853658537,17.25609756097561,-19.26829268292683,10,8
118,0.71142578125,-0.27734375,-0.24658203125,-48.84146341463415,17.682926829268293,-21.646341463414636,10,8
119,0.71923828125,-0.2802734375,-0.2255859375,-52.804878048780495,17.31707317073171,-22.621951219512198,10,8
120,0.69287109375,-0.330078125,-0.236328125,-55.426829268292686,16.890243902439025,-23.29268292682927,10,8
121,0.6640625,-0.35498046875,-0.2255859375,-56.40243902439025,15.609756097560977,-23.353658536585368,10,8
122,0.6796875,-0.34033203125,-0.2158203125,-56.34146341463415,14.329268292682928,-23.353658536585368,10,8
123,0.7255859375,-0.29296875,-0.23779296875,-58.41463414634147,14.329268292682928,-24.634146341463417,10,8
124,0.62744140625,-0.1279296875,-0.25146484375,-66.76829268292684,16.219512195121954,-27.25609756097561,10,8
125,0.7587890625,-0.22802734375,-0.23876953125,-74.39024390243902,19.695121951219512,-29.32926829268293,10,8
126,0.775390625,-0.212890625,-0.130859375,-81.40243902439025,22.378048780487806,-31.82926829268293,10,8
127,0.7890625,-0.2236328125,-0.2607421875,-86.89024390243904,23.29268292682927,-34.51219512195122,10,8
128,0.7939453125,-0.22607421875,-0.28564453125,-90.97560975609757,24.451219512195124,-36.768292682926834,10,8
129,0.7900390625,-0.24462890625,-0.259765625,-94.75609756097562,25.243902439024392,-38.90243902439025,10,8
130,0.79052734375,-0.23046875,-0.255859375,-99.51219512195122,25.792682926829272,-41.15853658536586,10,8
131,0.796875,-0.2177734375,-0.25732421875,-104.81707317073172,28.10975609756098,-44.57317073170732,10,8
132,0.8154296875,-0.18896484375,-0.2587890625,-111.03658536585367,29.75609756097561,-46.58536585365854,10,8
133,0.81396484375,-0.21826171875,-0.2548828125,-113.71951219512196,30.243902439024392,-48.84146341463415,10,8
134,0.837890625,-0.22216796875,-0.24169921875,-114.81707317073172,30.426829268292686,-50.91463414634147,10,8
135,0.8525390625,-0.2197265625,-0.12744140625,-116.76829268292684,29.634146341463417,-52.43902439024391,10,8
136,0.8505859375,-0.22021484375,-0.2880859375,-119.32926829268294,29.32926829268293,-54.87804878048781,10,8
137,0.8525390625,-0.22021484375,-0.30419921875,-121.82926829268294,27.865853658536587,-57.560975609756106,10,8
138,0.751953125,-0.1982421875,-0.3095703125,-123.29268292682927,26.646341463414636,-60.365853658536594,10,8
139,0.89501953125,-0.22119140625,-0.31982421875,-125.2439024390244,26.463414634146343,-63.35365853658537,10,8
140,0.87890625,-0.2373046875,-0.31884765625,-127.6829268292683,27.073170731707318,-65.3048780487805,10,8
141,0.86083984375,-0.22998046875,-0.318359375,-131.21951219512195,28.59756097560976,-67.5,10,8
142,0.8857421875,-0.19970703125,-0.314453125,-135.6707317073171,30.243902439024392,-70.48780487804879,10,8
143,0.904296875,-0.15625,-0.30029296875,-139.39024390243904,30.365853658536587,-72.92682926829269,10,8
144,0.9140625,-0.16650390625,-0.31884765625,-143.109756097561,30.54878048780488,-75.0609756097561,10,8
145,0.90234375,-0.18701171875,-0.35009765625,-145.1219512195122,30.426829268292686,-78.04878048780489,10,8
146,0.92626953125,-0.17236328125,-0.3486328125,-146.40243902439025,30.853658536585368,-80.1829268292683,10,8
147,0.93505859375,-0.1904296875,-0.3232421875,-149.14634146341464,31.76829268292683,-82.43902439024392,10,8
148,0.9482421875,-0.201171875,-0.33544921875,-151.76829268292684,32.19512195121951,-85.1829268292683,10,8
149,0.9794921875,-0.158203125,-0.2509765625,-153.65853658536588,32.13414634146342,-89.02439024390245,10,8
150,1.0029296875,-0.11669921875,-0.36669921875,-157.01219512195124,33.71951219512196,-92.6219512195122,10,8
151,1.02197265625,-0.12451171875,-0.3955078125,-162.25609756097563,35.0,-96.28048780487806,10,8
152,1.0234375,-0.1318359375,-0.39794921875,-166.09756097560978,35.426829268292686,-100.1829268292683,10,8
153,1.04296875,-0.13037109375,-0.4072265625,-167.43902439024393,34.81707317073171,-104.26829268292684,10,8
154,1.0625,-0.10986328125,-0.4248046875,-168.2317073170732,34.146341463414636,-108.71951219512196,10,8
155,1.078125,-0.08740234375,-0.4296875,-170.6707317073171,35.0609756097561,-112.98780487804879,10,8
156,1.0751953125,-0.06103515625,-0.43408203125,-175.7317073170732,37.01219512195122,-117.8048780487805,10,8
157,1.0986328125,-0.02734375,-0.439453125,-180.85365853658539,38.04878048780488,-123.23170731707319,10,8
158,1.1171875,-0.02392578125,-0.48779296875,-186.34146341463415,40.1219512195122,-129.51219512195124,10,8
159,1.1455078125,-0.029296875,-0.505859375,-189.39024390243904,41.646341463414636,-134.75609756097563,10,8
160,1.1728515625,-0.056640625,-0.49560546875,-191.28048780487808,42.19512195121951,-140.1829268292683,10,8
161,1.20361328125,-0.037109375,-0.48779296875,-192.25609756097563,41.646341463414636,-145.609756097561,10,8
162,1.22119140625,-0.03564453125,-0.51123046875,-194.08536585365854,40.487804878048784,-148.90243902439025,10,8
163,1.1875,-0.07763671875,-0.51611328125,-194.14634146341464,39.32926829268293,-153.2926829268293,10,8
164,1.228515625,-0.03271484375,-0.515625,-192.9878048780488,39.146341463414636,-158.78048780487805,10,8
165,1.2861328125,0.0537109375,-0.5224609375,-195.7317073170732,42.07317073170732,-165.5487804878049,10,8
166,1.328125,0.078125,-0.53515625,-199.32926829268294,44.268292682926834,-172.9878048780488,10,8
167,1.35888671875,0.099609375,-0.513671875,-200.3048780487805,42.926829268292686,-177.7439024390244,10,8
168,1.33984375,0.0615234375,-0.4306640625,-197.6829268292683,43.23170731707317,-182.9878048780488,10,8
169,1.4013671875,0.0625,-0.39697265625,-190.4268292682927,40.36585365853659,-186.46341463414635,10,8
170,1.42578125,0.07373046875,-0.38525390625,-183.53658536585368,38.23170731707317,-189.87804878048783,10,8
171,1.490234375,0.00244140625,-0.3828125,-180.00000000000003,37.5,-193.84146341463418,10,8
172,1.55419921875,0.166015625,-0.2529296875,-176.40243902439025,34.93902439024391,-198.96341463414635,10,8
173,1.62890625,0.2294921875,-0.49267578125,-173.78048780487808,32.86585365853659,-201.46341463414635,10,8
174,1.6474609375,0.18701171875,-0.3798828125,-174.02439024390245,32.31707317073171,-204.93902439024393,10,8
175,1.654296875,0.17333984375,-0.40673828125,-175.2439024390244,34.146341463414636,-209.69512195121953,10,8
176,1.66015625,0.197265625,-0.4384765625,-175.7926829268293,33.65853658536586,-213.41463414634148,10,8
177,1.630859375,0.20166015625,-0.39501953125,-175.4878048780488,33.53658536585366,-217.13414634146343,10,8
178,1.65283203125,0.22216796875,-0.37451171875,-173.2317073170732,33.53658536585366,-221.21951219512198,10,8
179,1.68212890625,0.2939453125,-0.3291015625,-171.82926829268294,33.29268292682927,-225.18292682926833,10,8
180,1.65771484375,0.302734375,-0.3427734375,-171.58536585365854,33.84146341463415,-229.51219512195124,10,8
181,1.630859375,0.30712890625,-0.26025390625,-168.109756097561,33.53658536585366,-218.90243902439028,10,8
182,1.6484375,0.35498046875,-0.189453125,-164.51219512195124,32.80487804878049,-238.53658536585368,10,8
183,1.65869140625,0.3701171875,-0.13134765625,-161.82926829268294,32.25609756097561,-242.31707317073173,10,8
184,1.6552734375,0.3466796875,-0.091796875,-160.7926829268293,32.5,-247.50000000000003,10,8
185,1.62158203125,0.326171875,-0.0390625,-154.63414634146343,30.182926829268297,-250.4268292682927,10,8
186,1.57421875,0.3115234375,-0.025390625,-144.75609756097563,26.707317073170735,-252.43902439024393,10,8
187,1.583984375,0.34619140625,-0.01123046875,-136.76829268292684,26.34146341463415,-255.5487804878049,10,8
188,1.5634765625,0.3994140625,0.02685546875,-134.51219512195124,26.951219512195124,-256.76829268292687,10,8
189,1.54541015625,0.41845703125,0.01708984375,-134.14634146341464,29.26829268292683,-259.32926829268297,10,8
190,1.54150390625,0.44189453125,0.05126953125,-132.37804878048783,31.951219512195124,-260.6707317073171,10,8
191,1.5537109375,0.4345703125,0.083984375,-130.4878048780488,35.79268292682927,-262.7439024390244,10,8
192,1.56591796875,0.40771484375,0.1103515625,-128.84146341463415,39.146341463414636,-250.00000000000003,10,8
193,1.5751953125,0.49951171875,0.12451171875,-123.47560975609757,40.426829268292686,-268.2926829268293,10,8
194,1.6279296875,0.384765625,0.12646484375,-115.3048780487805,38.29268292682927,-272.3780487804878,10,8
195,1.50146484375,0.42236328125,0.10009765625,-112.37804878048782,39.268292682926834,-275.5487804878049,10,8
196,1.615234375,0.38818359375,0.080078125,-113.53658536585367,40.0609756097561,-277.4390243902439,10,8
197,1.59814453125,0.35400390625,0.0595703125,-114.08536585365854,43.41463414634147,-278.3536585365854,10,8
198,1.533203125,0.267578125,0.0791015625,-113.47560975609757,47.25609756097561,-277.7439024390244,10,8
199,1.42626953125,0.201171875,0.0751953125,-112.37804878048782,49.51219512195122,-275.3658536585366,10,8
200,1.3330078125,0.142578125,0.0791015625,-108.47560975609757,51.646341463414636,-274.1463414634147,10,8
201,1.2578125,0.11083984375,0.06005859375,-103.35365853658537,53.41463414634147,-271.89024390243907,10,8
202,1.185546875,0.08056640625,0.0615234375,-98.59756097560977,54.63414634146342,-268.8414634146342,10,8
203,1.10693359375,0.04931640625,0.10205078125,-91.40243902439025,56.15853658536586,-267.25609756097566,10,8
204,1.041015625,0.05517578125,0.169921875,-83.90243902439025,54.75609756097561,-265.0,10,8
205,0.9990234375,0.06591796875,0.1884765625,-75.0,52.25609756097561,-264.45121951219517,10,8
206,1.0126953125,0.1005859375,0.22216796875,-68.10975609756098,50.00000000000001,-261.219512195122,10,8
207,0.96337890625,0.0263671875,0.216796875,-67.5,52.01219512195122,-257.9878048780488,10,8
208,0.90185546875,-0.0595703125,0.12451171875,-67.01219512195122,52.13414634146342,-254.57317073170734,10,8
209,0.82080078125,-0.12109375,0.142578125,-60.85365853658537,52.25609756097561,-249.81707317073173,10,8
210,0.7607421875,-0.17138671875,0.19775390625,-51.646341463414636,48.47560975609756,-244.45121951219514,10,8
211,0.69921875,-0.21923828125,0.17041015625,-39.207317073170735,44.451219512195124,-241.34146341463418,10,8
212,0.66845703125,-0.2587890625,0.21337890625,-29.939024390243905,41.646341463414636,-235.91463414634148,10,8
213,0.578125,-0.318359375,0.3671875,-21.097560975609756,37.5609756097561,-228.90243902439028,10,8
214,0.54833984375,-0.3095703125,0.248046875,-12.073170731707318,33.35365853658537,-221.03658536585368,10,8
215,0.4404296875,-0.25048828125,0.3271484375,-11.097560975609756,36.58536585365854,-212.56097560975613,10,8
216,0.35595703125,-0.48193359375,0.328125,-15.54878048780488,39.32926829268293,-217.8658536585366,10,8
217,0.36669921875,-0.5673828125,0.30810546875,-20.30487804878049,43.41463414634147,-189.57317073170734,10,8
218,0.1025390625,-0.69873046875,0.2685546875,-25.54878048780488,47.5609756097561,-176.82926829268294,10,8
219,0.12109375,-0.8427734375,0.28271484375,-26.58536585365854,52.6219512195122,-162.25609756097563,10,8
220,-0.10009765625,-0.97802734375,0.32373046875,-26.58536585365854,54.451219512195124,-144.69512195121953,10,8
221,-0.25732421875,-1.11474609375,0.29443359375,-23.658536585365855,55.243902439024396,-127.25609756097562,10,8
222,-0.42626953125,-1.2177734375,0.2998046875,-21.951219512195124,51.89024390243903,-111.21951219512196,10,8
223,-0.50439453125,-1.3017578125,0.3193359375,-17.378048780487806,49.63414634146342,-93.71951219512196,10,8
224,-0.580078125,-1.3330078125,0.43212890625,-14.817073170731708,49.93902439024391,-92.37804878048782,10,8
225,-0.658203125,-1.3994140625,0.57861328125,-14.51219512195122,51.03658536585366,-57.25609756097561,10,8
226,-0.76904296875,-1.55615234375,0.62353515625,-31.09756097560976,52.07317073170732,-35.1219512195122,10,8
227,-0.8134765625,-1.74462890625,0.42822265625,-9.573170731707318,49.81707317073171,-11.951219512195124,10,8
228,-0.849609375,-1.900390625,0.4013671875,3.780487804878049,45.36585365853659,13.536585365853659,10,8
229,-0.80517578125,-1.95263671875,0.400390625,18.84146341463415,44.57317073170732,37.31707317073171,10,8
230,-0.74609375,-1.9892578125,0.3251953125,29.26829268292683,41.82926829268293,46.82926829268293,10,8
231,-0.77197265625,-2.0576171875,0.20703125,38.963414634146346,39.451219512195124,85.67073170731707,10,8
232,-0.6943359375,-2.083984375,0.22314453125,48.90243902439025,38.04878048780488,107.07317073170732,10,8
233,-0.580078125,-2.14208984375,0.18994140625,54.87804878048781,38.71951219512196,131.40243902439025,10,8
234,-0.486328125,-2.19580078125,0.2109375,61.768292682926834,36.707317073170735,155.3658536585366,10,8
235,-0.32421875,-2.23291015625,0.18408203125,72.98780487804879,33.78048780487805,176.64634146341464,10,8
236,-0.14208984375,-2.25341796875,0.1982421875,83.10975609756099,30.243902439024392,196.40243902439025,10,8
237,0.02978515625,-2.30615234375,0.21044921875,92.98780487804879,26.402439024390247,218.109756097561,10,8
238,0.13720703125,-2.4306640625,0.185546875,103.71951219512196,25.0609756097561,243.35365853658539,10,8
239,0.21533203125,-2.52978515625,0.15185546875,111.09756097560977,23.658536585365855,268.0487804878049,10,8
240,0.34619140625,-2.5986328125,0.123046875,110.3048780487805,27.31707317073171,294.32926829268297,10,8
241,0.39208984375,-2.72021484375,0.076171875,102.50000000000001,35.0,312.6219512195122,10,8
242,0.705078125,-2.93505859375,0.00732421875,92.25609756097562,40.304878048780495,367.19512195121956,10,8
243,0.8916015625,-3.21337890625,-0.0478515625,89.14634146341464,42.01219512195122,392.8658536585366,10,8
244,1.20068359375,-3.4599609375,-0.0302734375,100.67073170731709,37.25609756097561,448.2317073170732,10,8
245,1.5068359375,-3.60693359375,-0.12255859375,117.37804878048782,16.82926829268293,488.10975609756105,10,8
246,2.009765625,-3.81884765625,-0.29833984375,148.1707317073171,2.1951219512195124,515.8536585365854,10,8
247,2.74267578125,-4.01123046875,-0.728515625,184.14634146341464,-18.963414634146343,572.9268292682927,10,8
248,3.30712890625,-4.2412109375,-0.947265625,231.34146341463418,-28.53658536585366,614.0243902439025,10,8
249,4.03466796875,-4.455078125,-1.04931640625,281.3414634146342,-39.451219512195124,649.5731707317074,10,8
250,4.77880859375,-4.87451171875,-1.35302734375,383.3536585365854,-34.32926829268293,672.3780487804879,10,8
251,5.52294921875,-5.15771484375,-1.4130859375,448.719512195122,-22.073170731707318,702.6219512195123,10,8
252,6.263671875,-5.45947265625,-1.4306640625,507.07317073170736,-15.609756097560977,742.3780487804879,10,8
253,6.90478515625,-5.51513671875,-1.64501953125,525.4878048780488,18.78048780487805,779.3902439024391,10,8
254,7.5673828125,-5.59912109375,-2.42333984375,524.7560975609756,42.25609756097561,815.4878048780489,10,8
255,8.267578125,-5.61572265625,-3.337890625,532.9878048780488,58.84146341463415,828.2317073170732,10,8
256,9.232421875,-5.60986328125,-4.2578125,537.0731707317074,83.17073170731707,856.0365853658537,10,8
257,10.85009765625,-4.9423828125,-4.88232421875,572.6219512195122,95.3048780487805,863.4146341463415,10,8
258,12.0947265625,-3.78271484375,-5.99951171875,602.5609756097562,111.52439024390245,879.3902439024391,10,8
259,13.2119140625,-2.36865234375,-6.080078125,590.1829268292684,154.14634146341464,874.0853658536586,10,8
260,13.32421875,-1.23583984375,-5.71875,598.1707317073171,99.69512195121952,825.6707317073171,10,8
261,13.29150390625,-0.1708984375,-5.44775390625,652.0731707317074,46.463414634146346,781.1585365853659,10,8
262,10.90966796875,-0.49462890625,-4.9296875,700.3048780487806,-50.670731707317074,744.5121951219513,10,8
263,9.34521484375,-1.38232421875,-4.8037109375,765.4878048780488,-207.62195121951223,722.8658536585366,10,8
264,6.462890625,-3.2197265625,-4.97509765625,1001.5243902439025,-410.30487804878055,700.548780487805,10,8
265,4.15771484375,-1.82666015625,-0.181640625,1997.987804878049,-547.8048780487806,867.7439024390245,10,8
266,-7.51123046875,-16.0,-16.0,1861.829268292683,-1992.9268292682927,-323.719512195122,10,8
267,15.99951171875,15.99951171875,-16.0,1701.4024390243903,-371.2804878048781,1328.5365853658539,10,8
268,-9.25,-16.0,8.11962890625,664.939024390244,-180.4878048780488,-37.01219512195122,10,8
269,7.52880859375,-2.5791015625,-6.4560546875,1780.1219512195123,-429.0243902439025,-150.0,10,8
270,11.3095703125,5.10986328125,4.0361328125,1210.4878048780488,-172.50000000000003,-491.2804878048781,10,8
271,9.6611328125,1.349609375,0.30712890625,965.3658536585367,35.426829268292686,-505.54878048780495,10,8
272,2.546875,-0.55712890625,1.94189453125,974.4512195121952,-33.78048780487805,-440.609756097561,10,8
273,4.43310546875,-2.65087890625,-0.416015625,810.4268292682927,72.31707317073172,-535.0,10,8
274,5.9833984375,-2.37353515625,-1.45556640625,610.2439024390244,111.64634146341464,-589.8780487804878,10,8
275,4.42041015625,-4.1630859375,-2.37646484375,483.109756097561,119.63414634146342,-633.048780487805,10,8
276,4.529296875,-2.9384765625,-2.43603515625,387.07317073170736,147.9268292682927,-685.9756097560976,10,8
277,4.40185546875,-3.3115234375,-2.900390625,350.7317073170732,120.60975609756099,-768.5975609756098,10,8
278,4.33251953125,-3.20849609375,-2.90966796875,236.46341463414637,185.609756097561,-810.7317073170732,10,8
279,3.66650390625,-2.98876953125,-2.35791015625,184.02439024390245,238.41463414634148,-799.5121951219513,10,8
280,3.0,-2.728515625,-2.36962890625,119.26829268292684,297.8048780487805,-776.3414634146342,10,8
281,2.84716796875,-2.3857421875,-2.1826171875,55.304878048780495,387.19512195121956,-742.3780487804879,10,8
282,2.39990234375,-2.158203125,-2.1982421875,9.817073170731708,433.9024390243903,-716.9512195121952,10,8
283,2.02587890625,-2.15673828125,-2.30322265625,-0.9146341463414634,455.24390243902445,-663.5975609756098,10,8
284,2.20361328125,-1.9697265625,-2.35693359375,-41.09756097560976,463.719512195122,-638.7804878048781,10,8
285,2.21630859375,-1.57373046875,-2.3125,-60.243902439024396,457.25609756097566,-588.1707317073171,10,8
286,1.9853515625,-1.619140625,-2.49853515625,-88.41463414634147,439.20731707317077,-556.8902439024391,10,8
287,1.99560546875,-1.46435546875,-2.19287109375,-94.75609756097562,429.63414634146346,-546.2804878048781,10,8
288,1.71142578125,-1.36181640625,-1.84228515625,-135.1219512195122,414.39024390243907,-512.6829268292684,10,8
289,1.556640625,-1.1220703125,-1.83203125,-152.07317073170734,405.3048780487805,-489.1463414634147,10,8
290,1.52001953125,-1.10400390625,-2.06396484375,-170.1829268292683,401.5243902439025,-482.98780487804885,10,8
291,1.52099609375,-0.9033203125,-2.05322265625,-180.06097560975613,405.3048780487805,-456.5243902439025,10,8
292,1.30419921875,-0.90576171875,-1.89990234375,-179.81707317073173,382.9268292682927,-434.87804878048786,10,8
293,0.984375,-0.9736328125,-1.63720703125,-179.26829268292684,377.7439024390244,-436.89024390243907,10,8
294,0.9072265625,-0.81787109375,-1.5029296875,-192.01219512195124,373.109756097561,-409.75609756097566,10,8
295,0.93017578125,-0.46533203125,-1.83154296875,-202.9268292682927,366.3414634146342,-395.4878048780488,10,8
296,1.03564453125,-0.359375,-2.04296875,-214.87804878048783,355.609756097561,-368.2317073170732,10,8
297,0.8759765625,-0.5419921875,-2.17578125,-228.90243902439028,338.2317073170732,-334.20731707317077,10,8
298,0.77001953125,-0.6240234375,-2.34326171875,-242.50000000000003,342.50000000000006,-304.20731707317077,10,8
299,0.6240234375,-1.04833984375,-2.09228515625,-256.6463414634147,302.37804878048786,-274.8780487804878,10,8
300,0.1591796875,-1.11083984375,-1.73876953125,-257.3780487804878,295.6707317073171,-254.69512195121953,10,8
301,-0.04638671875,-0.92529296875,-1.171875,-254.81707317073173,254.75609756097563,-243.1707317073171,10,8
302,-0.23046875,-0.8583984375,-0.81640625,-269.8780487804878,243.47560975609758,-235.91463414634148,10,8
303,-0.2177734375,-0.45556640625,-0.841796875,-290.7926829268293,240.12195121951223,-229.20731707317074,10,8
304,-0.0361328125,-0.1875,-0.87841796875,-311.1585365853659,240.609756097561,-220.6707317073171,10,8
305,0.0263671875,-0.10107421875,-1.15185546875,-321.6463414634147,231.46341463414637,-208.59756097560978,10,8
306,-0.17333984375,-0.29150390625,-1.27197265625,-320.1219512195122,223.109756097561,-196.82926829268294,10,8
307,-0.41455078125,-0.560546875,-1.189453125,-304.9390243902439,207.8048780487805,-181.46341463414635,10,8
308,-0.64306640625,-0.66015625,-1.10693359375,-279.1463414634147,193.71951219512198,-164.14634146341464,10,8
309,-0.65380859375,-0.7099609375,-0.962890625,-266.219512195122,187.7439024390244,-155.2439024390244,10,8
310,-0.9775390625,-0.87109375,-0.857421875,-260.1829268292683,170.3658536585366,-142.19512195121953,10,8
311,-0.6845703125,-0.46630859375,-0.7333984375,-236.15853658536588,149.81707317073173,-129.08536585365854,10,8
312,-0.73291015625,-0.25634765625,-0.73095703125,-230.18292682926833,145.97560975609758,-127.50000000000001,10,8
313,-0.91748046875,-0.26171875,-0.77783203125,-225.5487804878049,139.81707317073173,-115.85365853658537,10,8
314,-0.86669921875,-0.16064453125,-0.9228515625,-225.3658536585366,145.1829268292683,-103.65853658536587,10,8
315,-0.802734375,-0.1005859375,-0.982421875,-229.14634146341464,144.32926829268294,-94.93902439024392,10,8
316,-0.75830078125,-0.2255859375,-0.97119140625,-222.13414634146343,155.7926829268293,-85.42682926829269,10,8
317,-1.0078125,-0.33837890625,-1.056640625,-214.51219512195124,130.609756097561,-80.48780487804879,10,8
318,-1.11279296875,-0.396484375,-1.0341796875,-193.2926829268293,112.19512195121952,-71.40243902439025,10,8
319,-1.18310546875,-0.37841796875,-0.88427734375,-175.609756097561,98.17073170731709,-56.646341463414636,10,8
320,-1.291015625,-0.4287109375,-0.74951171875,-162.7439024390244,88.90243902439025,-45.60975609756098,10,8
321,-1.31884765625,-0.34619140625,-0.72265625,-158.41463414634148,76.15853658536587,-40.97560975609756,10,8
322,-1.2421875,-0.36962890625,-0.88916015625,-154.69512195121953,63.78048780487806,-38.65853658536586,10,8
323,-1.13720703125,-0.1630859375,-0.8994140625,-144.9390243902439,54.87804878048781,-35.30487804878049,10,8
324,-1.06884765625,-0.17919921875,-0.828125,-141.76829268292684,47.01219512195122,-30.000000000000004,10,8
325,-1.10693359375,-0.2431640625,-0.755859375,-137.8048780487805,39.32926829268293,-22.25609756097561,10,8
326,-1.197265625,-0.35107421875,-0.75830078125,-134.63414634146343,28.10975609756098,-18.78048780487805,10,8
327,-1.236328125,-0.39599609375,-0.91650390625,-128.35365853658539,16.03658536585366,-16.097560975609756,10,8
328,-1.19970703125,-0.3876953125,-0.9970703125,-112.56097560975611,5.487804878048781,-11.463414634146343,10,8
329,-1.2099609375,-0.4912109375,-0.794921875,-99.20731707317074,-7.987804878048781,-4.573170731707317,10,8
330,-1.12841796875,-0.400390625,-0.73193359375,-86.64634146341464,-18.29268292682927,0.6097560975609757,10,8
331,-1.28369140625,-0.4072265625,-0.6884765625,-76.95121951219512,-26.28048780487805,7.621951219512196,10,8
332,-1.3046875,-0.39013671875,-0.67822265625,-71.03658536585367,-34.32926829268293,15.426829268292684,10,8
333,-1.34423828125,-0.4306640625,-0.69775390625,-64.87804878048782,-39.63414634146342,23.475609756097562,10,8
334,-1.38330078125,-0.48876953125,-0.66650390625,-58.10975609756098,-44.87804878048781,15.670731707317074,10,8
335,-1.41162109375,-0.48828125,-0.630859375,-50.487804878048784,-50.79268292682927,39.57317073170732,10,8
336,-1.404296875,-0.47119140625,-0.63720703125,-42.6829268292683,-55.97560975609757,47.50000000000001,10,8
337,-1.33154296875,-0.42626953125,-0.6484375,-33.53658536585366,-60.67073170731708,53.71951219512196,10,8
338,-1.3681640625,-0.365234375,-0.6240234375,-23.78048780487805,-65.1829268292683,59.146341463414636,10,8
339,-1.15869140625,-0.30810546875,-0.5634765625,-13.841463414634148,-69.39024390243902,63.35365853658537,10,8
340,-1.10791015625,-0.2177734375,-0.5224609375,-7.073170731707318,-73.71951219512195,67.01219512195122,10,8
341,-1.0751953125,-0.14208984375,-0.47216796875,-1.6463414634146343,-76.89024390243902,69.32926829268293,10,8
342,-1.0576171875,-0.1005859375,-0.45703125,5.182926829268293,-80.42682926829269,69.63414634146342,10,8
343,-1.0517578125,-0.0712890625,-0.39990234375,12.560975609756099,-82.01219512195122,68.84146341463415,10,8
344,-1.0478515625,-0.03564453125,-0.3310546875,18.78048780487805,-83.23170731707317,68.23170731707317,10,8
345,-1.0380859375,-0.0029296875,-0.29052734375,23.29268292682927,-84.57317073170732,68.71951219512195,10,8
346,-1.044921875,0.00146484375,-0.3046875,27.31707317073171,-86.34146341463415,68.90243902439025,10,8
347,-1.07958984375,-0.01904296875,-0.3173828125,32.43902439024391,-89.02439024390245,67.5,10,8
348,-1.11279296875,-0.02197265625,-0.31884765625,38.90243902439025,-92.25609756097562,66.52439024390245,10,8
349,-1.130859375,-0.02294921875,-0.3037109375,44.51219512195122,-94.63414634146342,66.03658536585367,10,8
350,-1.14501953125,-0.0068359375,-0.2744140625,49.32926829268293,-96.28048780487806,66.70731707317074,10,8
351,-1.14990234375,0.009765625,-0.240234375,52.926829268292686,-96.52439024390245,67.43902439024392,10,8
352,-1.1787109375,0.005859375,-0.1806640625,52.6829268292683,-97.98780487804879,68.04878048780489,10,8
353,-1.2109375,0.00390625,-0.16748046875,51.82926829268293,-100.2439024390244,67.8048780487805,10,8
354,-1.20849609375,0.03369140625,-0.169921875,51.82926829268293,-102.8658536585366,67.31707317073172,10,8
355,-1.1904296875,0.05810546875,-0.17431640625,53.78048780487806,-105.42682926829269,68.59756097560977,10,8
356,-1.162109375,0.0751953125,-0.16650390625,55.426829268292686,-107.31707317073172,69.75609756097562,10,8
357,-1.15673828125,0.1044921875,-0.1533203125,57.01219512195122,-108.78048780487806,70.48780487804879,10,8
358,-1.1298828125,0.11181640625,-0.13720703125,58.23170731707317,-109.08536585365854,70.0609756097561,10,8
359,-1.134765625,0.13818359375,-0.0986328125,58.53658536585366,-93.71951219512196,70.1829268292683,10,8
360,-1.12109375,0.1728515625,-0.06787109375,60.060975609756106,-110.91463414634147,69.51219512195122,10,8
361,-1.0947265625,0.20068359375,-0.06005859375,46.82926829268293,-113.65853658536587,67.92682926829269,10,8
362,-1.08251953125,0.21728515625,-0.029296875,64.20731707317074,-115.1829268292683,65.60975609756098,10,8
363,-1.076171875,0.2294921875,0.01708984375,63.35365853658537,-115.00000000000001,62.50000000000001,10,8
364,-1.05908203125,0.24755859375,0.03271484375,61.463414634146346,-115.3048780487805,60.243902439024396,10,8
365,-1.04931640625,0.2578125,0.03759765625,61.34146341463415,-117.07317073170732,58.59756097560976,10,8
366,-1.041015625,0.2548828125,0.0302734375,62.987804878048784,-120.1829268292683,57.43902439024391,10,8
367,-1.01513671875,0.25390625,0.0185546875,66.34146341463415,-125.97560975609757,55.97560975609757,10,8
368,-1.01220703125,0.22216796875,0.0439453125,68.65853658536587,-128.2317073170732,53.29268292682927,10,8
369,-0.990234375,0.21728515625,0.04931640625,69.51219512195122,-129.57317073170734,50.85365853658537,10,8
370,-0.95654296875,0.2099609375,0.06591796875,70.0609756097561,-129.81707317073173,49.87804878048781,10,8
371,-0.93017578125,0.208984375,0.08935546875,68.65853658536587,-129.75609756097563,49.39024390243903,10,8
372,-0.92236328125,0.19580078125,0.1181640625,66.15853658536587,-128.71951219512195,48.84146341463415,10,8
373,-0.90771484375,0.21630859375,0.2490234375,62.25609756097562,-128.1707317073171,48.29268292682927,10,8
374,-0.89306640625,0.2373046875,0.13818359375,60.487804878048784,-128.41463414634148,47.6829268292683,10,8
375,-0.8759765625,0.251953125,0.1474609375,58.84146341463415,-129.32926829268294,47.19512195121952,10,8
376,-0.861328125,0.37451171875,0.1572265625,58.53658536585366,-130.5487804878049,46.768292682926834,10,8
377,-0.84521484375,0.25244140625,0.1455078125,59.57317073170732,-132.5,45.73170731707317,10,8
378,-0.8310546875,0.24658203125,0.18408203125,60.97560975609757,-133.53658536585368,45.426829268292686,10,8
379,-0.80078125,0.26806640625,0.18603515625,61.95121951219513,-135.2439024390244,45.243902439024396,10,8
380,-0.77001953125,0.27294921875,0.17431640625,61.15853658536586,-135.4268292682927,44.75609756097561,10,8
381,-0.7744140625,0.26953125,0.18310546875,60.060975609756106,-135.4268292682927,43.78048780487805,10,8
382,-0.77734375,0.25048828125,0.21826171875,59.146341463414636,-136.34146341463415,43.84146341463415,10,8
383,-0.771484375,0.248046875,0.265625,58.90243902439025,-136.70731707317074,43.41463414634147,10,8
384,-0.75537109375,0.25537109375,0.3173828125,60.00000000000001,-137.01219512195124,42.987804878048784,10,8
385,-0.7392578125,0.25634765625,0.34423828125,59.63414634146342,-136.82926829268294,43.23170731707317,10,8
386,-0.72119140625,0.27880859375,0.337890625,58.84146341463415,-135.5487804878049,42.926829268292686,10,8
387,-0.7109375,0.2939453125,0.3369140625,57.25609756097561,-135.3658536585366,43.963414634146346,10,8
388,-0.71044921875,0.3017578125,0.29443359375,54.93902439024391,-135.3048780487805,44.63414634146342,10,8
389,-0.69921875,0.32470703125,0.3017578125,52.926829268292686,-135.0609756097561,43.90243902439025,10,8
390,-0.69482421875,0.33642578125,0.345703125,51.34146341463415,-135.4878048780488,44.268292682926834,10,8
391,-0.6796875,0.337890625,0.3623046875,49.451219512195124,-134.81707317073173,44.207317073170735,10,8
392,-0.67138671875,0.34130859375,0.38671875,47.19512195121952,-133.71951219512195,43.90243902439025,10,8
393,-0.67041015625,0.3408203125,0.3828125,46.28048780487805,-133.2926829268293,43.78048780487805,10,8
394,-0.6435546875,0.25,0.3974609375,46.15853658536586,-134.14634146341464,43.23170731707317,10,8
395,-0.6220703125,0.376953125,0.40283203125,45.97560975609756,-135.4268292682927,43.23170731707317,10,8
396,-0.6083984375,0.361328125,0.3759765625,45.85365853658537,-137.5609756097561,43.71951219512196,10,8
397,-0.6064453125,0.3466796875,0.35791015625,45.73170731707317,-140.2439024390244,42.804878048780495,10,8
398,-0.611328125,0.361328125,0.38232421875,45.670731707317074,-143.41463414634148,42.19512195121951,10,8
399,-0.61083984375,0.38720703125,0.4580078125,45.36585365853659,-144.69512195121953,41.890243902439025,10,8
400,-0.572265625,0.412109375,0.48291015625,43.41463414634147,-145.7926829268293,42.07317073170732,10,8
401,-0.55908203125,0.4169921875,0.49267578125,39.69512195121951,-143.84146341463415,41.21951219512196,10,8
402,-0.53515625,0.42138671875,0.48095703125,35.73170731707317,-142.07317073170734,41.09756097560976,10,8
403,-0.50732421875,0.43359375,0.47998046875,32.6219512195122,-140.6707317073171,41.28048780487805,10,8
404,-0.47802734375,0.44775390625,0.48095703125,30.243902439024392,-139.69512195121953,41.40243902439025,10,8
405,-0.44384765625,0.466796875,0.46533203125,29.634146341463417,-140.0,41.58536585365854,10,8
406,-0.42724609375,0.44775390625,0.4482421875,29.32926829268293,-140.609756097561,41.82926829268293,10,8
407,-0.40234375,0.447265625,0.46435546875,30.000000000000004,-141.58536585365854,41.768292682926834,10,8
408,-0.39013671875,0.45556640625,0.48974609375,31.52439024390244,-143.78048780487805,42.13414634146342,10,8
409,-0.3603515625,0.47119140625,0.4990234375,32.25609756097561,-145.1829268292683,42.25609756097561,10,8
410,-0.3359375,0.484375,0.5078125,31.58536585365854,-146.52439024390245,41.524390243902445,10,8
411,-0.32080078125,0.494140625,0.52001953125,28.658536585365855,-146.82926829268294,41.21951219512196,10,8
412,-0.31982421875,0.5,0.564453125,24.390243902439025,-145.6707317073171,41.524390243902445,10,8
413,-0.294921875,0.51220703125,0.57666015625,18.719512195121954,-144.08536585365854,40.85365853658537,10,8
414,-0.26318359375,0.52197265625,0.58740234375,14.51219512195122,-143.47560975609758,40.243902439024396,10,8
415,-0.25439453125,0.5087890625,0.60302734375,13.04878048780488,-144.14634146341464,40.36585365853659,10,8
416,-0.24365234375,0.486328125,0.62060546875,13.902439024390246,-145.4268292682927,41.34146341463415,10,8
417,-0.2509765625,0.46044921875,0.6376953125,16.402439024390244,-146.09756097560978,41.707317073170735,10,8
418,-0.24462890625,0.458984375,0.63525390625,20.365853658536587,-147.4390243902439,41.707317073170735,10,8
419,-0.23388671875,0.462890625,0.64990234375,25.0609756097561,-148.65853658536588,42.31707317073171,10,8
420,-0.22412109375,0.4736328125,0.63916015625,27.682926829268297,-149.69512195121953,42.987804878048784,10,8
421,-0.1982421875,0.4990234375,0.6279296875,27.987804878048784,-150.2439024390244,43.78048780487805,10,8
422,-0.16845703125,0.529296875,0.74658203125,25.426829268292686,-149.51219512195124,44.146341463414636,10,8
423,-0.2470703125,0.529296875,0.59716796875,19.512195121951223,-148.2317073170732,43.53658536585366,10,8
424,-0.08056640625,0.54736328125,0.6044921875,13.29268292682927,-147.37804878048783,43.10975609756098,10,8
425,-0.044921875,0.552734375,0.63720703125,8.353658536585366,-147.01219512195124,43.170731707317074,10,8
426,-0.02099609375,0.55810546875,0.65869140625,4.878048780487806,-147.4390243902439,43.10975609756098,10,8
427,-0.00341796875,0.55029296875,0.71142578125,3.353658536585366,-148.65853658536588,42.804878048780495,10,8
428,-0.123046875,0.556640625,0.87255859375,3.658536585365854,-149.20731707317074,41.890243902439025,10,8
429,0.0205078125,0.55712890625,0.763671875,4.573170731707317,-149.51219512195124,40.73170731707317,10,8
430,0.0537109375,0.56982421875,0.7529296875,6.7682926829268295,-150.85365853658539,40.1219512195122,10,8
431,0.07666015625,0.55078125,0.720703125,8.475609756097562,-152.37804878048783,39.81707317073171,10,8
432,0.11181640625,0.55224609375,0.70166015625,10.060975609756099,-153.53658536585368,38.90243902439025,10,8
433,0.1435546875,0.5615234375,0.701171875,10.731707317073171,-154.39024390243904,38.47560975609756,10,8
434,0.18994140625,0.587890625,0.7119140625,10.792682926829269,-154.32926829268294,37.86585365853659,10,8
435,0.2275390625,0.62451171875,0.7158203125,10.0,-153.90243902439025,35.85365853658537,10,8
436,0.26513671875,0.65380859375,0.71435546875,7.926829268292684,-153.84146341463415,34.024390243902445,10,8
437,0.27197265625,0.673828125,0.677734375,4.939024390243903,-155.3658536585366,32.6829268292683,10,8
438,0.25830078125,0.6845703125,0.6953125,1.524390243902439,-157.13414634146343,31.707317073170735,10,8
439,0.2587890625,0.66748046875,0.71484375,-0.48780487804878053,-158.96341463414635,31.158536585365855,10,8
440,0.2431640625,0.63916015625,0.73193359375,-1.7682926829268295,-161.34146341463415,30.731707317073173,10,8
441,0.12548828125,0.6298828125,0.74560546875,-3.048780487804878,-162.5,30.426829268292686,10,8
442,0.2666015625,0.60546875,0.75390625,-5.060975609756098,-161.40243902439025,28.902439024390247,10,8
443,0.30224609375,0.59326171875,0.76611328125,-8.963414634146343,-159.32926829268294,27.926829268292686,10,8
444,0.3203125,0.57666015625,0.7880859375,-11.646341463414634,-157.7439024390244,27.621951219512198,10,8
445,0.3037109375,0.53271484375,0.82666015625,-13.04878048780488,-155.4878048780488,27.439024390243905,10,8
446,0.31591796875,0.525390625,0.82861328125,-11.158536585365855,-153.2926829268293,26.402439024390247,10,8
447,0.33740234375,0.53271484375,0.8349609375,-6.890243902439025,-152.07317073170734,25.853658536585368,10,8
448,0.3583984375,0.56640625,0.8515625,-1.2195121951219514,-152.5,26.402439024390247,10,8
449,0.375,0.5693359375,0.82177734375,1.4634146341463417,-150.609756097561,27.012195121951223,10,8
450,0.39306640625,0.58154296875,0.759765625,0.6707317073170732,-148.35365853658539,26.463414634146343,10,8
451,0.43994140625,0.638671875,0.67431640625,0.3658536585365854,-148.90243902439025,25.48780487804878,10,8
452,0.46435546875,0.66650390625,0.66357421875,1.2195121951219514,-149.69512195121953,24.512195121951223,10,8
453,0.47900390625,0.6494140625,0.66259765625,0.9756097560975611,-151.21951219512195,23.04878048780488,10,8
454,0.52099609375,0.64501953125,0.6591796875,0.3658536585365854,-152.01219512195124,20.60975609756098,10,8
455,0.537109375,0.61572265625,0.7451171875,0.853658536585366,-151.89024390243904,20.0,10,8
456,0.482421875,0.55419921875,0.77099609375,2.25609756097561,-149.81707317073173,17.98780487804878,10,8
457,0.45751953125,0.56298828125,0.7275390625,3.2926829268292686,-148.41463414634148,16.52439024390244,10,8
458,0.4189453125,0.53759765625,0.69287109375,3.231707317073171,-146.52439024390245,16.158536585365855,10,8
459,0.43359375,0.5390625,0.6962890625,5.853658536585367,-146.64634146341464,16.890243902439025,10,8
460,0.431640625,0.51123046875,0.68408203125,10.0,-147.5609756097561,18.353658536585368,10,8
461,0.45556640625,0.50341796875,0.6748046875,0.426829268292683,-148.35365853658539,20.0,10,8
462,0.47265625,0.51220703125,0.66943359375,21.402439024390247,-148.41463414634148,21.158536585365855,10,8
463,0.50048828125,0.53125,0.6533203125,23.475609756097562,-146.89024390243904,23.353658536585368,10,8
464,0.52978515625,0.55712890625,0.63525390625,23.963414634146343,-145.4268292682927,26.463414634146343,10,8
465,0.53125,0.54931640625,0.580078125,21.03658536585366,-143.59756097560978,28.902439024390247,10,8
466,0.5322265625,0.51513671875,0.51513671875,15.609756097560977,-141.28048780487805,29.634146341463417,10,8
467,0.54931640625,0.61767578125,0.43994140625,10.182926829268293,-139.63414634146343,29.26829268292683,10,8
468,0.5849609375,0.4853515625,0.44775390625,5.853658536585367,-139.32926829268294,30.243902439024392,10,8
469,0.595703125,0.45263671875,0.48828125,3.780487804878049,-139.45121951219514,32.6219512195122,10,8
470,0.548828125,0.49365234375,0.52294921875,0.24390243902439027,-138.0487804878049,35.73170731707317,10,8
471,0.498046875,0.306640625,0.53564453125,-1.4634146341463417,-136.15853658536585,38.59756097560976,10,8
472,0.4931640625,0.2880859375,0.56640625,1.7682926829268295,-135.91463414634148,41.03658536585366,10,8
473,0.51318359375,0.29296875,0.61865234375,6.7682926829268295,-136.28048780487805,44.63414634146342,10,8
474,0.53125,0.2822265625,0.583984375,11.76829268292683,-137.31707317073173,50.304878048780495,10,8
475,0.50146484375,0.2275390625,0.5302734375,10.914634146341465,-132.6219512195122,53.10975609756098,10,8
476,0.54638671875,0.12646484375,0.4775390625,5.914634146341464,-125.42682926829269,53.29268292682927,10,8
477,0.638671875,0.298828125,0.4697265625,0.24390243902439027,-120.48780487804879,54.81707317073171,10,8
478,0.68505859375,0.3193359375,0.38671875,-6.341463414634147,-120.91463414634147,58.963414634146346,10,8
479,0.64599609375,0.26318359375,0.31884765625,-11.341463414634147,-119.75609756097562,60.91463414634147,10,8
480,0.66259765625,0.2236328125,0.3154296875,-11.036585365853659,-120.48780487804879,61.646341463414636,10,8
481,0.693359375,0.2333984375,0.33447265625,-7.317073170731708,-121.21951219512196,63.04878048780488,10,8
482,0.7421875,0.216796875,0.36083984375,-11.402439024390246,-117.25609756097562,66.95121951219512,10,8
483,0.7060546875,0.20458984375,0.37255859375,-20.731707317073173,-109.87804878048782,68.90243902439025,10,8
484,0.67578125,0.234375,0.25830078125,-25.30487804878049,-106.15853658536587,72.8658536585366,10,8
485,0.6884765625,0.26220703125,0.546875,-22.439024390243905,-102.6219512195122,75.0609756097561,10,8
486,0.6787109375,0.18115234375,0.53369140625,-24.695121951219516,-95.0609756097561,76.82926829268294,10,8
487,0.70947265625,0.19091796875,0.46533203125,-24.573170731707318,-89.51219512195122,78.10975609756099,10,8
488,0.69140625,0.1796875,0.451171875,-19.146341463414636,-92.13414634146342,80.2439024390244,10,8
489,0.7119140625,0.140625,0.4248046875,-13.536585365853659,-90.67073170731707,77.7439024390244,10,8
490,0.7529296875,0.15283203125,0.38818359375,-5.548780487804878,-92.19512195121952,77.7439024390244,10,8
491,0.7744140625,0.1923828125,0.423828125,5.670731707317073,-94.32926829268294,79.69512195121952,10,8
492,0.794921875,0.19580078125,0.41357421875,11.829268292682928,-93.84146341463415,81.58536585365854,10,8
493,0.76318359375,0.17919921875,0.337890625,9.26829268292683,-88.71951219512196,82.5609756097561,10,8
494,0.75146484375,0.19873046875,0.3017578125,1.2195121951219514,-79.93902439024392,80.3658536585366,10,8
495,0.810546875,0.232421875,0.2919921875,-8.475609756097562,-69.87804878048782,78.59756097560977,10,8
496,0.84228515625,0.25439453125,0.25537109375,-18.78048780487805,-62.6219512195122,79.93902439024392,10,8
497,0.81201171875,0.2216796875,0.197265625,-26.707317073170735,-57.37804878048781,82.5609756097561,10,8
498,0.7509765625,0.15625,0.171875,-29.32926829268293,-54.57317073170732,84.14634146341464,10,8
499,0.71435546875,0.09228515625,0.20361328125,-25.121951219512198,-56.82926829268293,87.8048780487805,10,8
