,Ax,Ay,Az,Gx,Gy,Gz,distance,shot_type
0,0.62890625,-0.44921875,-0.0791015625,-30.121951219512198,14.02439024390244,-40.670731707317074,140,2
1,0.3955078125,-0.734375,-0.17041015625,5.3048780487804885,10.24390243902439,-39.63414634146342,140,2
2,0.39501953125,-0.70654296875,0.10986328125,29.573170731707318,6.158536585365854,-37.07317073170732,140,2
3,0.41259765625,-0.70849609375,0.1689453125,42.07317073170732,1.0975609756097562,-24.573170731707318,140,2
4,0.37939453125,-0.724609375,0.1259765625,37.19512195121951,8.536585365853659,-16.646341463414636,140,2
5,0.41650390625,-0.669921875,0.11279296875,28.170731707317074,14.634146341463415,-9.695121951219512,140,2
6,0.43408203125,-0.63525390625,0.0634765625,19.878048780487806,15.609756097560977,-3.1097560975609757,140,2
7,0.62109375,-0.67431640625,-0.068359375,10.914634146341465,17.98780487804878,1.6463414634146343,140,2
8,0.55712890625,-0.69189453125,-0.09228515625,2.0121951219512195,18.597560975609756,2.5609756097560976,140,2
9,0.5048828125,-0.64453125,-0.146484375,-3.231707317073171,30.975609756097565,2.5,140,2
10,0.67578125,-0.6318359375,-0.19970703125,-8.536585365853659,12.256097560975611,1.707317073170732,140,2
11,0.6591796875,-0.697265625,-0.244140625,-9.817073170731708,7.500000000000001,-2.378048780487805,140,2
12,0.67529296875,-0.67333984375,-0.21923828125,-5.121951219512195,1.2195121951219514,-8.170731707317074,140,2
13,0.70361328125,-0.654296875,-0.20166015625,1.0975609756097562,-5.060975609756098,-12.439024390243903,140,2
14,0.7548828125,-0.62939453125,-0.203125,4.390243902439025,-10.609756097560977,-14.207317073170733,140,2
15,0.7607421875,-0.61083984375,-0.19189453125,5.2439024390243905,-13.597560975609758,-14.451219512195124,140,2
16,0.77392578125,-0.6044921875,-0.228515625,3.2926829268292686,-13.719512195121952,-13.475609756097562,140,2
17,0.79931640625,-0.56005859375,-0.2021484375,0.30487804878048785,-14.756097560975611,-11.341463414634147,140,2
18,0.81640625,-0.55419921875,-0.23974609375,-3.9024390243902443,-11.707317073170733,-8.963414634146343,140,2
19,0.80712890625,-0.54736328125,-0.244140625,-8.109756097560977,-9.573170731707318,-6.951219512195123,140,2
20,0.7900390625,-0.5673828125,-0.2783203125,-14.390243902439027,-6.707317073170732,-6.951219512195123,140,2
21,0.8125,-0.5224609375,-0.26611328125,-18.04878048780488,-4.085365853658537,-6.7682926829268295,140,2
22,0.80029296875,-0.49462890625,-0.2333984375,-16.52439024390244,-7.8048780487804885,-4.878048780487806,140,2
23,0.7275390625,-0.52880859375,-0.220703125,-11.52439024390244,-11.707317073170733,-3.2926829268292686,140,2
24,0.6904296875,-0.53857421875,-0.193359375,-4.939024390243903,-15.182926829268293,-1.9512195121951221,140,2
25,0.67919921875,-0.5205078125,-0.20947265625,0.7926829268292683,-19.451219512195124,-1.0365853658536586,140,2
26,0.69775390625,-0.46337890625,-0.21923828125,4.451219512195122,-19.390243902439025,0.853658536585366,140,2
27,0.70751953125,-0.4560546875,-0.1962890625,5.182926829268293,-18.902439024390244,2.8658536585365857,140,2
28,0.70068359375,-0.45458984375,-0.1875,5.2439024390243905,-17.012195121951223,2.987804878048781,140,2
29,0.6884765625,-0.43505859375,-0.13330078125,5.853658536585367,-16.28048780487805,3.353658536585366,140,2
30,0.677734375,-0.44677734375,-0.13916015625,4.939024390243903,-14.634146341463415,2.9268292682926833,140,2
31,0.68359375,-0.4384765625,-0.19384765625,2.073170731707317,-12.378048780487806,2.378048780487805,140,2
32,0.6884765625,-0.42724609375,-0.2490234375,-4.024390243902439,-9.451219512195122,2.25609756097561,140,2
33,0.65771484375,-0.46240234375,-0.26708984375,-7.317073170731708,-6.52439024390244,1.3414634146341464,140,2
34,0.64990234375,-0.4638671875,-0.27685546875,-6.341463414634147,-6.036585365853659,0.24390243902439027,140,2
35,0.64208984375,-0.451171875,-0.2568359375,-3.780487804878049,-4.329268292682928,0.24390243902439027,140,2
36,0.6123046875,-0.4560546875,-0.23291015625,-3.536585365853659,-2.804878048780488,0.12195121951219513,140,2
37,0.60693359375,-0.4296875,-0.25390625,-1.5853658536585367,-0.853658536585366,-0.12195121951219513,140,2
38,0.57666015625,-0.42236328125,-0.26806640625,1.6463414634146343,1.0365853658536586,-1.2804878048780488,140,2
39,0.59423828125,-0.39794921875,-0.26904296875,6.097560975609756,2.804878048780488,-1.0975609756097562,140,2
40,0.595703125,-0.40869140625,-0.29150390625,10.060975609756099,5.060975609756098,-0.6707317073170732,140,2
41,0.63232421875,-0.40673828125,-0.328125,13.658536585365855,5.3048780487804885,0.1829268292682927,140,2
42,0.63818359375,-0.41748046875,-0.3740234375,16.463414634146343,6.585365853658537,1.2804878048780488,140,2
43,0.66162109375,-0.41845703125,-0.49951171875,17.31707317073171,8.109756097560977,2.8658536585365857,140,2
44,0.685546875,-0.435546875,-0.44580078125,15.30487804878049,11.219512195121952,5.121951219512195,140,2
45,0.71533203125,-0.40087890625,-0.41845703125,12.80487804878049,14.146341463414636,5.426829268292684,140,2
46,0.74755859375,-0.38427734375,-0.40869140625,9.329268292682928,18.475609756097562,5.3048780487804885,140,2
47,0.75244140625,-0.3759765625,-0.37353515625,7.8048780487804885,20.54878048780488,5.060975609756098,140,2
48,0.74267578125,-0.3857421875,-0.35986328125,6.2804878048780495,21.646341463414636,3.963414634146342,140,2
49,0.7314453125,-0.39794921875,-0.36083984375,5.670731707317073,21.951219512195124,2.439024390243903,140,2
50,0.7197265625,-0.39453125,-0.3408203125,6.158536585365854,20.243902439024392,1.0365853658536586,140,2
51,0.71826171875,-0.38037109375,-0.3115234375,5.914634146341464,19.573170731707318,15.54878048780488,140,2
52,0.70703125,-0.40234375,-0.3447265625,4.51219512195122,18.475609756097562,-1.2195121951219514,140,2
53,0.72802734375,-0.3583984375,-0.296875,5.609756097560976,18.04878048780488,-4.146341463414634,140,2
54,0.74169921875,-0.3369140625,-0.31982421875,2.7439024390243905,18.170731707317074,-5.121951219512195,140,2
55,0.7685546875,-0.3251953125,-0.32421875,-0.6097560975609757,20.0609756097561,-6.7682926829268295,140,2
56,0.80615234375,-0.29931640625,-0.302734375,-4.146341463414634,21.219512195121954,-7.621951219512196,140,2
57,0.802734375,-0.310546875,-0.28369140625,-7.01219512195122,22.073170731707318,-7.560975609756098,140,2
58,0.798828125,-0.33349609375,-0.2919921875,-11.52439024390244,18.902439024390244,-6.463414634146342,140,2
59,0.7861328125,-0.36181640625,-0.3291015625,-7.743902439024391,14.207317073170733,-7.682926829268293,140,2
60,0.771484375,-0.345703125,-0.373046875,-1.0975609756097562,10.30487804878049,-10.24390243902439,140,2
61,0.732421875,-0.38330078125,-0.21337890625,4.75609756097561,3.414634146341464,-11.036585365853659,140,2
62,0.7421875,-0.357421875,-0.2099609375,9.695121951219512,15.426829268292684,-13.719512195121952,140,2
63,0.70849609375,-0.36767578125,-0.18505859375,10.609756097560977,-0.7926829268292683,-15.426829268292684,140,2
64,0.70654296875,-0.35693359375,-0.13330078125,5.7926829268292686,0.3658536585365854,-16.219512195121954,140,2
65,0.6953125,-0.3515625,-0.12939453125,-0.5487804878048781,2.439024390243903,-17.5,140,2
66,0.6865234375,-0.3466796875,-0.080078125,-6.341463414634147,4.939024390243903,-17.439024390243905,140,2
67,0.66552734375,-0.3681640625,-0.04345703125,-8.475609756097562,4.390243902439025,-16.585365853658537,140,2
68,0.650390625,-0.3984375,-0.05908203125,-6.7682926829268295,2.073170731707317,-16.03658536585366,140,2
69,0.673828125,-0.40625,-0.06298828125,-3.048780487804878,-0.9146341463414634,-15.182926829268293,140,2
70,0.6953125,-0.40185546875,-0.08642578125,-0.1829268292682927,-4.451219512195122,-13.658536585365855,140,2
71,0.70263671875,-0.40234375,-0.11962890625,-2.3170731707317076,-5.182926829268293,-12.378048780487806,140,2
72,0.72119140625,-0.40625,-0.1337890625,-6.2804878048780495,-6.52439024390244,-10.914634146341465,140,2
73,0.71435546875,-0.41455078125,-0.115234375,-9.390243902439025,-7.865853658536586,-10.060975609756099,140,2
74,0.71875,-0.41845703125,-0.08544921875,-11.646341463414634,-7.865853658536586,-9.085365853658537,140,2
75,0.70458984375,-0.41455078125,-0.05419921875,-12.439024390243903,-8.475609756097562,-7.01219512195122,140,2
76,0.69873046875,-0.408203125,-0.04443359375,-12.317073170731708,-11.402439024390246,-6.097560975609756,140,2
77,0.69189453125,-0.4609375,-0.0810546875,-12.134146341463415,-10.853658536585368,-5.853658536585367,140,2
78,0.70703125,-0.4658203125,-0.06396484375,-11.890243902439025,-12.195121951219512,-3.780487804878049,140,2
79,0.69384765625,-0.4521484375,-0.07958984375,-13.536585365853659,-11.402439024390246,-0.9756097560975611,140,2
80,0.69677734375,-0.44775390625,-0.09228515625,-18.04878048780488,-9.695121951219512,2.682926829268293,140,2
81,0.68603515625,-0.47705078125,-0.11962890625,-21.646341463414636,-7.987804878048781,5.487804878048781,140,2
82,0.6875,-0.48291015625,-0.2470703125,-22.743902439024392,-5.914634146341464,7.500000000000001,140,2
83,0.6953125,-0.49365234375,-0.1259765625,-21.52439024390244,-3.7195121951219514,9.26829268292683,140,2
84,0.69775390625,-0.48828125,-0.1572265625,-20.79268292682927,-1.402439024390244,9.146341463414634,140,2
85,0.72412109375,-0.4697265625,-0.18701171875,-20.426829268292686,0.853658536585366,7.560975609756098,140,2
86,0.763671875,-0.453125,-0.1943359375,-21.52439024390244,6.036585365853659,3.8414634146341466,140,2
87,0.84130859375,-0.37890625,-0.17529296875,-23.04878048780488,9.756097560975611,-0.5487804878048781,140,2
88,0.90087890625,-0.3310546875,-0.17626953125,-24.939024390243905,14.573170731707318,-2.804878048780488,140,2
89,0.90234375,-0.33203125,-0.15869140625,-24.75609756097561,17.378048780487806,-5.7926829268292686,140,2
90,0.90673828125,-0.33251953125,-0.17578125,-21.585365853658537,21.28048780487805,-9.26829268292683,140,2
91,0.89892578125,-0.31884765625,-0.19921875,-16.402439024390244,24.939024390243905,-13.170731707317074,140,2
92,0.91357421875,-0.2763671875,-0.240234375,-12.621951219512196,28.475609756097562,-16.70731707317073,140,2
93,0.921875,-0.240234375,-0.28173828125,-10.609756097560977,15.609756097560977,-19.878048780487806,140,2
94,0.91552734375,-0.12646484375,-0.296875,-8.536585365853659,34.08536585365854,-24.695121951219516,140,2
95,0.9296875,-0.2255859375,-0.32080078125,-6.585365853658537,35.54878048780488,-16.03658536585366,140,2
96,0.94921875,-0.22265625,-0.2978515625,-4.390243902439025,38.04878048780488,-36.768292682926834,140,2
97,0.95751953125,-0.18896484375,-0.2431640625,-2.7439024390243905,39.268292682926834,-40.79268292682927,140,2
98,0.94091796875,-0.17138671875,-0.19287109375,-1.3414634146341464,42.987804878048784,-44.63414634146342,140,2
99,0.9482421875,-0.15673828125,-0.1748046875,0.06097560975609757,45.426829268292686,-48.78048780487805,140,2
100,0.9462890625,-0.14697265625,-0.16796875,1.9512195121951221,47.31707317073171,-52.19512195121952,140,2
101,0.9560546875,-0.1337890625,-0.2041015625,2.439024390243903,48.53658536585366,-56.03658536585366,140,2
102,0.9755859375,-0.1171875,-0.21337890625,1.8902439024390245,51.40243902439025,-59.63414634146342,140,2
103,0.99658203125,-0.07421875,-0.1865234375,2.1951219512195124,52.5609756097561,-62.31707317073171,140,2
104,1.00537109375,-0.05224609375,-0.17578125,1.0365853658536586,54.63414634146342,-64.02439024390245,140,2
105,1.01171875,-0.02001953125,-0.1650390625,-2.5609756097560976,56.768292682926834,-66.64634146341464,140,2
106,1.00341796875,-0.0224609375,-0.18017578125,-5.7926829268292686,57.560975609756106,-69.39024390243902,140,2
107,1.00439453125,-0.02734375,-0.17333984375,-6.890243902439025,59.57317073170732,-72.07317073170732,140,2
108,0.99609375,0.00341796875,-0.1396484375,-6.341463414634147,60.91463414634147,-74.39024390243902,140,2
109,1.001953125,0.03564453125,-0.13330078125,-5.548780487804878,63.35365853658537,-74.75609756097562,140,2
110,0.88037109375,0.05615234375,-0.1044921875,-6.219512195121951,66.52439024390245,-75.0,140,2
111,1.0166015625,0.09716796875,-0.09765625,-7.01219512195122,68.17073170731707,-74.63414634146342,140,2
112,1.0029296875,0.09619140625,-0.064453125,-7.073170731707318,67.98780487804879,-74.69512195121952,140,2
113,0.958984375,0.05517578125,-0.078125,-6.158536585365854,68.23170731707317,-75.91463414634147,140,2
114,0.9267578125,0.060546875,-0.07275390625,-4.573170731707317,68.53658536585367,-77.5,140,2
115,0.94140625,0.09912109375,-0.03125,-5.060975609756098,70.3048780487805,-79.14634146341464,140,2
116,0.94189453125,0.11962890625,-0.01611328125,-6.341463414634147,71.95121951219512,-80.85365853658537,140,2
117,0.9345703125,0.10546875,-0.0234375,-7.865853658536586,73.04878048780489,-84.93902439024392,140,2
118,0.9140625,0.1083984375,-0.12060546875,-8.658536585365855,72.19512195121952,-89.26829268292684,140,2
119,0.90283203125,0.11865234375,0.033203125,-11.341463414634147,71.52439024390245,-93.35365853658537,140,2
120,0.90966796875,0.130859375,0.0859375,-0.426829268292683,70.97560975609757,-96.52439024390245,140,2
121,0.8935546875,0.09765625,0.11865234375,-22.073170731707318,70.79268292682927,-99.57317073170732,140,2
122,0.8876953125,0.07421875,0.166015625,-27.31707317073171,68.65853658536587,-101.34146341463415,140,2
123,0.89892578125,0.03955078125,0.19921875,-31.58536585365854,67.07317073170732,-101.76829268292684,140,2
124,0.9296875,0.0146484375,0.22900390625,-36.09756097560976,65.3048780487805,-101.28048780487806,140,2
125,0.92724609375,-0.02734375,0.24267578125,-43.47560975609756,62.926829268292686,-99.93902439024392,140,2
126,0.9423828125,-0.06787109375,0.26806640625,-51.463414634146346,60.85365853658537,-98.84146341463415,140,2
127,0.99169921875,-0.11669921875,0.265625,-47.31707317073171,58.53658536585366,-98.04878048780489,140,2
128,1.04345703125,-0.14599609375,0.267578125,-79.87804878048782,55.67073170731708,-96.89024390243904,140,2
129,1.0400390625,-0.22705078125,0.27685546875,-95.60975609756099,62.19512195121952,-109.26829268292684,140,2
130,1.033203125,-0.3291015625,0.2373046875,-101.89024390243904,33.53658536585366,-91.95121951219512,140,2
131,1.029296875,-0.4453125,0.2060546875,-102.56097560975611,21.463414634146343,-94.39024390243904,140,2
132,1.01171875,-0.46923828125,0.244140625,-99.02439024390245,11.158536585365855,-96.46341463414635,140,2
133,1.0009765625,-0.498046875,0.22119140625,-109.14634146341464,-2.6219512195121952,-93.17073170731707,140,2
134,0.87548828125,-0.46484375,0.1513671875,-87.25609756097562,-12.74390243902439,-88.78048780487805,140,2
135,1.0234375,-0.38232421875,0.08642578125,-82.5609756097561,-23.10975609756098,-85.2439024390244,140,2
136,1.03564453125,-0.37158203125,0.06298828125,-82.25609756097562,-31.82926829268293,-80.0609756097561,140,2
137,1.0615234375,-0.08935546875,0.00830078125,-82.92682926829269,-32.987804878048784,-75.54878048780489,140,2
138,1.06689453125,0.0654296875,0.1064453125,-86.34146341463415,-32.19512195121951,-68.23170731707317,140,2
139,1.01708984375,0.13232421875,0.08154296875,-88.84146341463415,-28.53658536585366,-62.19512195121952,140,2
140,0.93017578125,0.15087890625,0.1181640625,-89.81707317073172,-29.146341463414636,-55.243902439024396,140,2
141,0.81787109375,0.1669921875,-0.02978515625,-89.20731707317074,-31.82926829268293,-49.69512195121952,140,2
142,0.80517578125,0.16259765625,0.0263671875,-87.25609756097562,-34.08536585365854,-44.146341463414636,140,2
143,0.7392578125,0.16748046875,0.05078125,-82.50000000000001,-34.146341463414636,-37.19512195121951,140,2
144,0.69921875,0.2890625,0.1484375,-82.25609756097562,-25.60975609756098,-33.23170731707317,140,2
145,0.68017578125,0.29736328125,0.1904296875,-85.73170731707317,-13.414634146341465,-32.13414634146342,140,2
146,0.66455078125,0.29833984375,0.216796875,-83.35365853658537,-2.9268292682926833,-46.15853658536586,140,2
147,0.59814453125,0.2255859375,0.18798828125,-73.23170731707317,0.7317073170731708,-27.5609756097561,140,2
148,0.533203125,0.1787109375,0.240234375,-59.75609756097562,6.890243902439025,-28.902439024390247,140,2
149,0.50048828125,0.14404296875,0.1064453125,-62.43902439024391,9.939024390243903,-27.25609756097561,140,2
150,0.47021484375,0.1494140625,0.1103515625,-34.32926829268293,15.121951219512196,-26.219512195121954,140,2
151,0.4560546875,0.18017578125,0.07666015625,-22.80487804878049,20.0609756097561,-26.646341463414636,140,2
152,0.466796875,0.2060546875,0.05712890625,-13.475609756097562,24.207317073170735,-28.53658536585366,140,2
153,0.4189453125,0.18603515625,0.0380859375,-3.353658536585366,29.146341463414636,-30.365853658536587,140,2
154,0.3994140625,0.1591796875,0.015625,4.75609756097561,33.84146341463415,-15.853658536585368,140,2
155,0.375,0.1845703125,0.03662109375,12.378048780487806,36.82926829268293,-33.78048780487805,140,2
156,0.33544921875,0.1376953125,-0.1240234375,18.963414634146343,39.57317073170732,-33.65853658536586,140,2
157,0.2802734375,0.08154296875,-0.052734375,24.573170731707318,43.84146341463415,-31.34146341463415,140,2
158,0.28271484375,0.052734375,-0.05712890625,28.780487804878053,47.6829268292683,-30.60975609756098,140,2
159,0.2890625,0.046875,-0.06396484375,32.86585365853659,51.09756097560976,-31.646341463414636,140,2
160,0.30712890625,0.06689453125,-0.08837890625,36.890243902439025,54.451219512195124,-33.170731707317074,140,2
161,0.3193359375,0.048828125,-0.1103515625,39.08536585365854,59.39024390243903,-36.09756097560976,140,2
162,0.3212890625,0.0419921875,-0.10400390625,41.82926829268293,64.39024390243902,-39.390243902439025,140,2
163,0.30224609375,0.037109375,-0.12353515625,42.6829268292683,69.45121951219512,-42.13414634146342,140,2
164,0.32568359375,0.08544921875,-0.0947265625,43.59756097560976,74.69512195121952,-44.08536585365854,140,2
165,0.3515625,0.0625,-0.16796875,46.951219512195124,75.1219512195122,-44.146341463414636,140,2
166,0.33740234375,0.0,-0.27099609375,53.29268292682927,73.84146341463415,-42.6829268292683,140,2
167,0.2744140625,-0.1103515625,-0.3408203125,58.84146341463415,71.58536585365854,-40.91463414634147,140,2
168,0.3037109375,-0.0703125,-0.30029296875,61.34146341463415,70.67073170731707,-40.60975609756098,140,2
169,0.33349609375,0.01611328125,-0.228515625,60.60975609756098,73.65853658536587,-39.69512195121951,140,2
170,0.3037109375,0.11962890625,-0.212890625,60.00000000000001,74.08536585365854,-37.37804878048781,140,2
171,0.21923828125,-0.11083984375,-0.25927734375,65.3048780487805,71.34146341463415,-35.97560975609756,140,2
172,0.2177734375,-0.14404296875,-0.17724609375,72.6219512195122,68.53658536585367,-37.07317073170732,140,2
173,0.29052734375,-0.07373046875,-0.1064453125,81.34146341463415,61.463414634146346,-39.268292682926834,140,2
174,0.3447265625,-0.03759765625,-0.00048828125,89.14634146341464,56.585365853658544,-38.29268292682927,140,2
175,0.34423828125,-0.05224609375,-0.1943359375,90.67073170731707,54.268292682926834,-33.963414634146346,140,2
176,0.28759765625,-0.05712890625,-0.2392578125,92.92682926829269,47.804878048780495,-27.80487804878049,140,2
177,0.326171875,-0.0068359375,-0.2568359375,95.79268292682927,37.25609756097561,-21.951219512195124,140,2
178,0.26611328125,0.0361328125,-0.314453125,94.39024390243904,30.182926829268297,-13.841463414634148,140,2
179,0.37548828125,-0.00927734375,-0.36181640625,85.54878048780489,27.378048780487806,-5.182926829268293,140,2
180,0.37060546875,-0.0537109375,-0.36572265625,76.64634146341464,23.353658536585368,3.048780487804878,140,2
181,0.35205078125,-0.0771484375,-0.32275390625,73.71951219512195,17.073170731707318,10.853658536585368,140,2
182,0.345703125,-0.123046875,-0.23388671875,72.92682926829269,12.865853658536587,18.353658536585368,140,2
183,0.33837890625,-0.13720703125,-0.1708984375,72.5609756097561,9.26829268292683,25.731707317073173,140,2
184,0.33837890625,-0.12744140625,-0.07763671875,73.78048780487805,5.731707317073171,30.54878048780488,140,2
185,0.37744140625,-0.08642578125,-0.03857421875,77.6219512195122,2.0121951219512195,34.87804878048781,140,2
186,0.41259765625,-0.06982421875,-0.0703125,82.25609756097562,-6.2804878048780495,39.51219512195122,140,2
187,0.384765625,-0.130859375,-0.18115234375,88.84146341463415,-19.634146341463417,31.82926829268293,140,2
188,0.33154296875,-0.1796875,-0.29443359375,96.82926829268294,-35.36585365853659,57.13414634146342,140,2
189,0.28271484375,-0.18994140625,-0.4765625,96.70731707317074,-31.280487804878053,68.10975609756098,140,2
190,0.30517578125,-0.1591796875,-0.5859375,85.1219512195122,-51.768292682926834,77.8048780487805,140,2
191,0.39794921875,-0.08984375,-0.5283203125,67.19512195121952,-48.84146341463415,85.54878048780489,140,2
192,0.515625,-0.09765625,-0.39111328125,60.54878048780488,-41.707317073170735,78.78048780487805,140,2
193,0.5634765625,-0.19189453125,-0.30908203125,20.975609756097562,-32.19512195121951,99.57317073170732,140,2
194,0.59423828125,-0.22509765625,-0.08349609375,7.317073170731708,-21.707317073170735,101.03658536585367,140,2
195,0.693359375,-0.189453125,0.19189453125,11.951219512195124,-20.853658536585368,97.25609756097562,140,2
196,0.7373046875,-0.2138671875,0.34326171875,17.743902439024392,-28.902439024390247,96.15853658536587,140,2
197,0.7529296875,-0.25439453125,0.31884765625,46.82926829268293,-40.85365853658537,93.10975609756099,140,2
198,0.7626953125,-0.21240234375,0.185546875,89.08536585365854,-52.13414634146342,92.31707317073172,140,2
199,0.76318359375,-0.24267578125,0.001953125,105.2439024390244,-62.31707317073171,94.87804878048782,140,2
200,0.78515625,-0.0205078125,-0.2421875,109.02439024390245,-73.90243902439025,97.98780487804879,140,2
201,0.8505859375,0.01025390625,-0.3935546875,99.63414634146342,-80.1219512195122,100.67073170731709,140,2
202,0.94384765625,0.2451171875,-0.47119140625,78.90243902439025,-80.73170731707317,101.40243902439025,140,2
203,0.9912109375,0.30224609375,-0.42919921875,53.84146341463415,-93.65853658536587,101.76829268292684,140,2
204,1.0068359375,0.25927734375,-0.34228515625,34.207317073170735,-75.48780487804879,101.76829268292684,140,2
205,0.96435546875,0.12548828125,-0.2578125,26.52439024390244,-76.34146341463415,102.56097560975611,140,2
206,0.91357421875,-0.03271484375,-0.19580078125,29.512195121951223,-82.6219512195122,103.53658536585367,140,2
207,0.861328125,-0.08642578125,-0.10302734375,39.451219512195124,-92.13414634146342,104.75609756097562,140,2
208,0.857421875,-0.07421875,-0.0966796875,31.463414634146343,-97.25609756097562,105.79268292682927,140,2
209,0.86328125,-0.08935546875,-0.09619140625,51.21951219512196,-98.84146341463415,106.95121951219514,140,2
210,0.7509765625,-0.10205078125,-0.109375,54.87804878048781,-100.60975609756099,107.8658536585366,140,2
211,0.89599609375,-0.08349609375,-0.15966796875,54.146341463414636,-100.54878048780489,108.78048780487806,140,2
212,0.94775390625,-0.0400390625,-0.17333984375,52.19512195121952,-99.39024390243904,110.54878048780489,140,2
213,1.0263671875,0.00244140625,-0.1513671875,48.84146341463415,-96.89024390243904,111.76829268292684,140,2
214,1.08349609375,-0.0341796875,-0.189453125,45.00000000000001,-95.2439024390244,113.35365853658537,140,2
215,1.06298828125,-0.07666015625,-0.20703125,43.53658536585366,-94.63414634146342,113.41463414634147,140,2
216,1.08984375,-0.0595703125,-0.13330078125,44.63414634146342,-95.67073170731709,111.76829268292684,140,2
217,1.00244140625,-0.00830078125,-0.1484375,45.304878048780495,-94.26829268292684,108.17073170731709,140,2
218,1.169921875,0.044921875,-0.11474609375,48.04878048780488,-92.8048780487805,106.28048780487806,140,2
219,1.162109375,0.06591796875,-0.07666015625,51.524390243902445,-91.52439024390245,104.63414634146342,140,2
220,1.16943359375,0.0673828125,-0.03662109375,54.085365853658544,-87.8658536585366,102.50000000000001,140,2
221,1.15966796875,0.0439453125,-0.04736328125,53.84146341463415,-84.14634146341464,101.03658536585367,140,2
222,1.1220703125,0.0185546875,-0.05224609375,56.28048780487806,-81.28048780487805,100.06097560975611,140,2
223,1.09912109375,0.123046875,-0.06201171875,61.28048780487806,-78.17073170731707,95.85365853658537,140,2
224,1.0986328125,-0.0107421875,-0.09375,64.45121951219512,-70.97560975609757,91.52439024390245,140,2
225,1.11376953125,-0.01220703125,-0.14208984375,67.07317073170732,-77.92682926829269,87.50000000000001,140,2
226,1.10498046875,-0.01953125,-0.19140625,72.19512195121952,-54.32926829268293,83.41463414634147,140,2
227,1.09423828125,-0.03466796875,-0.2490234375,76.89024390243902,-50.670731707317074,79.51219512195122,140,2
228,1.07080078125,-0.046875,-0.2587890625,78.90243902439025,-46.34146341463415,77.25609756097562,140,2
229,0.9873046875,-0.078125,-0.25390625,75.60975609756098,-44.93902439024391,76.76829268292684,140,2
230,0.94775390625,-0.06982421875,-0.1259765625,64.9390243902439,-38.78048780487805,79.32926829268294,140,2
231,0.90380859375,-0.06396484375,-0.23876953125,47.743902439024396,-35.73170731707317,84.93902439024392,140,2
232,0.83544921875,-0.0498046875,-0.26171875,22.439024390243905,-30.914634146341466,91.70731707317074,140,2
233,0.849609375,-0.01953125,-0.2451171875,-3.414634146341464,-24.634146341463417,97.31707317073172,140,2
234,0.96142578125,0.05517578125,-0.212890625,-27.012195121951223,-21.463414634146343,105.60975609756099,140,2
235,1.06591796875,0.01953125,-0.20947265625,-37.6219512195122,-22.31707317073171,107.43902439024392,140,2
236,1.10595703125,-0.05712890625,-0.20166015625,-34.024390243902445,-28.170731707317074,104.69512195121952,140,2
237,1.142578125,-0.095703125,-0.16845703125,-21.219512195121954,-35.54878048780488,99.87804878048782,140,2
238,1.12646484375,-0.16015625,-0.0693359375,-4.51219512195122,-44.08536585365854,95.3048780487805,140,2
239,1.07275390625,-0.203125,0.00634765625,11.829268292682928,-55.54878048780488,90.42682926829269,140,2
240,0.962890625,-0.20849609375,-0.060546875,31.09756097560976,-68.10975609756098,90.73170731707317,140,2
241,0.99560546875,-0.22412109375,-0.10400390625,53.29268292682927,-73.29268292682927,86.15853658536587,140,2
242,0.86669921875,-0.220703125,-0.09130859375,72.6219512195122,-75.3658536585366,78.59756097560977,140,2
243,0.794921875,-0.23681640625,-0.1123046875,93.29268292682927,-82.7439024390244,73.53658536585367,140,2
244,0.76123046875,-0.22802734375,-0.1455078125,109.14634146341464,-89.14634146341464,67.25609756097562,140,2
245,0.76220703125,-0.201171875,-0.1484375,120.85365853658537,-95.00000000000001,61.707317073170735,140,2
246,0.7578125,-0.232421875,-0.17041015625,135.0,-103.90243902439025,57.926829268292686,140,2
247,0.86669921875,-0.30615234375,-0.1376953125,153.90243902439025,-96.46341463414635,53.78048780487806,140,2
248,3.1328125,1.12060546875,-4.43798828125,147.9878048780488,-440.7926829268293,179.08536585365854,140,2
249,-6.2802734375,-9.19970703125,-2.5068359375,-212.8048780487805,272.07317073170736,70.0609756097561,140,2
250,0.31640625,-0.609375,2.3603515625,-90.48780487804879,47.43902439024391,-19.512195121951223,140,2
251,0.73583984375,1.48583984375,2.10693359375,11.402439024390246,70.54878048780489,-17.865853658536587,140,2
252,1.32763671875,0.71923828125,0.36962890625,8.231707317073171,42.6219512195122,29.939024390243905,140,2
253,1.0947265625,0.03076171875,-1.03564453125,27.012195121951223,-13.04878048780488,26.402439024390247,140,2
254,0.68603515625,-0.65673828125,-1.134765625,52.13414634146342,-46.58536585365854,-8.536585365853659,140,2
255,1.166015625,-0.33837890625,-0.78515625,21.585365853658537,4.329268292682928,-24.32926829268293,140,2
256,0.87255859375,0.14990234375,-0.302734375,-11.036585365853659,35.54878048780488,-11.219512195121952,140,2
257,0.541015625,0.09912109375,-0.353515625,-28.53658536585366,42.43902439024391,5.914634146341464,140,2
258,0.81787109375,-0.04443359375,-0.6123046875,-33.170731707317074,49.39024390243903,3.963414634146342,140,2
259,0.77587890625,-0.2236328125,-0.54638671875,-36.82926829268293,50.487804878048784,1.524390243902439,140,2
260,0.619140625,-0.1796875,-0.39013671875,-39.451219512195124,53.53658536585366,0.6097560975609757,140,2
261,0.73828125,-0.0390625,-0.2587890625,-43.53658536585366,60.60975609756098,-3.4756097560975614,140,2
262,0.82861328125,-0.02099609375,-0.1826171875,-43.04878048780488,62.6219512195122,-5.548780487804878,140,2
263,0.69091796875,-0.17333984375,-0.2373046875,-37.13414634146342,60.73170731707317,-8.353658536585366,140,2
264,0.66357421875,-0.25927734375,-0.27685546875,-27.31707317073171,57.865853658536594,-14.146341463414636,140,2
265,0.66845703125,-0.23388671875,-0.2470703125,-18.10975609756098,53.963414634146346,-18.10975609756098,140,2
266,0.6708984375,-0.2373046875,-0.2841796875,-11.829268292682928,49.207317073170735,-18.84146341463415,140,2
267,0.68896484375,-0.267578125,-0.38623046875,-12.500000000000002,47.804878048780495,-18.231707317073173,140,2
268,0.70458984375,-0.27099609375,-0.44580078125,-15.426829268292684,47.37804878048781,-18.231707317073173,140,2
269,0.7333984375,-0.27294921875,-0.40771484375,-16.585365853658537,45.1829268292683,-18.29268292682927,140,2
270,0.71826171875,-0.306640625,-0.39013671875,-14.878048780487806,43.04878048780488,-18.719512195121954,140,2
271,0.7138671875,-0.32958984375,-0.392578125,-11.829268292682928,39.32926829268293,-20.30487804878049,140,2
272,0.71875,-0.34326171875,-0.36669921875,-7.378048780487806,34.81707317073171,-22.682926829268293,140,2
273,0.71240234375,-0.345703125,-0.34814453125,-15.487804878048783,29.573170731707318,-25.000000000000004,140,2
274,0.7119140625,-0.36669921875,-0.31396484375,7.926829268292684,22.682926829268293,-26.28048780487805,140,2
275,0.69384765625,-0.25830078125,-0.32958984375,15.426829268292684,17.25609756097561,-28.902439024390247,140,2
276,0.70849609375,-0.35888671875,-0.3447265625,18.10975609756098,14.817073170731708,-29.573170731707318,140,2
277,0.701171875,-0.36376953125,-0.36572265625,16.402439024390244,14.451219512195124,-28.84146341463415,140,2
278,0.69921875,-0.3828125,-0.404296875,11.829268292682928,14.756097560975611,-26.76829268292683,140,2
279,0.705078125,-0.39892578125,-0.49560546875,6.341463414634147,16.097560975609756,-25.853658536585368,140,2
280,0.73681640625,-0.4150390625,-0.53369140625,15.426829268292684,16.890243902439025,-25.365853658536587,140,2
281,0.72607421875,-0.474609375,-0.560546875,-5.731707317073171,17.5,-25.426829268292686,140,2
282,0.689453125,-0.5126953125,-0.50341796875,-6.890243902439025,17.378048780487806,-25.792682926829272,140,2
283,0.63134765625,-0.51220703125,-0.4189453125,-4.634146341463415,15.670731707317074,-25.426829268292686,140,2
284,0.5732421875,-0.49755859375,-0.349609375,-0.7317073170731708,14.02439024390244,-23.719512195121954,140,2
285,0.50634765625,-0.48876953125,-0.34912109375,2.6219512195121952,11.951219512195124,-21.158536585365855,140,2
286,0.46240234375,-0.47998046875,-0.35546875,5.7926829268292686,9.451219512195122,-19.207317073170735,140,2
287,0.45654296875,-0.4453125,-0.333984375,9.26829268292683,7.195121951219513,-18.84146341463415,140,2
288,0.466796875,-0.39599609375,-0.30810546875,11.829268292682928,6.158536585365854,-18.658536585365855,140,2
289,0.470703125,-0.3759765625,-0.33203125,12.256097560975611,6.097560975609756,-19.207317073170735,140,2
290,0.5,-0.3564453125,-0.36767578125,11.219512195121952,6.7682926829268295,-21.03658536585366,140,2
291,0.56396484375,-0.3056640625,-0.38330078125,6.829268292682928,10.609756097560977,-24.573170731707318,140,2
292,0.63037109375,-0.27294921875,-0.3916015625,-3.9024390243902443,16.82926829268293,-28.10975609756098,140,2
293,0.671875,-0.24365234375,-0.373046875,-13.170731707317074,24.26829268292683,-30.853658536585368,140,2
294,0.66943359375,-0.1337890625,-0.3115234375,-17.378048780487806,29.39024390243903,-31.89024390243903,140,2
295,0.6474609375,-0.3095703125,-0.3310546875,-14.207317073170733,29.75609756097561,-31.707317073170735,140,2
296,0.65966796875,-0.34228515625,-0.36572265625,-9.695121951219512,25.853658536585368,-30.182926829268297,140,2
297,0.74560546875,-0.38818359375,-0.36572265625,-3.231707317073171,19.75609756097561,-26.34146341463415,140,2
298,0.60546875,-0.3974609375,-0.33251953125,1.2195121951219514,16.28048780487805,-21.951219512195124,140,2
299,0.74462890625,-0.408203125,-0.27783203125,1.829268292682927,14.817073170731708,-15.853658536585368,140,2
300,0.60009765625,-0.4619140625,-0.291015625,-3.231707317073171,15.426829268292684,-10.121951219512196,140,2
301,0.6240234375,-0.490234375,-0.33349609375,-8.292682926829269,17.5,-4.329268292682928,140,2
302,0.67919921875,-0.5009765625,-0.447265625,-9.02439024390244,17.25609756097561,1.8902439024390245,140,2
303,0.7802734375,-0.5078125,-0.396484375,-6.158536585365854,13.536585365853659,5.731707317073171,140,2
304,0.751953125,-0.5087890625,-0.38916015625,-3.2926829268292686,11.707317073170733,8.292682926829269,140,2
305,0.89697265625,-0.54833984375,-0.39892578125,-2.25609756097561,11.890243902439025,9.878048780487806,140,2
306,0.9375,-0.53271484375,-0.49853515625,-1.829268292682927,12.01219512195122,10.365853658536587,140,2
307,0.97607421875,-0.52197265625,-0.36181640625,-0.30487804878048785,11.951219512195124,10.975609756097562,140,2
308,0.966796875,-0.53515625,-0.38330078125,2.5609756097560976,11.097560975609756,10.975609756097562,140,2
309,0.9619140625,-0.54931640625,-0.373046875,6.402439024390245,8.78048780487805,10.548780487804878,140,2
310,0.9697265625,-0.54541015625,-0.3681640625,12.500000000000002,4.939024390243903,8.963414634146343,140,2
311,0.98779296875,-0.54150390625,-0.38671875,17.865853658536587,1.1585365853658538,6.829268292682928,140,2
312,0.970703125,-0.5419921875,-0.36474609375,21.951219512195124,-2.1341463414634148,5.426829268292684,140,2
313,0.947265625,-0.5361328125,-0.38134765625,25.975609756097562,-5.365853658536586,2.987804878048781,140,2
314,0.93603515625,-0.54638671875,-0.39501953125,28.780487804878053,-8.170731707317074,1.2804878048780488,140,2
315,0.8798828125,-0.55029296875,-0.392578125,30.0609756097561,-10.121951219512196,0.426829268292683,140,2
316,0.84228515625,-0.5517578125,-0.35302734375,30.000000000000004,-10.670731707317074,0.06097560975609757,140,2
317,0.81787109375,-0.5439453125,-0.32421875,29.939024390243905,-11.52439024390244,0.9756097560975611,140,2
318,0.77880859375,-0.53173828125,-0.33349609375,29.695121951219516,-12.317073170731708,1.7682926829268295,140,2
319,0.7451171875,-0.51171875,-0.34375,27.500000000000004,-12.500000000000002,2.804878048780488,140,2
320,0.7353515625,-0.478515625,-0.31982421875,25.000000000000004,-12.256097560975611,5.182926829268293,140,2
321,0.69921875,-0.48193359375,-0.3125,24.390243902439025,-13.841463414634148,6.707317073170732,140,2
322,0.6826171875,-0.49462890625,-0.3212890625,26.89024390243903,-17.439024390243905,7.865853658536586,140,2
323,0.671875,-0.5087890625,-0.361328125,30.30487804878049,-20.670731707317074,7.682926829268293,140,2
324,0.68896484375,-0.5,-0.359375,31.646341463414636,-21.097560975609756,7.25609756097561,140,2
325,0.6748046875,-0.474609375,-0.32666015625,30.975609756097565,-20.914634146341466,7.25609756097561,140,2
326,0.65380859375,-0.46435546875,-0.31640625,31.09756097560976,-20.79268292682927,6.707317073170732,140,2
327,0.654296875,-0.466796875,-0.33447265625,31.34146341463415,-20.54878048780488,6.463414634146342,140,2
328,0.65771484375,-0.44482421875,-0.36572265625,29.87804878048781,-18.719512195121954,6.097560975609756,140,2
329,0.6689453125,-0.412109375,-0.3466796875,24.878048780487806,-14.878048780487806,6.219512195121951,140,2
330,0.658203125,-0.38232421875,-0.31396484375,19.573170731707318,-10.0,7.317073170731708,140,2
331,0.6201171875,-0.3876953125,-0.29052734375,18.353658536585368,-8.292682926829269,7.926829268292684,140,2
332,0.59765625,-0.41943359375,-0.30859375,20.426829268292686,-9.817073170731708,8.475609756097562,140,2
333,0.59814453125,-0.4150390625,-0.3369140625,23.231707317073173,-10.975609756097562,8.231707317073171,140,2
334,0.6103515625,-0.3935546875,-0.345703125,22.682926829268293,-9.634146341463415,7.560975609756098,140,2
335,0.64013671875,-0.361328125,-0.345703125,20.30487804878049,-8.048780487804878,6.646341463414635,140,2
336,0.65478515625,-0.35888671875,-0.384765625,17.98780487804878,-6.2804878048780495,4.939024390243903,140,2
337,0.6396484375,-0.38916015625,-0.39404296875,16.158536585365855,-5.548780487804878,3.536585365853659,140,2
338,0.64013671875,-0.40625,-0.365234375,15.182926829268293,-5.2439024390243905,1.9512195121951221,140,2
339,0.6357421875,-0.40966796875,-0.32958984375,14.939024390243905,-4.939024390243903,1.829268292682927,140,2
340,0.60302734375,-0.42919921875,-0.3095703125,15.853658536585368,-4.939024390243903,2.439024390243903,140,2
341,0.5986328125,-0.4423828125,-0.28466796875,17.804878048780488,-5.670731707317073,2.8658536585365857,140,2
342,0.6064453125,-0.44384765625,-0.2900390625,19.26829268292683,-5.914634146341464,3.658536585365854,140,2
343,0.6162109375,-0.43359375,-0.30810546875,19.75609756097561,-6.2804878048780495,4.207317073170732,140,2
344,0.62451171875,-0.43603515625,-0.32470703125,19.26829268292683,-6.402439024390245,3.780487804878049,140,2
345,0.50244140625,-0.4423828125,-0.35302734375,18.04878048780488,-6.219512195121951,3.231707317073171,140,2
346,0.50244140625,-0.44921875,-0.349609375,16.646341463414636,-5.7926829268292686,2.5,140,2
347,0.64453125,-0.43310546875,-0.341796875,31.09756097560976,-4.51219512195122,1.2804878048780488,140,2
348,0.6494140625,-0.43359375,-0.31884765625,12.621951219512196,-3.048780487804878,0.5487804878048781,140,2
349,0.6484375,-0.4169921875,-0.322265625,10.121951219512196,-0.7926829268292683,0.5487804878048781,140,2
350,0.6328125,-0.443359375,-0.32080078125,8.597560975609756,-0.06097560975609757,0.48780487804878053,140,2
351,0.63427734375,-0.45361328125,-0.29736328125,8.78048780487805,0.30487804878048785,0.5487804878048781,140,2
352,0.63232421875,-0.45654296875,-0.28125,9.51219512195122,0.06097560975609757,0.48780487804878053,140,2
353,0.63427734375,-0.45361328125,-0.26171875,11.341463414634147,-1.3414634146341464,0.6707317073170732,140,2
354,0.64013671875,-0.4755859375,-0.33203125,16.28048780487805,-5.975609756097562,0.7926829268292683,140,2
355,0.6728515625,-0.4892578125,-0.36376953125,20.48780487804878,-6.341463414634147,-0.5487804878048781,140,2
356,0.697265625,-0.482421875,-0.3759765625,19.695121951219512,-4.207317073170732,-1.707317073170732,140,2
357,0.740234375,-0.44140625,-0.33984375,30.731707317073173,-15.54878048780488,-2.0121951219512195,140,2
358,0.708984375,-0.447265625,-0.328125,12.987804878048781,1.8902439024390245,-1.2804878048780488,140,2
359,0.69140625,-0.4853515625,-0.32861328125,14.878048780487806,1.2195121951219514,-0.7926829268292683,140,2
360,0.69384765625,-0.4853515625,-0.34912109375,15.853658536585368,0.9146341463414634,-0.48780487804878053,140,2
361,0.69482421875,-0.47216796875,-0.328125,14.817073170731708,2.5609756097560976,0.1829268292682927,140,2
362,0.6884765625,-0.46435546875,-0.28466796875,13.170731707317074,4.817073170731708,1.0365853658536586,140,2
363,0.67626953125,-0.466796875,-0.28076171875,13.353658536585368,4.451219512195122,2.378048780487805,140,2
364,0.642578125,-0.48583984375,-0.35302734375,15.487804878048783,2.7439024390243905,3.231707317073171,140,2
365,0.6630859375,-0.5009765625,-0.3544921875,15.975609756097562,2.439024390243903,4.024390243902439,140,2
366,0.69677734375,-0.4599609375,-0.34423828125,12.560975609756099,5.365853658536586,3.658536585365854,140,2
367,0.71337890625,-0.43212890625,-0.3486328125,10.060975609756099,7.317073170731708,3.658536585365854,140,2
368,0.68896484375,-0.453125,-0.36083984375,9.878048780487806,6.402439024390245,3.1707317073170733,140,2
369,0.671875,-0.47021484375,-0.37255859375,11.036585365853659,5.731707317073171,2.7439024390243905,140,2
370,0.677734375,-0.45068359375,-0.35205078125,11.158536585365855,5.609756097560976,2.439024390243903,140,2
371,0.7119140625,-0.40576171875,-0.35546875,11.158536585365855,5.670731707317073,2.1951219512195124,140,2
372,0.7216796875,-0.388671875,-0.34326171875,11.76829268292683,5.0,1.3414634146341464,140,2
373,0.6982421875,-0.41650390625,-0.3466796875,13.658536585365855,3.048780487804878,1.0365853658536586,140,2
374,0.6923828125,-0.43505859375,-0.3388671875,15.914634146341465,1.2195121951219514,0.853658536585366,140,2
375,0.71240234375,-0.43359375,-0.349609375,16.28048780487805,1.0365853658536586,0.9756097560975611,140,2
376,0.70849609375,-0.43017578125,-0.33837890625,14.695121951219514,2.25609756097561,1.5853658536585367,140,2
377,0.7158203125,-0.42626953125,-0.31982421875,13.231707317073171,2.682926829268293,1.9512195121951221,140,2
378,0.71923828125,-0.43798828125,-0.3310546875,12.500000000000002,3.4756097560975614,1.402439024390244,140,2
379,0.71630859375,-0.44580078125,-0.2919921875,12.682926829268293,2.8658536585365857,0.853658536585366,140,2
380,0.7138671875,-0.45556640625,-0.31884765625,14.51219512195122,0.9146341463414634,0.30487804878048785,140,2
381,0.7216796875,-0.458984375,-0.34130859375,17.682926829268293,-1.5853658536585367,-0.30487804878048785,140,2
382,0.72119140625,-0.4609375,-0.3427734375,20.79268292682927,-3.9024390243902443,-0.48780487804878053,140,2
383,0.728515625,-0.4462890625,-0.3564453125,23.170731707317074,-5.7926829268292686,-0.853658536585366,140,2
384,0.7333984375,-0.4423828125,-0.3876953125,23.353658536585368,-6.219512195121951,-1.3414634146341464,140,2
385,0.71240234375,-0.4375,-0.400390625,22.25609756097561,-6.158536585365854,-2.0121951219512195,140,2
386,0.7158203125,-0.435546875,-0.3837890625,21.158536585365855,-5.731707317073171,-2.5609756097560976,140,2
387,0.7119140625,-0.43212890625,-0.36474609375,20.365853658536587,-5.914634146341464,-3.1707317073170733,140,2
388,0.6904296875,-0.4384765625,-0.36376953125,20.48780487804878,-7.073170731707318,-3.353658536585366,140,2
389,0.67626953125,-0.44287109375,-0.34130859375,22.378048780487806,-9.573170731707318,-3.2926829268292686,140,2
390,0.65283203125,-0.451171875,-0.31689453125,25.792682926829272,-12.865853658536587,-2.987804878048781,140,2
391,0.66162109375,-0.45849609375,-0.33056640625,27.31707317073171,-16.158536585365855,-2.073170731707317,140,2
392,0.669921875,-0.52880859375,-0.3955078125,24.695121951219516,-16.646341463414636,3.048780487804878,140,2
393,0.609375,-0.7236328125,-0.3369140625,19.75609756097561,-6.951219512195123,3.048780487804878,140,2
394,0.47119140625,-0.57763671875,-0.19482421875,17.621951219512198,-3.780487804878049,-6.52439024390244,140,2
395,0.67578125,-0.26806640625,-0.23486328125,22.073170731707318,-6.7682926829268295,-7.926829268292684,140,2
396,0.77197265625,-0.25537109375,-0.228515625,20.914634146341466,-0.3658536585365854,-5.487804878048781,140,2
397,0.689453125,-0.412109375,-0.2353515625,14.329268292682928,5.609756097560976,-3.7195121951219514,140,2
398,0.615234375,-0.48974609375,-0.25927734375,14.695121951219514,3.780487804878049,-4.390243902439025,140,2
399,0.61376953125,-0.47900390625,-0.27734375,24.146341463414636,15.426829268292684,-4.817073170731708,140,2
400,0.705078125,-0.43798828125,-0.31494140625,32.5609756097561,-2.3170731707317076,-4.207317073170732,140,2
401,0.705078125,-0.4501953125,-0.35546875,33.35365853658537,-1.9512195121951221,-3.7195121951219514,140,2
402,0.66650390625,-0.4853515625,-0.3671875,28.10975609756098,2.3170731707317076,-3.1707317073170733,140,2
403,0.64599609375,-0.50927734375,-0.35546875,22.134146341463417,6.341463414634147,-3.5975609756097566,140,2
404,0.6611328125,-0.623046875,-0.34619140625,17.25609756097561,8.963414634146343,-3.8414634146341466,140,2
405,0.66943359375,-0.46923828125,-0.31201171875,12.926829268292684,11.463414634146343,-3.536585365853659,140,2
406,0.669921875,-0.47021484375,-0.27685546875,11.28048780487805,12.195121951219512,-3.231707317073171,140,2
407,0.64892578125,-0.490234375,-0.2724609375,13.414634146341465,10.182926829268293,-1.829268292682927,140,2
408,0.65185546875,-0.494140625,-0.2724609375,18.963414634146343,6.646341463414635,-1.0365853658536586,140,2
409,0.6552734375,-0.51318359375,-0.28857421875,24.512195121951223,3.7195121951219514,0.06097560975609757,140,2
410,0.64306640625,-0.54296875,-0.28564453125,27.134146341463417,2.987804878048781,2.25609756097561,140,2
411,0.63720703125,-0.5615234375,-0.30712890625,28.292682926829272,2.987804878048781,3.963414634146342,140,2
412,0.6318359375,-0.57861328125,-0.3232421875,27.926829268292686,3.536585365853659,6.097560975609756,140,2
413,0.6669921875,-0.55126953125,-0.3603515625,26.34146341463415,3.1097560975609757,6.890243902439025,140,2
414,0.64208984375,-0.52587890625,-0.35595703125,26.89024390243903,4.695121951219512,10.24390243902439,140,2
415,0.66748046875,-0.541015625,-0.357421875,22.195121951219512,7.743902439024391,12.987804878048781,140,2
416,0.68115234375,-0.5439453125,-0.35400390625,17.682926829268293,11.646341463414634,14.146341463414636,140,2
417,0.6572265625,-0.544921875,-0.33349609375,12.073170731707318,15.182926829268293,14.756097560975611,140,2
418,0.640625,-0.5439453125,-0.33740234375,8.414634146341465,17.926829268292686,14.451219512195124,140,2
419,0.62548828125,-0.5498046875,-0.3212890625,5.670731707317073,21.76829268292683,14.51219512195122,140,2
420,0.6181640625,-0.5712890625,-0.30419921875,3.2926829268292686,25.365853658536587,14.329268292682928,140,2
421,0.59716796875,-0.587890625,-0.28125,1.1585365853658538,28.10975609756098,14.26829268292683,140,2
422,0.59423828125,-0.59521484375,-0.3740234375,-1.0365853658536586,30.60975609756098,14.390243902439027,140,2
423,0.583984375,-0.63134765625,-0.28076171875,-7.195121951219513,31.76829268292683,17.865853658536587,140,2
424,0.57861328125,-0.65087890625,-0.365234375,-10.609756097560977,30.0609756097561,20.731707317073173,140,2
425,0.6259765625,-0.5634765625,-0.431640625,-11.646341463414634,28.292682926829272,20.121951219512198,140,2
426,0.7021484375,-0.51220703125,-0.3876953125,-12.682926829268293,26.707317073170735,19.695121951219512,140,2
427,0.77001953125,-0.48193359375,-0.583984375,-15.30487804878049,26.03658536585366,18.658536585365855,140,2
428,0.81298828125,-0.46240234375,-0.64453125,-24.207317073170735,29.573170731707318,18.414634146341466,140,2
429,0.798828125,-0.46435546875,-0.66162109375,-39.32926829268293,36.34146341463415,16.70731707317073,140,2
430,0.76953125,-0.439453125,-0.64208984375,-60.73170731707317,31.402439024390247,12.682926829268293,140,2
431,0.76953125,-0.39697265625,-0.59716796875,-86.82926829268294,57.37804878048781,8.048780487804878,140,2
432,0.77197265625,-0.3720703125,-0.55615234375,-94.14634146341464,69.75609756097562,3.1097560975609757,140,2
433,0.76904296875,-0.3759765625,-0.4619140625,-120.79268292682927,77.5,-0.853658536585366,140,2
434,0.87158203125,-0.4091796875,-0.2392578125,-117.13414634146342,72.8048780487805,-1.7682926829268295,140,2
435,0.68994140625,-0.525390625,-0.244140625,-99.69512195121952,57.31707317073171,-2.6219512195121952,140,2
436,0.6396484375,-0.57666015625,-0.0634765625,-74.57317073170732,42.6219512195122,-8.475609756097562,140,2
437,0.7626953125,-0.49658203125,-0.11083984375,-46.89024390243903,22.743902439024392,-11.463414634146343,140,2
438,0.68017578125,-0.50634765625,-0.19091796875,-29.26829268292683,10.853658536585368,-8.414634146341465,140,2
439,0.55615234375,-0.56005859375,-0.20654296875,-21.402439024390247,9.329268292682928,-6.097560975609756,140,2
440,0.58251953125,-0.54833984375,-0.1650390625,-15.975609756097562,10.060975609756099,-7.682926829268293,140,2
441,0.69091796875,-0.4716796875,-0.220703125,-7.317073170731708,5.0,-8.353658536585366,140,2
442,0.71337890625,-0.50244140625,-0.31396484375,-0.12195121951219513,0.7317073170731708,-4.390243902439025,140,2
443,0.724609375,-0.58935546875,-0.36865234375,-2.6219512195121952,4.207317073170732,-4.75609756097561,140,2
444,0.7783203125,-0.60400390625,-0.40625,-8.475609756097562,8.78048780487805,-6.341463414634147,140,2
445,0.77734375,-0.58837890625,-0.4033203125,-10.365853658536587,9.878048780487806,-4.634146341463415,140,2
446,0.75341796875,-0.64306640625,-0.39453125,-13.231707317073171,12.134146341463415,-3.658536585365854,140,2
447,0.69873046875,-0.68798828125,-0.39892578125,-15.914634146341465,13.597560975609758,-4.75609756097561,140,2
448,0.64599609375,-0.7001953125,-0.35693359375,-13.963414634146343,12.317073170731708,-5.365853658536586,140,2
449,0.64501953125,-0.70947265625,-0.32421875,-7.621951219512196,8.902439024390244,-5.060975609756098,140,2
450,0.62646484375,-0.72802734375,-0.298828125,-2.8658536585365857,6.463414634146342,-4.51219512195122,140,2
451,0.603515625,-0.71826171875,-0.29638671875,-0.3658536585365854,6.036585365853659,-4.51219512195122,140,2
452,0.611328125,-0.685546875,-0.28662109375,1.2195121951219514,6.341463414634147,-4.939024390243903,140,2
453,0.64599609375,-0.64599609375,-0.27197265625,2.682926829268293,7.01219512195122,-4.817073170731708,140,2
454,0.66650390625,-0.623046875,-0.27880859375,2.987804878048781,7.195121951219513,-3.8414634146341466,140,2
455,0.6640625,-0.619140625,-0.31103515625,2.7439024390243905,8.841463414634147,-3.780487804878049,140,2
456,0.6943359375,-0.59521484375,-0.31201171875,3.048780487804878,10.24390243902439,-5.0,140,2
457,0.72900390625,-0.546875,-0.30810546875,3.658536585365854,11.646341463414634,-6.097560975609756,140,2
458,0.77490234375,-0.49951171875,-0.3037109375,2.6219512195121952,13.04878048780488,-7.073170731707318,140,2
459,0.78955078125,-0.484375,-0.30419921875,0.6707317073170732,14.390243902439027,-7.560975609756098,140,2
460,0.7939453125,-0.47705078125,-0.2880859375,-0.7317073170731708,15.365853658536587,-8.109756097560977,140,2
461,0.78759765625,-0.4736328125,-0.28515625,-2.0121951219512195,15.182926829268293,-8.536585365853659,140,2
462,0.7822265625,-0.47607421875,-0.27978515625,-2.1951219512195124,15.182926829268293,-9.207317073170733,140,2
463,0.7841796875,-0.46484375,-0.2548828125,-2.25609756097561,14.756097560975611,-9.939024390243903,140,2
464,0.79150390625,-0.43603515625,-0.244140625,-2.9268292682926833,14.329268292682928,-11.219512195121952,140,2
465,0.783203125,-0.41796875,-0.232421875,-3.5975609756097566,13.475609756097562,-12.256097560975611,140,2
466,0.78076171875,-0.4033203125,-0.2099609375,-4.878048780487806,12.256097560975611,-13.29268292682927,140,2
467,0.7783203125,-0.39306640625,-0.18701171875,-5.487804878048781,10.914634146341465,-14.451219512195124,140,2
468,0.7548828125,-0.3876953125,-0.1611328125,-6.219512195121951,9.390243902439025,-15.182926829268293,140,2
469,0.7197265625,-0.376953125,-0.14306640625,-7.25609756097561,8.475609756097562,-15.060975609756099,140,2
470,0.68212890625,-0.35986328125,-0.12646484375,-8.719512195121952,7.01219512195122,-13.719512195121952,140,2
471,0.6572265625,-0.36279296875,-0.1142578125,-9.939024390243903,4.939024390243903,-12.195121951219512,140,2
472,0.64208984375,-0.3583984375,-0.09619140625,-11.951219512195124,4.329268292682928,-10.609756097560977,140,2
473,0.63720703125,-0.3564453125,-0.08056640625,-15.182926829268293,4.329268292682928,-8.414634146341465,140,2
474,0.50244140625,-0.3466796875,-0.05859375,-18.84146341463415,5.121951219512195,-6.646341463414635,140,2
475,0.62939453125,-0.33154296875,-0.05078125,-22.25609756097561,4.634146341463415,-4.207317073170732,140,2
476,0.744140625,-0.35009765625,-0.0546875,-24.146341463414636,4.024390243902439,-2.25609756097561,140,2
477,0.5830078125,-0.359375,-0.0439453125,-22.926829268292686,1.5853658536585367,-0.7926829268292683,140,2
478,0.60693359375,-0.38330078125,-0.0517578125,-20.853658536585368,-0.853658536585366,-0.06097560975609757,140,2
479,0.50537109375,-0.36279296875,-0.04931640625,-18.475609756097562,-3.2926829268292686,0.6707317073170732,140,2
480,0.6552734375,-0.3388671875,-0.0546875,-18.04878048780488,-4.146341463414634,2.073170731707317,140,2
481,0.66845703125,-0.3349609375,-0.05322265625,-20.914634146341466,-3.780487804878049,1.8902439024390245,140,2
482,0.6953125,-0.31005859375,-0.07568359375,-24.085365853658537,-1.4634146341463417,1.5853658536585367,140,2
483,0.70263671875,-0.30322265625,-0.0908203125,-25.975609756097562,-1.1585365853658538,1.707317073170732,140,2
484,0.70361328125,-0.32568359375,-0.107421875,-25.426829268292686,-1.3414634146341464,1.7682926829268295,140,2
485,0.70947265625,-0.34912109375,-0.14306640625,-23.170731707317074,-2.1951219512195124,2.25609756097561,140,2
486,0.71435546875,-0.369140625,-0.15380859375,-20.975609756097562,-1.7682926829268295,2.25609756097561,140,2
487,0.72802734375,-0.365234375,-0.16162109375,-19.207317073170735,-2.1951219512195124,3.048780487804878,140,2
488,0.7177734375,-0.39013671875,-0.2060546875,-18.475609756097562,-1.1585365853658538,4.085365853658537,140,2
489,0.70703125,-0.40673828125,-0.23486328125,-17.5,-0.7317073170731708,4.939024390243903,140,2
490,0.72021484375,-0.41015625,-0.25927734375,-17.682926829268293,0.7317073170731708,5.3048780487804885,140,2
491,0.74267578125,-0.38037109375,-0.2685546875,-19.26829268292683,3.1707317073170733,4.817073170731708,140,2
492,0.75634765625,-0.3603515625,-0.2744140625,-21.951219512195124,5.060975609756098,4.634146341463415,140,2
493,0.76025390625,-0.35302734375,-0.2646484375,-23.719512195121954,8.292682926829269,3.414634146341464,140,2
494,0.7373046875,-0.36376953125,-0.25537109375,-24.26829268292683,10.548780487804878,2.1951219512195124,140,2
495,0.70263671875,-0.39208984375,-0.28173828125,-22.500000000000004,11.585365853658537,0.7926829268292683,140,2
496,0.67578125,-0.39794921875,-0.30224609375,-18.04878048780488,11.52439024390244,0.06097560975609757,140,2
497,0.6494140625,-0.4169921875,-0.36083984375,-12.01219512195122,8.902439024390244,-0.12195121951219513,140,2
498,0.60107421875,-0.44140625,-0.38916015625,-6.463414634146342,8.597560975609756,-1.0365853658536586,140,2
499,0.5947265625,-0.431640625,-0.39794921875,-1.707317073170732,7.378048780487806,-0.5487804878048781,140,2
