,Ax,Ay,Az,Gx,Gy,Gz,distance,shot_type
0,0.5244140625,-0.42626953125,-0.60546875,-11.097560975609756,-3.536585365853659,12.926829268292684,150,4
1,0.546875,-0.3994140625,-0.67431640625,-11.341463414634147,-2.073170731707317,14.390243902439027,150,4
2,0.57421875,-0.37060546875,-0.72412109375,-15.426829268292684,0.6707317073170732,15.975609756097562,150,4
3,0.57568359375,-0.361328125,-0.7294921875,-22.012195121951223,4.329268292682928,17.865853658536587,150,4
4,0.58740234375,-0.3671875,-0.732421875,-27.378048780487806,7.134146341463415,18.170731707317074,150,4
5,0.572265625,-0.3798828125,-0.70556640625,-28.53658536585366,8.292682926829269,18.170731707317074,150,4
6,0.5751953125,-0.37255859375,-0.67529296875,-26.58536585365854,9.451219512195122,16.951219512195124,150,4
7,0.57177734375,-0.33544921875,-0.65576171875,-24.81707317073171,10.426829268292684,16.463414634146343,150,4
8,0.5751953125,-0.328125,-0.626953125,-22.25609756097561,11.341463414634147,16.03658536585366,150,4
9,0.5703125,-0.3125,-0.609375,-18.231707317073173,12.865853658536587,15.30487804878049,150,4
10,0.5634765625,-0.3076171875,-0.60400390625,-16.03658536585366,14.878048780487806,14.573170731707318,150,4
11,0.5830078125,-0.2841796875,-0.58203125,-13.475609756097562,16.646341463414636,14.02439024390244,150,4
12,0.6171875,-0.25634765625,-0.58642578125,-12.073170731707318,17.743902439024392,13.719512195121952,150,4
13,0.6357421875,-0.23046875,-0.6103515625,-10.853658536585368,18.10975609756098,14.207317073170733,150,4
14,0.666015625,-0.22998046875,-0.60693359375,-9.756097560975611,18.10975609756098,13.597560975609758,150,4
15,0.7138671875,-0.21435546875,-0.61865234375,-9.756097560975611,17.378048780487806,11.829268292682928,150,4
16,0.7353515625,-0.2099609375,-0.59765625,-8.475609756097562,17.195121951219512,10.24390243902439,150,4
17,0.74853515625,-0.21240234375,-0.5771484375,-5.670731707317073,16.76829268292683,8.048780487804878,150,4
18,0.7626953125,-0.2265625,-0.58447265625,-15.426829268292684,16.158536585365855,5.121951219512195,150,4
19,0.7783203125,-0.12744140625,-0.578125,5.2439024390243905,15.487804878048783,1.1585365853658538,150,4
20,0.7900390625,-0.2490234375,-0.59423828125,7.926829268292684,14.451219512195124,-2.682926829268293,150,4
21,0.77490234375,-0.23486328125,-0.56396484375,9.573170731707318,14.329268292682928,-5.2439024390243905,150,4
22,0.751953125,-0.2158203125,-0.51123046875,12.682926829268293,14.878048780487806,-5.853658536585367,150,4
23,0.7275390625,-0.23828125,-0.37646484375,14.390243902439027,17.378048780487806,-5.975609756097562,150,4
24,0.73095703125,-0.12841796875,-0.47412109375,20.0,18.84146341463415,-5.609756097560976,150,4
25,0.71923828125,-0.2734375,-0.42138671875,28.414634146341466,18.963414634146343,-4.878048780487806,150,4
26,0.7392578125,-0.248046875,-0.39013671875,35.609756097560975,17.743902439024392,-4.939024390243903,150,4
27,0.7470703125,-0.2109375,-0.3896484375,39.93902439024391,18.902439024390244,-5.7926829268292686,150,4
28,0.76953125,-0.2080078125,-0.400390625,44.81707317073171,31.03658536585366,-5.426829268292684,150,4
29,0.763671875,-0.19775390625,-0.4599609375,48.59756097560976,10.426829268292684,-7.560975609756098,150,4
30,0.8017578125,-0.1123046875,-0.5205078125,47.743902439024396,6.7682926829268295,-12.80487804878049,150,4
31,0.83984375,-0.07421875,-0.53857421875,49.51219512195122,-0.7926829268292683,-13.109756097560977,150,4
32,0.82275390625,-0.09033203125,-0.46044921875,48.170731707317074,-6.646341463414635,-14.51219512195122,150,4
33,0.8642578125,-0.1591796875,-0.42919921875,53.41463414634147,-13.475609756097562,-16.76829268292683,150,4
34,0.6796875,-0.20458984375,-0.36376953125,59.75609756097562,-18.353658536585368,-19.146341463414636,150,4
35,0.66162109375,-0.21923828125,-0.34228515625,66.52439024390245,-25.914634146341466,-18.78048780487805,150,4
36,0.587890625,-0.271484375,-0.359375,64.39024390243902,-27.80487804878049,-19.81707317073171,150,4
37,0.5751953125,-0.2783203125,-0.4365234375,55.243902439024396,-22.134146341463417,-19.75609756097561,150,4
38,0.5966796875,-0.27783203125,-0.4560546875,46.28048780487805,-13.658536585365855,-17.25609756097561,150,4
39,0.5888671875,-0.36474609375,-0.572265625,2.5609756097560976,-1.0975609756097562,-14.695121951219514,150,4
40,0.6474609375,-0.25146484375,-0.65087890625,-23.29268292682927,7.378048780487806,-31.219512195121954,150,4
41,0.7041015625,-0.25830078125,-0.76953125,-55.304878048780495,18.53658536585366,-14.939024390243905,150,4
42,0.6884765625,-0.26904296875,-0.7265625,-89.14634146341464,28.658536585365855,-15.975609756097562,150,4
43,0.6376953125,-0.21044921875,-0.59521484375,-108.59756097560977,35.36585365853659,-16.402439024390244,150,4
44,0.8544921875,-0.193359375,-0.47021484375,-106.70731707317074,29.75609756097561,-16.402439024390244,150,4
45,0.92626953125,-0.134765625,-0.205078125,-79.57317073170732,11.951219512195124,-25.0609756097561,150,4
46,0.904296875,-0.10009765625,0.0224609375,-39.08536585365854,-14.695121951219514,-19.085365853658537,150,4
47,0.66943359375,-0.33740234375,0.08642578125,-9.085365853658537,-23.29268292682927,-18.597560975609756,150,4
48,0.6455078125,-0.4169921875,0.01953125,4.634146341463415,-22.98780487804878,-26.402439024390247,150,4
49,0.7275390625,-0.23095703125,-0.00537109375,0.30487804878048785,-27.743902439024392,-26.28048780487805,150,4
50,0.58935546875,-0.26025390625,-0.0576171875,28.10975609756098,-32.5,-14.146341463414636,150,4
51,0.509765625,-0.27734375,-0.24951171875,16.646341463414636,-22.621951219512198,-3.353658536585366,150,4
52,0.62255859375,-0.37353515625,-0.36962890625,-1.1585365853658538,-15.365853658536587,-1.0975609756097562,150,4
53,0.79736328125,-0.1552734375,-0.3427734375,-0.24390243902439027,-17.621951219512198,1.524390243902439,150,4
54,0.81396484375,-0.19482421875,-0.43994140625,-5.060975609756098,-20.60975609756098,4.024390243902439,150,4
55,0.74072265625,-0.32568359375,-0.583984375,-7.926829268292684,-26.52439024390244,5.060975609756098,150,4
56,0.77392578125,-0.341796875,-0.54296875,-1.524390243902439,-25.426829268292686,4.634146341463415,150,4
57,0.74365234375,-0.45556640625,-0.39501953125,-6.646341463414635,-28.84146341463415,8.536585365853659,150,4
58,0.65283203125,-0.6376953125,-0.35791015625,-2.9268292682926833,-24.939024390243905,7.987804878048781,150,4
59,0.6669921875,-0.49462890625,-0.37353515625,6.341463414634147,-26.82926829268293,7.01219512195122,150,4
60,0.64306640625,-0.55029296875,-0.34423828125,14.573170731707318,-29.451219512195124,7.621951219512196,150,4
61,0.6181640625,-0.5458984375,-0.4169921875,16.585365853658537,-26.58536585365854,5.609756097560976,150,4
62,0.69091796875,-0.4111328125,-0.44921875,14.085365853658537,-24.390243902439025,3.048780487804878,150,4
63,0.75,-0.2900390625,-0.443359375,10.914634146341465,-22.195121951219512,3.658536585365854,150,4
64,0.71435546875,-0.25830078125,-0.396484375,6.341463414634147,-18.78048780487805,4.451219512195122,150,4
65,0.69873046875,-0.251953125,-0.38232421875,0.6707317073170732,-15.914634146341465,2.439024390243903,150,4
66,0.70556640625,-0.18994140625,-0.34619140625,-0.06097560975609757,-14.451219512195124,0.12195121951219513,150,4
67,0.67529296875,-0.19970703125,-0.345703125,4.2682926829268295,-14.207317073170733,-1.0365853658536586,150,4
68,0.6396484375,-0.2373046875,-0.38623046875,6.7682926829268295,-12.134146341463415,-2.8658536585365857,150,4
69,0.63232421875,-0.23974609375,-0.4443359375,7.743902439024391,-10.731707317073171,-5.060975609756098,150,4
70,0.6357421875,-0.19287109375,-0.486328125,9.02439024390244,-7.987804878048781,-7.195121951219513,150,4
71,0.64208984375,-0.15380859375,-0.5087890625,7.317073170731708,-3.7195121951219514,-7.8048780487804885,150,4
72,0.6318359375,-0.2431640625,-0.52978515625,4.329268292682928,-0.6707317073170732,-7.195121951219513,150,4
73,0.6240234375,-0.12060546875,-0.5830078125,1.7682926829268295,3.353658536585366,-7.8048780487804885,150,4
74,0.619140625,-0.09521484375,-0.60009765625,-2.5,8.597560975609756,-8.902439024390244,150,4
75,0.74853515625,-0.11865234375,-0.583984375,-5.3048780487804885,0.0,-9.695121951219512,150,4
76,0.625,-0.1142578125,-0.56982421875,-10.24390243902439,23.04878048780488,-10.914634146341465,150,4
77,0.61962890625,-0.099609375,-0.5693359375,-14.329268292682928,27.987804878048784,-12.073170731707318,150,4
78,0.6337890625,-0.083984375,-0.58740234375,-13.597560975609758,27.500000000000004,-12.195121951219512,150,4
79,0.599609375,-0.16796875,-0.71240234375,-10.365853658536587,25.243902439024392,-14.878048780487806,150,4
80,0.58740234375,-0.1884765625,-0.74169921875,-6.463414634146342,23.719512195121954,-19.81707317073171,150,4
81,0.6611328125,-0.1103515625,-0.7177734375,-4.329268292682928,21.951219512195124,-22.195121951219512,150,4
82,0.671875,-0.10986328125,-0.70068359375,-2.378048780487805,19.32926829268293,-22.378048780487806,150,4
83,0.74169921875,-0.1875,-0.681640625,-0.426829268292683,19.26829268292683,-23.04878048780488,150,4
84,0.6005859375,-0.23486328125,-0.63427734375,4.329268292682928,18.84146341463415,-23.902439024390247,150,4
85,0.6201171875,-0.23095703125,-0.62109375,7.01219512195122,17.865853658536587,-24.512195121951223,150,4
86,0.6494140625,-0.2158203125,-0.57763671875,7.195121951219513,18.231707317073173,-22.98780487804878,150,4
87,0.66259765625,-0.24072265625,-0.572265625,5.670731707317073,17.682926829268293,-21.463414634146343,150,4
88,0.68408203125,-0.25537109375,-0.58056640625,8.109756097560977,16.28048780487805,-20.48780487804878,150,4
89,0.72119140625,-0.28173828125,-0.57568359375,14.634146341463415,11.829268292682928,-19.32926829268293,150,4
90,0.736328125,-0.31494140625,-0.60302734375,16.70731707317073,9.085365853658537,-19.695121951219512,150,4
91,0.740234375,-0.30859375,-0.6181640625,19.878048780487806,8.292682926829269,-20.48780487804878,150,4
92,0.75390625,-0.2841796875,-0.630859375,22.80487804878049,6.951219512195123,-21.34146341463415,150,4
93,0.7509765625,-0.27734375,-0.74169921875,24.573170731707318,6.646341463414635,-21.097560975609756,150,4
94,0.73388671875,-0.2958984375,-0.6103515625,22.195121951219512,7.317073170731708,-20.0609756097561,150,4
95,0.69140625,-0.30859375,-0.59130859375,19.939024390243905,5.7926829268292686,-17.926829268292686,150,4
96,0.67431640625,-0.3212890625,-0.552734375,18.658536585365855,4.51219512195122,-15.182926829268293,150,4
97,0.63525390625,-0.36181640625,-0.54248046875,18.231707317073173,2.439024390243903,-12.073170731707318,150,4
98,0.6103515625,-0.37451171875,-0.55126953125,17.865853658536587,1.1585365853658538,-9.878048780487806,150,4
99,0.6083984375,-0.34130859375,-0.53173828125,15.975609756097562,0.0,-7.682926829268293,150,4
100,0.615234375,-0.32666015625,-0.50439453125,13.78048780487805,-0.5487804878048781,-4.51219512195122,150,4
101,0.60302734375,-0.34033203125,-0.50732421875,13.841463414634148,-3.536585365853659,-1.829268292682927,150,4
102,0.58544921875,-0.36279296875,-0.62158203125,14.695121951219514,-3.8414634146341466,-0.6707317073170732,150,4
103,0.5751953125,-0.37744140625,-0.46728515625,16.646341463414636,-4.634146341463415,0.3658536585365854,150,4
104,0.5712890625,-0.36279296875,-0.462890625,17.073170731707318,-5.182926829268293,1.2195121951219514,150,4
105,0.57275390625,-0.34228515625,-0.44921875,15.731707317073171,-6.402439024390245,3.048780487804878,150,4
106,0.55615234375,-0.341796875,-0.4345703125,13.963414634146343,-7.073170731707318,4.939024390243903,150,4
107,0.544921875,-0.337890625,-0.4091796875,12.621951219512196,-7.682926829268293,6.463414634146342,150,4
108,0.5537109375,-0.3369140625,-0.392578125,12.378048780487806,-8.475609756097562,7.560975609756098,150,4
109,0.5712890625,-0.31298828125,-0.3544921875,12.317073170731708,-9.26829268292683,7.926829268292684,150,4
110,0.5751953125,-0.31396484375,-0.34716796875,12.560975609756099,-10.670731707317074,8.353658536585366,150,4
111,0.61181640625,-0.2919921875,-0.3271484375,11.829268292682928,-11.036585365853659,7.682926829268293,150,4
112,0.638671875,-0.2783203125,-0.3212890625,12.317073170731708,-12.865853658536587,7.743902439024391,150,4
113,0.63916015625,-0.31005859375,-0.3115234375,15.54878048780488,-15.182926829268293,7.865853658536586,150,4
114,0.65185546875,-0.33447265625,-0.3037109375,17.195121951219512,-16.219512195121954,8.231707317073171,150,4
115,0.7001953125,-0.3291015625,-0.34423828125,18.04878048780488,-18.04878048780488,8.475609756097562,150,4
116,0.7490234375,-0.328125,-0.375,17.195121951219512,-18.597560975609756,9.207317073170733,150,4
117,0.78125,-0.33251953125,-0.40966796875,15.243902439024392,-19.81707317073171,10.731707317073171,150,4
118,0.83740234375,-0.30126953125,-0.4267578125,10.121951219512196,-18.84146341463415,10.365853658536587,150,4
119,0.8818359375,-0.28369140625,-0.431640625,4.390243902439025,-17.926829268292686,11.76829268292683,150,4
120,0.86865234375,-0.3251953125,-0.4306640625,2.9268292682926833,-17.5609756097561,11.76829268292683,150,4
121,0.880859375,-0.34521484375,-0.41796875,2.25609756097561,-17.073170731707318,11.219512195121952,150,4
122,0.8759765625,-0.35791015625,-0.4033203125,2.987804878048781,-17.5609756097561,10.731707317073171,150,4
123,0.85302734375,-0.34375,-0.41162109375,4.207317073170732,-17.682926829268293,10.487804878048781,150,4
124,0.833984375,-0.3525390625,-0.42822265625,2.3170731707317076,-16.402439024390244,10.731707317073171,150,4
125,0.8056640625,-0.33984375,-0.3984375,-2.5,-13.841463414634148,11.52439024390244,150,4
126,0.7763671875,-0.31982421875,-0.412109375,-5.365853658536586,-12.195121951219512,12.500000000000002,150,4
127,0.76123046875,-0.275390625,-0.404296875,-5.914634146341464,-11.341463414634147,12.80487804878049,150,4
128,0.87451171875,-0.23486328125,-0.41650390625,-6.463414634146342,-10.0,13.109756097560977,150,4
129,0.7080078125,-0.24267578125,-0.44775390625,-6.951219512195123,-9.573170731707318,13.231707317073171,150,4
130,0.6494140625,-0.25830078125,-0.4658203125,-7.378048780487806,-7.01219512195122,12.256097560975611,150,4
131,0.6083984375,-0.2607421875,-0.44482421875,-5.975609756097562,-3.536585365853659,10.487804878048781,150,4
132,0.57080078125,-0.26025390625,-0.4443359375,-3.1097560975609757,-1.0975609756097562,10.182926829268293,150,4
133,0.5439453125,-0.37158203125,-0.46533203125,-1.402439024390244,2.25609756097561,9.878048780487806,150,4
134,0.53662109375,-0.2509765625,-0.55615234375,-2.378048780487805,5.548780487804878,9.939024390243903,150,4
135,0.52001953125,-0.23583984375,-0.64599609375,-4.878048780487806,9.878048780487806,10.0,150,4
136,0.53564453125,-0.1982421875,-0.67236328125,-7.317073170731708,14.146341463414636,10.24390243902439,150,4
137,0.548828125,-0.1689453125,-0.6708984375,-10.731707317073171,18.475609756097562,10.609756097560977,150,4
138,0.55322265625,-0.1591796875,-0.7041015625,-13.902439024390246,23.04878048780488,10.914634146341465,150,4
139,0.56982421875,-0.162109375,-0.69921875,-15.243902439024392,26.34146341463415,11.097560975609756,150,4
140,0.5791015625,-0.18212890625,-0.71240234375,-13.29268292682927,27.621951219512198,10.30487804878049,150,4
141,0.6083984375,-0.17822265625,-0.72265625,-9.146341463414634,27.682926829268297,8.109756097560977,150,4
142,0.6455078125,-0.16943359375,-0.71484375,-4.573170731707317,27.621951219512198,5.853658536585367,150,4
143,0.67529296875,-0.158203125,-0.70703125,-1.4634146341463417,27.378048780487806,2.9268292682926833,150,4
144,0.69189453125,-0.14599609375,-0.68798828125,1.3414634146341464,26.463414634146343,0.06097560975609757,150,4
145,0.7041015625,-0.134765625,-0.64697265625,4.024390243902439,25.0609756097561,-3.1707317073170733,150,4
146,0.7060546875,-0.130859375,-0.6201171875,5.060975609756098,23.902439024390247,-6.158536585365854,150,4
147,0.70458984375,-0.125,-0.578125,5.2439024390243905,22.378048780487806,-8.292682926829269,150,4
148,0.7001953125,-0.1337890625,-0.54443359375,4.75609756097561,21.402439024390247,-10.060975609756099,150,4
149,0.6787109375,-0.1474609375,-0.517578125,5.609756097560976,19.81707317073171,-11.219512195121952,150,4
150,0.65478515625,-0.1826171875,-0.51318359375,6.829268292682928,18.04878048780488,-12.073170731707318,150,4
151,0.64599609375,-0.1875,-0.521484375,7.25609756097561,18.04878048780488,-13.170731707317074,150,4
152,0.65380859375,-0.166015625,-0.51953125,7.01219512195122,17.926829268292686,-13.78048780487805,150,4
153,0.6787109375,-0.1484375,-0.52978515625,6.463414634146342,17.804878048780488,-13.841463414634148,150,4
154,0.6669921875,-0.15185546875,-0.5537109375,6.7682926829268295,17.134146341463417,-13.353658536585368,150,4
155,0.66845703125,-0.1572265625,-0.5712890625,7.317073170731708,31.09756097560976,-13.597560975609758,150,4
156,0.67431640625,-0.15625,-0.591796875,7.865853658536586,14.51219512195122,-14.695121951219514,150,4
157,0.69189453125,-0.12548828125,-0.60107421875,8.475609756097562,13.109756097560977,-15.121951219512196,150,4
158,0.7099609375,-0.0966796875,-0.5830078125,7.926829268292684,12.621951219512196,-15.30487804878049,150,4
159,0.7021484375,-0.11865234375,-0.56201171875,6.463414634146342,12.74390243902439,-14.329268292682928,150,4
160,0.681640625,-0.1474609375,-0.52783203125,5.426829268292684,12.987804878048781,-13.353658536585368,150,4
161,0.677734375,-0.16943359375,-0.48388671875,5.670731707317073,12.378048780487806,-12.621951219512196,150,4
162,0.68505859375,-0.18896484375,-0.47265625,6.829268292682928,11.463414634146343,-12.317073170731708,150,4
163,0.6796875,-0.19287109375,-0.46435546875,8.292682926829269,11.158536585365855,-12.195121951219512,150,4
164,0.68212890625,-0.2021484375,-0.41552734375,8.536585365853659,11.097560975609756,-11.890243902439025,150,4
165,0.68310546875,-0.20751953125,-0.369140625,7.560975609756098,11.463414634146343,-11.463414634146343,150,4
166,0.67333984375,-0.23388671875,-0.3193359375,7.439024390243903,11.829268292682928,-11.28048780487805,150,4
167,0.66650390625,-0.2392578125,-0.28662109375,7.25609756097561,11.646341463414634,-10.975609756097562,150,4
168,0.6669921875,-0.25634765625,-0.28466796875,7.195121951219513,11.158536585365855,-10.182926829268293,150,4
169,0.65478515625,-0.26953125,-0.27734375,6.52439024390244,9.695121951219512,-9.51219512195122,150,4
170,0.662109375,-0.27490234375,-0.28515625,5.426829268292684,8.902439024390244,-9.51219512195122,150,4
171,0.6923828125,-0.27001953125,-0.27734375,3.536585365853659,7.317073170731708,-8.78048780487805,150,4
172,0.712890625,-0.2578125,-0.279296875,2.5,3.963414634146342,-8.109756097560977,150,4
173,0.728515625,-0.2626953125,-0.2978515625,1.2195121951219514,1.402439024390244,-8.902439024390244,150,4
174,0.62939453125,-0.2568359375,-0.2939453125,1.2195121951219514,-1.829268292682927,-9.573170731707318,150,4
175,0.76171875,-0.25927734375,-0.291015625,1.5853658536585367,-5.3048780487804885,-11.402439024390246,150,4
176,0.7607421875,-0.26806640625,-0.2724609375,3.780487804878049,-9.02439024390244,-12.74390243902439,150,4
177,0.74951171875,-0.2802734375,-0.2734375,7.134146341463415,-12.865853658536587,-13.353658536585368,150,4
178,0.724609375,-0.30859375,-0.28857421875,8.78048780487805,-14.817073170731708,-13.719512195121952,150,4
179,0.7197265625,-0.31103515625,-0.2724609375,7.865853658536586,-15.121951219512196,-13.29268292682927,150,4
180,0.7373046875,-0.29296875,-0.2939453125,5.365853658536586,-14.451219512195124,-11.341463414634147,150,4
181,0.728515625,-0.30078125,-0.3251953125,3.353658536585366,-13.475609756097562,-7.743902439024391,150,4
182,0.71044921875,-0.31689453125,-0.36572265625,0.0,-10.548780487804878,-3.963414634146342,150,4
183,0.7109375,-0.3212890625,-0.38916015625,-4.695121951219512,-7.317073170731708,-15.365853658536587,150,4
184,0.71484375,-0.30517578125,-0.44140625,-8.475609756097562,-4.451219512195122,4.817073170731708,150,4
185,0.716796875,-0.3076171875,-0.478515625,-11.646341463414634,-0.6707317073170732,8.475609756097562,150,4
186,0.73291015625,-0.30224609375,-0.53125,-18.353658536585368,3.4756097560975614,10.548780487804878,150,4
187,0.75732421875,-0.25830078125,-0.55126953125,-24.085365853658537,6.7682926829268295,11.52439024390244,150,4
188,0.74267578125,-0.26416015625,-0.552734375,-24.512195121951223,7.378048780487806,11.890243902439025,150,4
189,0.71337890625,-0.28955078125,-0.5673828125,-20.914634146341466,6.036585365853659,10.487804878048781,150,4
190,0.689453125,-0.31005859375,-0.5693359375,-16.03658536585366,4.329268292682928,7.987804878048781,150,4
191,0.65576171875,-0.30712890625,-0.560546875,-12.073170731707318,3.2926829268292686,5.487804878048781,150,4
192,0.638671875,-0.27392578125,-0.53076171875,-10.426829268292684,2.8658536585365857,4.75609756097561,150,4
193,0.61279296875,-0.27685546875,-0.49169921875,-9.02439024390244,4.085365853658537,5.3048780487804885,150,4
194,0.568359375,-0.3076171875,-0.4794921875,-7.8048780487804885,5.914634146341464,5.731707317073171,150,4
195,0.546875,-0.31591796875,-0.46875,-6.219512195121951,7.500000000000001,6.036585365853659,150,4
196,0.54443359375,-0.3125,-0.470703125,-4.817073170731708,9.207317073170733,6.2804878048780495,150,4
197,0.548828125,-0.28076171875,-0.4951171875,-4.085365853658537,10.0,7.195121951219513,150,4
198,0.55419921875,-0.27783203125,-0.5478515625,-3.8414634146341466,11.036585365853659,7.500000000000001,150,4
199,0.580078125,-0.2353515625,-0.5908203125,-4.024390243902439,11.219512195121952,7.8048780487804885,150,4
200,0.60498046875,-0.21240234375,-0.60595703125,-5.487804878048781,11.951219512195124,7.621951219512196,150,4
201,0.6142578125,-0.18505859375,-0.63037109375,-7.01219512195122,12.439024390243903,7.621951219512196,150,4
202,0.6318359375,-0.19580078125,-0.7490234375,-7.743902439024391,12.01219512195122,6.7682926829268295,150,4
203,0.6201171875,-0.1708984375,-0.61181640625,-7.073170731707318,10.853658536585368,5.731707317073171,150,4
204,0.6162109375,-0.16357421875,-0.59228515625,-5.365853658536586,10.121951219512196,4.878048780487806,150,4
205,0.6142578125,-0.18603515625,-0.57763671875,-4.573170731707317,9.939024390243903,4.634146341463415,150,4
206,0.61669921875,-0.20361328125,-0.53662109375,-4.51219512195122,11.341463414634147,5.0,150,4
207,0.64990234375,-0.2080078125,-0.49951171875,-6.341463414634147,13.597560975609758,4.817073170731708,150,4
208,0.671875,-0.1748046875,-0.47998046875,-6.890243902439025,17.25609756097561,5.2439024390243905,150,4
209,0.681640625,-0.20556640625,-0.45556640625,-6.646341463414635,20.0,5.853658536585367,150,4
210,0.71044921875,-0.19970703125,-0.46728515625,-6.219512195121951,19.878048780487806,5.182926829268293,150,4
211,0.73291015625,-0.16259765625,-0.5458984375,-3.048780487804878,14.451219512195124,4.939024390243903,150,4
212,0.724609375,-0.19970703125,-0.6181640625,-15.365853658536587,9.878048780487806,2.7439024390243905,150,4
213,0.732421875,-0.197265625,-0.669921875,2.378048780487805,6.402439024390245,1.3414634146341464,150,4
214,0.77294921875,-0.1416015625,-0.6591796875,-0.9756097560975611,4.939024390243903,1.7682926829268295,150,4
215,0.7705078125,-0.13720703125,-0.607421875,-6.646341463414635,5.609756097560976,3.231707317073171,150,4
216,0.72412109375,-0.171875,-0.5546875,-9.634146341463415,3.963414634146342,2.073170731707317,150,4
217,0.72900390625,-0.12744140625,-0.48876953125,-9.329268292682928,1.4634146341463417,2.5,150,4
218,0.73291015625,-0.12744140625,-0.42529296875,-7.01219512195122,1.1585365853658538,2.8658536585365857,150,4
219,0.70751953125,-0.18603515625,-0.36279296875,-6.707317073170732,0.6707317073170732,3.1097560975609757,150,4
220,0.7001953125,-0.1787109375,-0.3154296875,-6.463414634146342,2.073170731707317,5.426829268292684,150,4
221,0.6376953125,-0.23193359375,-0.2919921875,-2.378048780487805,1.2804878048780488,7.378048780487806,150,4
222,0.603515625,-0.26953125,-0.33349609375,5.548780487804878,-2.6219512195121952,9.085365853658537,150,4
223,0.59912109375,-0.28125,-0.49853515625,14.390243902439027,-4.146341463414634,11.829268292682928,150,4
224,0.5888671875,-0.296875,-0.455078125,20.0,-9.390243902439025,13.658536585365855,150,4
225,0.63916015625,-0.30078125,-0.48486328125,26.402439024390247,-10.975609756097562,15.975609756097562,150,4
226,0.66357421875,-0.2890625,-0.48828125,30.000000000000004,-11.036585365853659,15.30487804878049,150,4
227,0.7158203125,-0.23876953125,-0.490234375,34.87804878048781,-13.04878048780488,15.79268292682927,150,4
228,0.7294921875,-0.23583984375,-0.62158203125,40.73170731707317,-15.79268292682927,15.609756097560977,150,4
229,0.70947265625,-0.2529296875,-0.51416015625,45.0609756097561,-18.902439024390244,17.012195121951223,150,4
230,0.6630859375,-0.3466796875,-0.52197265625,50.1219512195122,-22.865853658536587,19.085365853658537,150,4
231,0.6259765625,-0.35546875,-0.51904296875,54.93902439024391,-28.59756097560976,19.75609756097561,150,4
232,0.60107421875,-0.31640625,-0.494140625,61.463414634146346,-33.963414634146346,22.5609756097561,150,4
233,0.5732421875,-0.29541015625,-0.45068359375,62.07317073170732,-36.463414634146346,24.390243902439025,150,4
234,0.5712890625,-0.2705078125,-0.4150390625,60.1829268292683,-38.47560975609756,27.926829268292686,150,4
235,0.51904296875,-0.2900390625,-0.416015625,64.14634146341464,-45.36585365853659,32.31707317073171,150,4
236,0.48779296875,-0.28955078125,-0.44775390625,72.37804878048782,-52.37804878048781,34.146341463414636,150,4
237,0.517578125,-0.24462890625,-0.52099609375,80.0609756097561,-60.1219512195122,34.63414634146342,150,4
238,0.52978515625,-0.2314453125,-0.54345703125,87.98780487804879,-67.7439024390244,35.1219512195122,150,4
239,0.52294921875,-0.208984375,-0.5263671875,91.40243902439025,-70.1219512195122,32.86585365853659,150,4
240,0.5810546875,-0.1416015625,-0.455078125,91.46341463414635,-67.7439024390244,28.963414634146343,150,4
241,0.62939453125,-0.0693359375,-0.423828125,91.76829268292684,-66.64634146341464,25.243902439024392,150,4
242,0.63134765625,-0.0556640625,-0.44189453125,94.69512195121952,-67.8658536585366,25.365853658536587,150,4
243,0.599609375,-0.0712890625,-0.4501953125,103.23170731707317,-73.29268292682927,26.52439024390244,150,4
244,0.59765625,-0.0791015625,-0.4912109375,111.15853658536587,-80.1829268292683,27.682926829268297,150,4
245,0.603515625,-0.1318359375,-0.53125,118.65853658536587,-84.51219512195122,28.963414634146343,150,4
246,0.59033203125,-0.17626953125,-0.5693359375,122.01219512195124,-82.7439024390244,27.134146341463417,150,4
247,1.0849609375,0.6064453125,-1.70361328125,44.87804878048781,-147.07317073170734,71.70731707317074,150,4
248,-0.638671875,-4.90625,-1.32763671875,133.84146341463415,-70.1219512195122,235.5487804878049,150,4
249,-4.10693359375,-0.99609375,0.69970703125,-163.65853658536588,192.6829268292683,-8.963414634146343,150,4
250,2.64306640625,1.79833984375,-0.1982421875,-115.1829268292683,48.170731707317074,-65.42682926829269,150,4
251,1.47802734375,-0.740234375,-0.3623046875,17.195121951219512,-12.195121951219512,8.658536585365855,150,4
252,0.89453125,1.021484375,-0.7685546875,-70.60975609756098,50.85365853658537,6.707317073170732,150,4
253,0.88818359375,0.16845703125,0.0458984375,-45.1829268292683,4.085365853658537,14.390243902439027,150,4
254,0.81005859375,-0.49365234375,0.1435546875,60.426829268292686,-36.524390243902445,-17.682926829268293,150,4
255,0.31591796875,-0.56494140625,-0.47216796875,81.03658536585367,-32.37804878048781,-31.89024390243903,150,4
256,0.5234375,-0.24853515625,-0.56884765625,43.59756097560976,-15.731707317073171,-24.390243902439025,150,4
257,0.7685546875,0.31201171875,-0.4814453125,31.463414634146343,-15.609756097560977,-8.597560975609756,150,4
258,1.21533203125,0.619140625,-0.64404296875,25.60975609756098,-10.30487804878049,-5.7926829268292686,150,4
259,0.99658203125,0.0771484375,-0.6298828125,12.134146341463415,-3.963414634146342,-6.7682926829268295,150,4
260,0.8310546875,-0.31591796875,-0.716796875,7.073170731707318,-10.0,-1.707317073170732,150,4
261,0.8095703125,-0.48974609375,-0.75732421875,12.987804878048781,-5.7926829268292686,15.243902439024392,150,4
262,0.6298828125,-0.58251953125,-0.56787109375,1.7682926829268295,12.073170731707318,-10.609756097560977,150,4
263,0.67138671875,-0.4189453125,-0.47021484375,-2.682926829268293,21.219512195121954,-18.10975609756098,150,4
264,0.7158203125,-0.05859375,-0.43896484375,-2.6219512195121952,26.951219512195124,-20.60975609756098,150,4
265,0.80322265625,0.03369140625,-0.40478515625,-6.219512195121951,31.280487804878053,-20.182926829268293,150,4
266,0.73193359375,-0.0537109375,-0.39111328125,-2.5609756097560976,26.646341463414636,-19.26829268292683,150,4
267,0.65283203125,-0.1708984375,-0.54296875,7.378048780487806,20.30487804878049,-19.451219512195124,150,4
268,0.65673828125,-0.21826171875,-0.50439453125,10.30487804878049,17.439024390243905,-17.926829268292686,150,4
269,0.67529296875,-0.265625,-0.72412109375,7.682926829268293,18.658536585365855,-14.695121951219514,150,4
270,0.64794921875,-0.27490234375,-0.54150390625,1.0975609756097562,22.012195121951223,-12.865853658536587,150,4
271,0.6328125,-0.28466796875,-0.47607421875,-4.51219512195122,27.25609756097561,-11.341463414634147,150,4
272,0.6689453125,-0.26953125,-0.4521484375,-8.048780487804878,29.02439024390244,-10.914634146341465,150,4
273,0.67822265625,-0.3046875,-0.44287109375,-12.195121951219512,31.76829268292683,-10.914634146341465,150,4
274,0.6337890625,-0.34716796875,-0.43505859375,-9.695121951219512,30.975609756097565,-11.585365853658537,150,4
275,0.64404296875,-0.33056640625,-0.4501953125,-3.7195121951219514,29.81707317073171,-13.841463414634148,150,4
276,0.6416015625,-0.31103515625,-0.49267578125,0.48780487804878053,29.451219512195124,-14.634146341463415,150,4
277,0.65283203125,-0.26904296875,-0.5546875,2.9268292682926833,28.170731707317074,-15.914634146341465,150,4
278,0.63671875,-0.30859375,-0.572265625,4.207317073170732,27.5609756097561,-16.76829268292683,150,4
279,0.6455078125,-0.29638671875,-0.58056640625,4.146341463414634,26.82926829268293,-16.34146341463415,150,4
280,0.67333984375,-0.3427734375,-0.59375,3.5975609756097566,25.54878048780488,-15.670731707317074,150,4
281,0.74462890625,-0.458984375,-0.609375,-0.6707317073170732,26.82926829268293,-13.170731707317074,150,4
282,0.6064453125,-0.4599609375,-0.52734375,-5.548780487804878,28.84146341463415,-10.792682926829269,150,4
283,0.6259765625,-0.44970703125,-0.44482421875,-5.853658536585367,29.634146341463417,-9.51219512195122,150,4
284,0.5810546875,-0.498046875,-0.4560546875,-2.5,28.902439024390247,-8.658536585365855,150,4
285,0.59033203125,-0.4736328125,-0.45068359375,-15.609756097560977,27.621951219512198,-8.292682926829269,150,4
286,0.5908203125,-0.4677734375,-0.482421875,3.048780487804878,25.0609756097561,-7.560975609756098,150,4
287,0.61572265625,-0.42578125,-0.49951171875,3.780487804878049,25.365853658536587,-7.25609756097561,150,4
288,0.61376953125,-0.43505859375,-0.49609375,-0.48780487804878053,28.414634146341466,-6.402439024390245,150,4
289,0.6015625,-0.4267578125,-0.4912109375,-2.25609756097561,29.146341463414636,-5.975609756097562,150,4
290,0.59228515625,-0.43359375,-0.5478515625,-0.6707317073170732,26.402439024390247,-5.365853658536586,150,4
291,0.58203125,-0.43115234375,-0.57080078125,1.2195121951219514,26.34146341463415,-6.829268292682928,150,4
292,0.6015625,-0.38916015625,-0.55908203125,1.0975609756097562,26.34146341463415,-7.621951219512196,150,4
293,0.611328125,-0.38525390625,-0.5087890625,-1.2804878048780488,27.80487804878049,-7.682926829268293,150,4
294,0.61474609375,-0.39208984375,-0.462890625,-3.414634146341464,28.414634146341466,-6.7682926829268295,150,4
295,0.57421875,-0.4697265625,-0.455078125,-1.707317073170732,28.84146341463415,-5.670731707317073,150,4
296,0.56005859375,-0.51904296875,-0.46875,1.0975609756097562,28.84146341463415,-6.2804878048780495,150,4
297,0.5888671875,-0.51123046875,-0.49560546875,-0.1829268292682927,29.02439024390244,-6.890243902439025,150,4
298,0.61572265625,-0.4619140625,-0.5126953125,-0.48780487804878053,28.53658536585366,-6.585365853658537,150,4
299,0.58984375,-0.50390625,-0.5546875,0.24390243902439027,25.853658536585368,-5.365853658536586,150,4
300,0.55419921875,-0.56103515625,-0.5341796875,0.7317073170731708,26.28048780487805,-6.707317073170732,150,4
301,0.5966796875,-0.53369140625,-0.51806640625,0.1829268292682927,25.182926829268293,-8.109756097560977,150,4
302,0.58203125,-0.5634765625,-0.384765625,3.963414634146342,21.82926829268293,-8.475609756097562,150,4
303,0.58154296875,-0.49951171875,-0.37548828125,6.829268292682928,17.134146341463417,-8.902439024390244,150,4
304,0.57177734375,-0.5302734375,-0.505859375,8.658536585365855,13.902439024390246,-9.573170731707318,150,4
305,0.60791015625,-0.4755859375,-0.4833984375,9.51219512195122,12.256097560975611,-10.670731707317074,150,4
306,0.61865234375,-0.4482421875,-0.42919921875,8.963414634146343,10.365853658536587,-9.939024390243903,150,4
307,0.62548828125,-0.41552734375,-0.40234375,9.329268292682928,9.26829268292683,-10.853658536585368,150,4
308,0.6337890625,-0.43115234375,-0.42529296875,9.939024390243903,7.439024390243903,-11.28048780487805,150,4
309,0.66015625,-0.41162109375,-0.4736328125,9.695121951219512,7.01219512195122,-11.341463414634147,150,4
310,0.6416015625,-0.42822265625,-0.4794921875,7.560975609756098,6.951219512195123,-10.609756097560977,150,4
311,0.671875,-0.41650390625,-0.4833984375,5.2439024390243905,6.646341463414635,-8.902439024390244,150,4
312,0.66259765625,-0.43603515625,-0.53076171875,6.036585365853659,4.817073170731708,-7.073170731707318,150,4
313,0.677734375,-0.4521484375,-0.57958984375,6.707317073170732,3.963414634146342,-5.2439024390243905,150,4
314,0.69189453125,-0.50634765625,-0.56005859375,4.2682926829268295,4.75609756097561,-2.987804878048781,150,4
315,0.69384765625,-0.53515625,-0.5439453125,1.829268292682927,6.097560975609756,0.3658536585365854,150,4
316,0.7373046875,-0.53857421875,-0.52490234375,2.8658536585365857,4.817073170731708,2.8658536585365857,150,4
317,0.759765625,-0.55859375,-0.52001953125,5.365853658536586,3.7195121951219514,5.2439024390243905,150,4
318,0.767578125,-0.57177734375,-0.50048828125,7.073170731707318,2.6219512195121952,7.195121951219513,150,4
319,0.7744140625,-0.5517578125,-0.49169921875,8.292682926829269,1.829268292682927,8.78048780487805,150,4
320,0.791015625,-0.51611328125,-0.48193359375,8.963414634146343,1.3414634146341464,8.353658536585366,150,4
321,0.7822265625,-0.46728515625,-0.38671875,6.097560975609756,1.6463414634146343,8.963414634146343,150,4
322,0.79345703125,-0.4130859375,-0.4990234375,3.231707317073171,2.682926829268293,10.121951219512196,150,4
323,0.80908203125,-0.37890625,-0.46533203125,1.8902439024390245,1.8902439024390245,13.109756097560977,150,4
324,0.775390625,-0.43896484375,-0.45849609375,2.987804878048781,-0.1829268292682927,16.82926829268293,150,4
325,0.744140625,-0.4814453125,-0.47607421875,2.682926829268293,-0.12195121951219513,19.939024390243905,150,4
326,0.72705078125,-0.49560546875,-0.48193359375,0.0,1.707317073170732,22.134146341463417,150,4
327,0.71875,-0.4677734375,-0.4794921875,-1.402439024390244,2.804878048780488,23.414634146341466,150,4
328,0.720703125,-0.431640625,-0.45654296875,-0.30487804878048785,1.402439024390244,23.353658536585368,150,4
329,0.72705078125,-0.40478515625,-0.45654296875,2.073170731707317,0.1829268292682927,21.585365853658537,150,4
330,0.70849609375,-0.390625,-0.43359375,4.085365853658537,-2.0121951219512195,20.0,150,4
331,0.69580078125,-0.37890625,-0.4169921875,7.682926829268293,-4.939024390243903,17.743902439024392,150,4
332,0.677734375,-0.3671875,-0.40380859375,12.01219512195122,-7.621951219512196,15.853658536585368,150,4
333,0.66015625,-0.3505859375,-0.4150390625,13.475609756097562,-8.353658536585366,14.146341463414636,150,4
334,0.6806640625,-0.27978515625,-0.43115234375,10.487804878048781,-6.52439024390244,13.170731707317074,150,4
335,0.6953125,-0.20654296875,-0.4169921875,5.426829268292684,-3.4756097560975614,12.80487804878049,150,4
336,0.69677734375,-0.13427734375,-0.3994140625,-0.48780487804878053,-0.6097560975609757,13.231707317073171,150,4
337,0.6904296875,-0.08935546875,-0.341796875,-0.6097560975609757,-1.4634146341463417,14.207317073170733,150,4
338,0.6806640625,-0.07373046875,-0.2822265625,2.8658536585365857,-2.8658536585365857,12.987804878048781,150,4
339,0.67041015625,-0.09521484375,-0.3134765625,9.085365853658537,-5.182926829268293,11.036585365853659,150,4
340,0.66455078125,-0.0947265625,-0.35107421875,12.560975609756099,-4.146341463414634,7.8048780487804885,150,4
341,0.69189453125,-0.0703125,-0.353515625,13.414634146341465,-3.1097560975609757,5.731707317073171,150,4
342,0.67041015625,-0.08984375,-0.35791015625,14.695121951219514,-1.829268292682927,3.7195121951219514,150,4
343,0.67529296875,-0.0908203125,-0.392578125,14.817073170731708,-0.12195121951219513,1.707317073170732,150,4
344,0.712890625,-0.05712890625,-0.45751953125,12.256097560975611,1.7682926829268295,-0.24390243902439027,150,4
345,0.7138671875,-0.060546875,-0.48974609375,11.036585365853659,1.6463414634146343,0.853658536585366,150,4
346,0.6982421875,-0.14111328125,-0.470703125,9.329268292682928,3.414634146341464,0.7317073170731708,150,4
347,0.6474609375,-0.2705078125,-0.4248046875,8.048780487804878,5.7926829268292686,0.06097560975609757,150,4
348,0.59912109375,-0.28564453125,-0.4208984375,8.292682926829269,7.01219512195122,-2.073170731707317,150,4
349,0.59716796875,-0.25927734375,-0.43505859375,7.987804878048781,8.658536585365855,-4.573170731707317,150,4
350,0.62255859375,-0.2138671875,-0.44580078125,3.780487804878049,11.707317073170733,-7.134146341463415,150,4
351,0.6396484375,-0.20703125,-0.4658203125,0.30487804878048785,13.29268292682927,-7.865853658536586,150,4
352,0.65966796875,-0.23876953125,-0.38037109375,0.24390243902439027,12.74390243902439,-8.414634146341465,150,4
353,0.6533203125,-0.28369140625,-0.484375,0.48780487804878053,12.987804878048781,-7.8048780487804885,150,4
354,0.505859375,-0.341796875,-0.47802734375,-1.2804878048780488,15.30487804878049,-9.817073170731708,150,4
355,0.70458984375,-0.2705078125,-0.4462890625,-3.9024390243902443,15.79268292682927,-10.487804878048781,150,4
356,0.68994140625,-0.2919921875,-0.427734375,-3.658536585365854,16.219512195121954,-10.853658536585368,150,4
357,0.70751953125,-0.30078125,-0.44384765625,-3.048780487804878,15.000000000000002,-11.829268292682928,150,4
358,0.7099609375,-0.33740234375,-0.3955078125,0.426829268292683,12.621951219512196,-13.109756097560977,150,4
359,0.71240234375,-0.38720703125,-0.40576171875,5.914634146341464,9.207317073170733,-14.756097560975611,150,4
360,0.72314453125,-0.3896484375,-0.4208984375,11.52439024390244,5.2439024390243905,-16.34146341463415,150,4
361,0.716796875,-0.4052734375,-0.45947265625,15.365853658536587,3.8414634146341466,-17.134146341463417,150,4
362,0.7197265625,-0.40234375,-0.45947265625,16.34146341463415,3.048780487804878,-17.682926829268293,150,4
363,0.70556640625,-0.4658203125,-0.46044921875,15.30487804878049,4.085365853658537,-16.890243902439025,150,4
364,0.7060546875,-0.427734375,-0.44677734375,12.987804878048781,5.182926829268293,-16.463414634146343,150,4
365,0.68212890625,-0.44140625,-0.45361328125,11.341463414634147,6.341463414634147,-15.060975609756099,150,4
366,0.67431640625,-0.42041015625,-0.4501953125,9.085365853658537,7.621951219512196,-13.902439024390246,150,4
367,0.6875,-0.39501953125,-0.431640625,6.646341463414635,7.743902439024391,-12.74390243902439,150,4
368,0.6669921875,-0.40234375,-0.4365234375,5.365853658536586,7.01219512195122,-11.158536585365855,150,4
369,0.64453125,-0.40869140625,-0.4443359375,5.487804878048781,5.0,-10.060975609756099,150,4
370,0.63720703125,-0.43994140625,-0.45654296875,7.073170731707318,3.048780487804878,-8.719512195121952,150,4
371,0.6162109375,-0.46044921875,-0.44384765625,9.329268292682928,1.829268292682927,-8.109756097560977,150,4
372,0.607421875,-0.47705078125,-0.4677734375,13.597560975609758,-0.7926829268292683,-7.25609756097561,150,4
373,0.61279296875,-0.4619140625,-0.47412109375,16.82926829268293,-2.073170731707317,-6.890243902439025,150,4
374,0.63720703125,-0.43994140625,-0.46875,18.53658536585366,-1.829268292682927,-6.7682926829268295,150,4
375,0.67138671875,-0.42138671875,-0.46923828125,18.10975609756098,-0.7317073170731708,-5.7926829268292686,150,4
376,0.673828125,-0.412109375,-0.44970703125,16.70731707317073,-0.06097560975609757,-4.878048780487806,150,4
377,0.68505859375,-0.39697265625,-0.447265625,15.182926829268293,0.12195121951219513,-3.9024390243902443,150,4
378,0.6669921875,-0.40380859375,-0.42236328125,12.378048780487806,0.5487804878048781,-2.8658536585365857,150,4
379,0.6591796875,-0.41064453125,-0.38037109375,11.158536585365855,-0.426829268292683,-1.402439024390244,150,4
380,0.6611328125,-0.41064453125,-0.3603515625,11.585365853658537,-1.829268292682927,-1.5853658536585367,150,4
381,0.67333984375,-0.421875,-0.33447265625,11.707317073170733,-2.378048780487805,-2.1341463414634148,150,4
382,0.66259765625,-0.4267578125,-0.31787109375,13.841463414634148,-3.414634146341464,-2.804878048780488,150,4
383,0.65283203125,-0.43798828125,-0.310546875,17.926829268292686,-3.4756097560975614,-3.8414634146341466,150,4
384,0.64453125,-0.48193359375,-0.26806640625,21.707317073170735,-4.146341463414634,-4.146341463414634,150,4
385,0.62939453125,-0.54052734375,-0.29345703125,26.89024390243903,-8.231707317073171,-2.6219512195121952,150,4
386,0.66015625,-0.43359375,-0.37451171875,35.426829268292686,-9.878048780487806,-5.3048780487804885,150,4
387,0.6318359375,-0.2919921875,-0.39892578125,36.34146341463415,-4.2682926829268295,-5.914634146341464,150,4
388,0.7353515625,-0.279296875,-0.419921875,32.13414634146342,2.0121951219512195,-5.426829268292684,150,4
389,0.74560546875,-0.2763671875,-0.4013671875,25.30487804878049,9.51219512195122,-4.695121951219512,150,4
390,0.7509765625,-0.29736328125,-0.36083984375,18.475609756097562,15.30487804878049,-3.658536585365854,150,4
391,0.724609375,-0.337890625,-0.35498046875,16.402439024390244,19.146341463414636,-1.0365853658536586,150,4
392,0.69091796875,-0.37890625,-0.34423828125,15.975609756097562,21.219512195121954,-0.5487804878048781,150,4
393,0.69677734375,-0.49755859375,-0.3720703125,19.26829268292683,20.54878048780488,-0.6707317073170732,150,4
394,0.689453125,-0.39013671875,-0.373046875,24.02439024390244,18.04878048780488,0.9756097560975611,150,4
395,0.70703125,-0.4296875,-0.42626953125,28.59756097560976,14.329268292682928,2.987804878048781,150,4
396,0.68994140625,-0.41943359375,-0.412109375,34.87804878048781,10.365853658536587,2.3170731707317076,150,4
397,0.72021484375,-0.3955078125,-0.42236328125,37.743902439024396,6.829268292682928,1.2804878048780488,150,4
398,0.705078125,-0.36181640625,-0.4462890625,40.487804878048784,3.536585365853659,1.2804878048780488,150,4
399,0.6806640625,-0.33984375,-0.451171875,42.37804878048781,0.06097560975609757,1.6463414634146343,150,4
400,0.68359375,-0.294921875,-0.48291015625,44.024390243902445,-3.658536585365854,0.9756097560975611,150,4
401,0.68115234375,-0.2900390625,-0.462890625,43.84146341463415,-4.207317073170732,1.0365853658536586,150,4
402,0.66162109375,-0.31884765625,-0.43798828125,40.304878048780495,-2.987804878048781,1.7682926829268295,150,4
403,0.650390625,-0.3310546875,-0.4287109375,38.41463414634147,-3.231707317073171,2.0121951219512195,150,4
404,0.66455078125,-0.30517578125,-0.41650390625,38.78048780487805,-3.1097560975609757,1.5853658536585367,150,4
405,0.68359375,-0.3134765625,-0.439453125,38.84146341463415,-3.963414634146342,1.9512195121951221,150,4
406,0.67333984375,-0.3349609375,-0.4658203125,39.146341463414636,-6.2804878048780495,1.5853658536585367,150,4
407,0.64990234375,-0.3271484375,-0.4990234375,39.08536585365854,-7.743902439024391,1.0975609756097562,150,4
408,0.64208984375,-0.32861328125,-0.50537109375,34.81707317073171,-6.097560975609756,0.6097560975609757,150,4
409,0.64599609375,-0.31982421875,-0.5048828125,46.646341463414636,-4.146341463414634,1.9512195121951221,150,4
410,0.6376953125,-0.31982421875,-0.49658203125,25.365853658536587,-1.5853658536585367,2.1341463414634148,150,4
411,0.65869140625,-0.30810546875,-0.48974609375,20.975609756097562,-0.7317073170731708,3.536585365853659,150,4
412,0.66796875,-0.3076171875,-0.5048828125,14.146341463414636,0.1829268292682927,3.048780487804878,150,4
413,0.65478515625,-0.298828125,-0.47802734375,11.219512195121952,0.6097560975609757,4.146341463414634,150,4
414,0.65478515625,-0.3583984375,-0.47119140625,11.890243902439025,-3.5975609756097566,4.695121951219512,150,4
415,0.630859375,-0.3896484375,-0.42919921875,16.097560975609756,-6.036585365853659,5.2439024390243905,150,4
416,0.64697265625,-0.41943359375,-0.4052734375,19.695121951219512,-7.987804878048781,5.914634146341464,150,4
417,0.6328125,-0.462890625,-0.443359375,23.59756097560976,-11.890243902439025,6.890243902439025,150,4
418,0.6611328125,-0.4111328125,-0.4765625,26.28048780487805,-13.902439024390246,5.2439024390243905,150,4
419,0.6904296875,-0.34814453125,-0.37939453125,23.04878048780488,-12.195121951219512,3.4756097560975614,150,4
420,0.7333984375,-0.29150390625,-0.52685546875,30.914634146341466,-9.634146341463415,2.439024390243903,150,4
421,0.71484375,-0.28271484375,-0.5244140625,6.646341463414635,-6.219512195121951,2.073170731707317,150,4
422,0.69677734375,-0.31640625,-0.48388671875,-1.0975609756097562,-2.8658536585365857,2.378048780487805,150,4
423,0.67626953125,-0.359375,-0.45947265625,-5.060975609756098,-0.6707317073170732,3.353658536585366,150,4
424,0.68701171875,-0.36328125,-0.47509765625,-6.2804878048780495,-2.1341463414634148,3.7195121951219514,150,4
425,0.68310546875,-0.3740234375,-0.53515625,-8.78048780487805,-0.5487804878048781,2.439024390243903,150,4
426,0.6728515625,-0.353515625,-0.525390625,-13.231707317073171,0.6097560975609757,2.25609756097561,150,4
427,0.67431640625,-0.3369140625,-0.5166015625,-16.34146341463415,1.8902439024390245,1.5853658536585367,150,4
428,0.6728515625,-0.361328125,-0.50927734375,-20.30487804878049,4.817073170731708,0.5487804878048781,150,4
429,0.6767578125,-0.3583984375,-0.52197265625,-19.81707317073171,5.2439024390243905,-0.12195121951219513,150,4
430,0.6484375,-0.39892578125,-0.52099609375,-19.695121951219512,4.390243902439025,0.6707317073170732,150,4
431,0.6162109375,-0.44482421875,-0.5205078125,-19.451219512195124,3.1707317073170733,2.0121951219512195,150,4
432,0.59619140625,-0.4521484375,-0.5361328125,-16.28048780487805,0.7926829268292683,2.6219512195121952,150,4
433,0.6064453125,-0.43408203125,-0.53564453125,-15.000000000000002,0.0,3.9024390243902443,150,4
434,0.60400390625,-0.44189453125,-0.533203125,-17.682926829268293,1.0365853658536586,5.914634146341464,150,4
435,0.58544921875,-0.45849609375,-0.5166015625,-21.158536585365855,3.780487804878049,6.829268292682928,150,4
436,0.603515625,-0.43115234375,-0.509765625,-24.573170731707318,7.01219512195122,7.01219512195122,150,4
437,0.64599609375,-0.4140625,-0.4794921875,-27.012195121951223,8.597560975609756,8.231707317073171,150,4
438,0.64111328125,-0.41650390625,-0.486328125,-28.475609756097562,10.792682926829269,8.475609756097562,150,4
439,0.6572265625,-0.39794921875,-0.4951171875,-30.670731707317074,12.80487804878049,7.378048780487806,150,4
440,0.67236328125,-0.39794921875,-0.48193359375,-36.34146341463415,16.52439024390244,6.890243902439025,150,4
441,0.70849609375,-0.37353515625,-0.44189453125,-32.07317073170732,22.195121951219512,8.109756097560977,150,4
442,0.71337890625,-0.36474609375,-0.4697265625,-61.82926829268293,30.000000000000004,7.926829268292684,150,4
443,0.68310546875,-0.39892578125,-0.4462890625,-74.02439024390245,39.63414634146342,9.390243902439025,150,4
444,0.6396484375,-0.46630859375,-0.43994140625,-82.07317073170732,41.21951219512196,9.695121951219512,150,4
445,0.6455078125,-0.47705078125,-0.35302734375,-80.67073170731707,44.146341463414636,9.573170731707318,150,4
446,0.6796875,-0.45849609375,-0.21484375,-73.04878048780489,41.28048780487805,7.378048780487806,150,4
447,0.67578125,-0.4560546875,-0.20654296875,-59.39024390243903,32.07317073170732,5.7926829268292686,150,4
448,0.62255859375,-0.47021484375,-0.16015625,-48.29268292682927,26.89024390243903,4.878048780487806,150,4
449,0.63037109375,-0.4716796875,-0.1943359375,-36.524390243902445,22.682926829268293,4.634146341463415,150,4
450,0.64208984375,-0.47119140625,-0.17919921875,-28.53658536585366,22.012195121951223,4.51219512195122,150,4
451,0.66943359375,-0.4482421875,-0.20361328125,-21.03658536585366,15.975609756097562,4.817073170731708,150,4
452,0.685546875,-0.4375,-0.30517578125,-13.719512195121952,8.902439024390244,3.414634146341464,150,4
453,0.70068359375,-0.431640625,-0.361328125,-7.317073170731708,3.414634146341464,2.439024390243903,150,4
454,0.69677734375,-0.46630859375,-0.46630859375,-5.121951219512195,-1.402439024390244,1.829268292682927,150,4
455,0.69921875,-0.4716796875,-0.48779296875,-8.170731707317074,0.3658536585365854,0.0,150,4
456,0.72802734375,-0.43505859375,-0.4912109375,-13.841463414634148,3.5975609756097566,-3.1097560975609757,150,4
457,0.77099609375,-0.38427734375,-0.443359375,-16.097560975609756,4.085365853658537,-4.390243902439025,150,4
458,0.75146484375,-0.4248046875,-0.46337890625,-16.463414634146343,2.0121951219512195,-3.658536585365854,150,4
459,0.6904296875,-0.46337890625,-0.4677734375,-15.731707317073171,2.682926829268293,-5.060975609756098,150,4
460,0.70654296875,-0.419921875,-0.42333984375,-12.256097560975611,3.4756097560975614,-5.914634146341464,150,4
461,0.71240234375,-0.4287109375,-0.3916015625,-9.207317073170733,2.987804878048781,-4.817073170731708,150,4
462,0.67822265625,-0.4208984375,-0.384765625,-8.902439024390244,5.975609756097562,-2.987804878048781,150,4
463,0.65771484375,-0.38720703125,-0.3896484375,-16.76829268292683,11.28048780487805,-1.2195121951219514,150,4
464,0.66943359375,-0.3662109375,-0.44970703125,-23.04878048780488,10.24390243902439,2.439024390243903,150,4
465,0.64990234375,-0.34228515625,-0.42919921875,-27.073170731707318,14.451219512195124,4.634146341463415,150,4
466,0.650390625,-0.31982421875,-0.392578125,-29.939024390243905,17.5,5.914634146341464,150,4
467,0.68310546875,-0.2890625,-0.400390625,-31.09756097560976,19.146341463414636,6.52439024390244,150,4
468,0.68115234375,-0.2822265625,-0.392578125,-28.780487804878053,18.29268292682927,6.7682926829268295,150,4
469,0.66650390625,-0.31982421875,-0.3798828125,-25.54878048780488,17.378048780487806,7.073170731707318,150,4
470,0.67333984375,-0.30517578125,-0.365234375,-19.390243902439025,17.621951219512198,4.51219512195122,150,4
471,0.7138671875,-0.27392578125,-0.35693359375,-14.085365853658537,18.231707317073173,3.1097560975609757,150,4
472,0.72412109375,-0.263671875,-0.34912109375,-12.134146341463415,19.81707317073171,1.8902439024390245,150,4
473,0.75,-0.2431640625,-0.35302734375,-10.792682926829269,20.365853658536587,2.0121951219512195,150,4
474,0.62548828125,-0.23828125,-0.35498046875,-10.24390243902439,20.426829268292686,3.1097560975609757,150,4
475,0.7412109375,-0.24169921875,-0.33349609375,-11.829268292682928,22.31707317073171,4.024390243902439,150,4
476,0.7724609375,-0.236328125,-0.32275390625,-14.51219512195122,23.53658536585366,5.2439024390243905,150,4
477,0.78466796875,-0.22900390625,-0.29150390625,-17.195121951219512,25.48780487804878,5.914634146341464,150,4
478,0.7861328125,-0.2724609375,-0.29736328125,-19.75609756097561,28.414634146341466,6.646341463414635,150,4
479,0.80029296875,-0.2919921875,-0.28271484375,-22.865853658536587,30.914634146341466,5.487804878048781,150,4
480,0.814453125,-0.3017578125,-0.26708984375,-25.426829268292686,31.402439024390247,3.2926829268292686,150,4
481,0.8017578125,-0.27392578125,-0.25732421875,-28.475609756097562,31.646341463414636,4.207317073170732,150,4
482,0.77685546875,-0.27392578125,-0.255859375,-26.52439024390244,28.658536585365855,5.487804878048781,150,4
483,0.87255859375,-0.2822265625,-0.267578125,-24.146341463414636,29.02439024390244,5.426829268292684,150,4
484,0.7529296875,-0.2666015625,-0.2958984375,-22.31707317073171,29.146341463414636,4.024390243902439,150,4
485,0.755859375,-0.24365234375,-0.34521484375,-19.573170731707318,27.012195121951223,4.51219512195122,150,4
486,0.76025390625,-0.23779296875,-0.341796875,-18.658536585365855,27.926829268292686,6.585365853658537,150,4
487,0.7978515625,-0.208984375,-0.3251953125,-18.902439024390244,29.695121951219516,6.402439024390245,150,4
488,0.798828125,-0.1806640625,-0.35546875,-22.31707317073171,30.30487804878049,7.439024390243903,150,4
489,0.7880859375,-0.14453125,-0.255859375,-24.02439024390244,31.158536585365855,9.02439024390244,150,4
490,0.796875,-0.1142578125,-0.416015625,-22.98780487804878,30.243902439024392,8.353658536585366,150,4
491,0.8017578125,-0.0869140625,-0.46142578125,-24.878048780487806,29.81707317073171,6.707317073170732,150,4
492,0.80615234375,-0.04150390625,-0.451171875,-32.5,32.926829268292686,4.207317073170732,150,4
493,0.796875,-0.09130859375,-0.46533203125,-40.60975609756098,30.487804878048784,4.390243902439025,150,4
494,0.7568359375,-0.16064453125,-0.46826171875,-41.524390243902445,26.03658536585366,3.963414634146342,150,4
495,0.7666015625,-0.1220703125,-0.427734375,-39.81707317073171,25.914634146341466,1.2804878048780488,150,4
496,0.78515625,-0.1494140625,-0.337890625,-34.32926829268293,21.951219512195124,-2.0121951219512195,150,4
497,0.76806640625,-0.23876953125,-0.294921875,-18.719512195121954,10.792682926829269,-3.414634146341464,150,4
498,0.76220703125,-0.271484375,-0.2919921875,-15.182926829268293,2.0121951219512195,-4.451219512195122,150,4
499,0.77001953125,-0.23095703125,-0.296875,13.719512195121952,-3.7195121951219514,-6.585365853658537,150,4
