,Ax,Ay,Az,Gx,Gy,Gz,distance,shot_type
0,0.66796875,-0.51904296875,-0.22119140625,4.451219512195122,3.658536585365854,4.207317073170732,155,2
1,0.6689453125,-0.5205078125,-0.22021484375,5.975609756097562,1.9512195121951221,3.963414634146342,155,2
2,0.67578125,-0.53369140625,-0.224609375,7.865853658536586,1.1585365853658538,4.2682926829268295,155,2
3,0.68505859375,-0.53173828125,-0.22265625,8.231707317073171,1.524390243902439,4.024390243902439,155,2
4,0.70458984375,-0.51318359375,-0.22119140625,7.134146341463415,2.25609756097561,4.085365853658537,155,2
5,0.7177734375,-0.4931640625,-0.22607421875,4.939024390243903,3.658536585365854,3.780487804878049,155,2
6,0.72119140625,-0.494140625,-0.21630859375,2.9268292682926833,5.121951219512195,4.024390243902439,155,2
7,0.7158203125,-0.37548828125,-0.203125,1.7682926829268295,7.134146341463415,3.963414634146342,155,2
8,0.716796875,-0.4970703125,-0.20703125,-0.3658536585365854,9.146341463414634,4.024390243902439,155,2
9,0.70654296875,-0.4970703125,-0.18115234375,-0.6707317073170732,10.24390243902439,4.207317073170732,155,2
10,0.6689453125,-0.51953125,-0.154296875,1.524390243902439,9.451219512195122,4.085365853658537,155,2
11,0.65576171875,-0.52880859375,-0.15966796875,4.207317073170732,7.926829268292684,4.634146341463415,155,2
12,0.6572265625,-0.52880859375,-0.1953125,7.134146341463415,4.939024390243903,4.146341463414634,155,2
13,0.69091796875,-0.4931640625,-0.21923828125,9.573170731707318,4.51219512195122,4.573170731707317,155,2
14,0.70263671875,-0.4970703125,-0.19677734375,8.658536585365855,5.670731707317073,4.634146341463415,155,2
15,0.6787109375,-0.52587890625,-0.18505859375,7.560975609756098,7.500000000000001,5.548780487804878,155,2
16,0.6669921875,-0.54541015625,-0.203125,5.365853658536586,8.597560975609756,5.487804878048781,155,2
17,0.6845703125,-0.51806640625,-0.22705078125,4.390243902439025,9.51219512195122,5.3048780487804885,155,2
18,0.6953125,-0.5185546875,-0.20947265625,3.1707317073170733,11.036585365853659,4.939024390243903,155,2
19,0.70361328125,-0.51123046875,-0.21923828125,1.707317073170732,12.926829268292684,4.634146341463415,155,2
20,0.6884765625,-0.5380859375,-0.2080078125,1.0365853658536586,14.573170731707318,4.024390243902439,155,2
21,0.6904296875,-0.5478515625,-0.201171875,2.0121951219512195,13.841463414634148,3.1707317073170733,155,2
22,0.6865234375,-0.5576171875,-0.1953125,4.390243902439025,12.195121951219512,2.9268292682926833,155,2
23,0.65283203125,-0.583984375,-0.1806640625,6.951219512195123,10.30487804878049,3.1097560975609757,155,2
24,0.65869140625,-0.58544921875,-0.1796875,7.987804878048781,9.634146341463415,3.1707317073170733,155,2
25,0.6630859375,-0.5791015625,-0.19189453125,8.414634146341465,9.51219512195122,2.7439024390243905,155,2
26,0.66357421875,-0.591796875,-0.1953125,10.0,7.073170731707318,2.5609756097560976,155,2
27,0.67919921875,-0.5703125,-0.21630859375,12.256097560975611,4.390243902439025,2.0121951219512195,155,2
28,0.7060546875,-0.548828125,-0.20849609375,12.621951219512196,5.2439024390243905,1.2804878048780488,155,2
29,0.72119140625,-0.5400390625,-0.205078125,11.28048780487805,6.097560975609756,0.426829268292683,155,2
30,0.69384765625,-0.54541015625,-0.20166015625,10.426829268292684,7.926829268292684,0.12195121951219513,155,2
31,0.681640625,-0.544921875,-0.16455078125,9.329268292682928,8.841463414634147,-0.5487804878048781,155,2
32,0.66748046875,-0.55078125,-0.15576171875,8.78048780487805,9.329268292682928,-0.1829268292682927,155,2
33,0.640625,-0.5732421875,-0.14599609375,10.30487804878049,8.536585365853659,0.30487804878048785,155,2
34,0.63720703125,-0.5751953125,-0.1337890625,13.231707317073171,6.829268292682928,1.0975609756097562,155,2
35,0.63134765625,-0.58544921875,-0.1318359375,16.52439024390244,5.914634146341464,2.5,155,2
36,0.63427734375,-0.58935546875,-0.12744140625,18.353658536585368,4.634146341463415,3.353658536585366,155,2
37,0.642578125,-0.56396484375,-0.14892578125,19.939024390243905,3.780487804878049,4.390243902439025,155,2
38,0.67626953125,-0.5224609375,-0.15478515625,18.658536585365855,5.548780487804878,4.329268292682928,155,2
39,0.69580078125,-0.5107421875,-0.15869140625,14.878048780487806,9.329268292682928,3.353658536585366,155,2
40,0.70166015625,-0.51611328125,-0.16259765625,10.426829268292684,13.231707317073171,2.5,155,2
41,0.69140625,-0.5224609375,-0.17578125,5.487804878048781,16.463414634146343,2.073170731707317,155,2
42,0.685546875,-0.533203125,-0.1787109375,1.4634146341463417,18.414634146341466,2.1341463414634148,155,2
43,0.66748046875,-0.54736328125,-0.18408203125,-0.9756097560975611,19.695121951219512,2.25609756097561,155,2
44,0.65576171875,-0.56884765625,-0.15673828125,-0.24390243902439027,19.085365853658537,2.5609756097560976,155,2
45,0.6416015625,-0.59326171875,-0.1396484375,3.414634146341464,17.134146341463417,3.2926829268292686,155,2
46,0.64208984375,-0.6064453125,-0.134765625,7.987804878048781,14.634146341463415,4.207317073170732,155,2
47,0.64404296875,-0.60595703125,-0.1357421875,11.219512195121952,12.987804878048781,4.634146341463415,155,2
48,0.65869140625,-0.59814453125,-0.1474609375,14.02439024390244,11.036585365853659,4.878048780487806,155,2
49,0.66552734375,-0.56689453125,-0.15673828125,15.54878048780488,9.26829268292683,4.451219512195122,155,2
50,0.6953125,-0.53369140625,-0.1748046875,15.426829268292684,9.207317073170733,4.207317073170732,155,2
51,0.7353515625,-0.62109375,-0.17919921875,13.04878048780488,12.439024390243903,3.048780487804878,155,2
52,0.74560546875,-0.4833984375,-0.18701171875,8.414634146341465,16.219512195121954,1.2804878048780488,155,2
53,0.74951171875,-0.4794921875,-0.1884765625,3.536585365853659,19.390243902439025,-0.24390243902439027,155,2
54,0.73583984375,-0.49755859375,-0.1904296875,-0.3658536585365854,21.34146341463415,-1.1585365853658538,155,2
55,0.72265625,-0.50634765625,-0.1689453125,-1.402439024390244,21.219512195121954,-1.7682926829268295,155,2
56,0.70361328125,-0.53173828125,-0.18212890625,0.9756097560975611,18.04878048780488,-2.25609756097561,155,2
57,0.69287109375,-0.5322265625,-0.1875,4.878048780487806,14.573170731707318,-2.9268292682926833,155,2
58,0.6904296875,-0.533203125,-0.18505859375,8.78048780487805,10.853658536585368,-3.5975609756097566,155,2
59,0.693359375,-0.53955078125,-0.1923828125,11.707317073170733,8.231707317073171,-4.146341463414634,155,2
60,0.68994140625,-0.53857421875,-0.21435546875,12.926829268292684,5.914634146341464,-4.390243902439025,155,2
61,0.68798828125,-0.525390625,-0.22607421875,12.80487804878049,5.060975609756098,-4.329268292682928,155,2
62,0.68603515625,-0.5302734375,-0.21484375,11.463414634146343,6.097560975609756,-3.8414634146341466,155,2
63,0.677734375,-0.541015625,-0.1943359375,9.329268292682928,8.231707317073171,-3.658536585365854,155,2
64,0.6728515625,-0.56103515625,-0.1708984375,6.646341463414635,11.219512195121952,-2.8658536585365857,155,2
65,0.666015625,-0.56640625,-0.169921875,3.353658536585366,13.719512195121952,-2.1341463414634148,155,2
66,0.64501953125,-0.56201171875,-0.15673828125,0.3658536585365854,0.0,-1.707317073170732,155,2
67,0.63330078125,-0.57275390625,-0.15966796875,-1.7682926829268295,16.70731707317073,-1.829268292682927,155,2
68,0.634765625,-0.57861328125,-0.1494140625,-2.378048780487805,16.52439024390244,-1.4634146341463417,155,2
69,0.6416015625,-0.5693359375,-0.15771484375,-2.5609756097560976,16.158536585365855,-1.402439024390244,155,2
70,0.625,-0.56494140625,-0.130859375,-2.6219512195121952,16.463414634146343,-1.0365853658536586,155,2
71,0.6328125,-0.56884765625,-0.1337890625,-1.8902439024390245,16.03658536585366,-0.7317073170731708,155,2
72,0.6328125,-0.57666015625,-0.13671875,-0.6097560975609757,14.51219512195122,-0.3658536585365854,155,2
73,0.64599609375,-0.55126953125,-0.12744140625,1.0365853658536586,13.475609756097562,-0.12195121951219513,155,2
74,0.65283203125,-0.564453125,-0.00244140625,2.0121951219512195,12.682926829268293,0.24390243902439027,155,2
75,0.6455078125,-0.56298828125,-0.10400390625,2.804878048780488,12.317073170731708,0.48780487804878053,155,2
76,0.64453125,-0.56884765625,-0.10107421875,2.804878048780488,13.170731707317074,0.9756097560975611,155,2
77,0.65673828125,-0.56787109375,-0.09814453125,2.9268292682926833,14.02439024390244,1.4634146341463417,155,2
78,0.65283203125,-0.5712890625,-0.08642578125,3.048780487804878,14.573170731707318,2.0121951219512195,155,2
79,0.64697265625,-0.59228515625,-0.07373046875,3.9024390243902443,14.51219512195122,2.6219512195121952,155,2
80,0.642578125,-0.595703125,-0.078125,5.2439024390243905,14.146341463414636,3.048780487804878,155,2
81,0.6591796875,-0.5751953125,-0.064453125,6.341463414634147,13.353658536585368,2.682926829268293,155,2
82,0.67724609375,-0.5576171875,-0.0869140625,7.743902439024391,11.951219512195124,2.073170731707317,155,2
83,0.6865234375,-0.5390625,-0.09326171875,9.817073170731708,11.402439024390246,1.0365853658536586,155,2
84,0.69970703125,-0.54443359375,-0.083984375,11.036585365853659,12.073170731707318,0.3658536585365854,155,2
85,0.70849609375,-0.54833984375,-0.0673828125,10.670731707317074,13.475609756097562,-0.3658536585365854,155,2
86,0.72412109375,-0.54833984375,-0.08154296875,8.841463414634147,16.097560975609756,-0.7317073170731708,155,2
87,0.7236328125,-0.5419921875,-0.06298828125,6.951219512195123,17.926829268292686,-0.6707317073170732,155,2
88,0.712890625,-0.55078125,-0.0400390625,5.2439024390243905,20.60975609756098,-0.06097560975609757,155,2
89,0.69873046875,-0.5771484375,-0.01025390625,3.353658536585366,22.98780487804878,0.6097560975609757,155,2
90,0.67919921875,-0.59033203125,0.01904296875,1.7682926829268295,24.451219512195124,1.2804878048780488,155,2
91,0.63671875,-0.5888671875,0.0205078125,1.0365853658536586,25.914634146341466,1.6463414634146343,155,2
92,0.6591796875,-0.58154296875,-0.009765625,0.48780487804878053,26.09756097560976,2.073170731707317,155,2
93,0.68212890625,-0.54296875,-0.0361328125,1.524390243902439,26.158536585365855,2.25609756097561,155,2
94,0.68798828125,-0.5341796875,-0.04052734375,0.9146341463414634,28.292682926829272,1.707317073170732,155,2
95,0.6953125,-0.52734375,-0.03271484375,-0.7926829268292683,15.609756097560977,1.707317073170732,155,2
96,0.70361328125,-0.5263671875,-0.04296875,-5.060975609756098,36.03658536585366,0.6097560975609757,155,2
97,0.7080078125,-0.6181640625,-0.0625,-14.02439024390244,41.524390243902445,-0.30487804878048785,155,2
98,0.74169921875,-0.427734375,-0.10400390625,-23.170731707317074,48.65853658536586,-1.9512195121951221,155,2
99,0.775390625,-0.3955078125,-0.09912109375,-32.987804878048784,53.65853658536586,-2.8658536585365857,155,2
100,0.625,-0.43408203125,-0.1181640625,-39.93902439024391,57.987804878048784,-4.085365853658537,155,2
101,0.7236328125,-0.4765625,-0.099609375,-42.31707317073171,60.54878048780488,-4.573170731707317,155,2
102,0.7314453125,-0.4765625,-0.064453125,-40.243902439024396,61.707317073170735,-4.146341463414634,155,2
103,0.71728515625,-0.49267578125,-0.02734375,-37.19512195121951,61.463414634146346,-2.9268292682926833,155,2
104,0.67919921875,-0.625,-0.01513671875,-33.47560975609756,60.1829268292683,0.7317073170731708,155,2
105,0.65771484375,-0.50927734375,-0.05322265625,-31.158536585365855,58.59756097560976,3.048780487804878,155,2
106,0.64990234375,-0.45654296875,-0.06884765625,-30.30487804878049,57.6219512195122,4.085365853658537,155,2
107,0.68212890625,-0.4130859375,-0.13427734375,-29.87804878048781,55.304878048780495,5.2439024390243905,155,2
108,0.7060546875,-0.35986328125,-0.23486328125,-32.43902439024391,53.41463414634147,3.353658536585366,155,2
109,0.7626953125,-0.310546875,-0.296875,-36.646341463414636,54.69512195121952,0.24390243902439027,155,2
110,0.822265625,-0.2861328125,-0.29345703125,-41.09756097560976,56.40243902439025,-2.804878048780488,155,2
111,0.84765625,-0.2841796875,-0.29248046875,-47.926829268292686,59.268292682926834,-5.487804878048781,155,2
112,0.83544921875,-0.2724609375,-0.2763671875,-55.487804878048784,62.804878048780495,-7.439024390243903,155,2
113,0.79638671875,-0.271484375,-0.29052734375,-63.10975609756098,65.3048780487805,-8.658536585365855,155,2
114,0.8037109375,-0.2333984375,-0.24462890625,-70.73170731707317,67.25609756097562,-10.24390243902439,155,2
115,0.79052734375,-0.24365234375,-0.24951171875,-77.13414634146342,67.31707317073172,-11.951219512195124,155,2
116,0.76806640625,-0.26513671875,-0.26513671875,-78.29268292682927,65.54878048780489,-14.146341463414636,155,2
117,0.7587890625,-0.28955078125,-0.20263671875,-77.19512195121952,63.84146341463415,-16.158536585365855,155,2
118,0.77880859375,-0.26904296875,-0.2109375,-76.40243902439025,60.1219512195122,-17.5,155,2
119,0.75439453125,-0.2763671875,-0.23876953125,-75.42682926829269,55.426829268292686,-18.78048780487805,155,2
120,0.7294921875,-0.26953125,-0.23876953125,-74.81707317073172,53.47560975609757,-21.158536585365855,155,2
121,0.736328125,-0.25048828125,-0.25634765625,-75.48780487804879,51.707317073170735,-23.84146341463415,155,2
122,0.7705078125,-0.201171875,-0.25634765625,-77.19512195121952,52.07317073170732,-26.52439024390244,155,2
123,0.7939453125,-0.18896484375,-0.23876953125,-82.25609756097562,52.926829268292686,-28.475609756097562,155,2
124,0.76416015625,-0.1962890625,-0.1298828125,-87.31707317073172,52.987804878048784,-30.54878048780488,155,2
125,0.75,-0.18603515625,-0.2685546875,-91.03658536585367,52.13414634146342,-32.5609756097561,155,2
126,0.74462890625,-0.19580078125,-0.27880859375,-94.75609756097562,52.01219512195122,-34.81707317073171,155,2
127,0.7529296875,-0.19580078125,-0.28173828125,-94.87804878048782,50.304878048780495,-36.463414634146346,155,2
128,0.76318359375,-0.18798828125,-0.28369140625,-93.53658536585367,46.89024390243903,-38.71951219512196,155,2
129,0.76416015625,-0.193359375,-0.33056640625,-93.17073170731707,43.29268292682927,-41.646341463414636,155,2
130,0.759765625,-0.18359375,-0.3564453125,-94.57317073170732,41.463414634146346,-44.51219512195122,155,2
131,0.7763671875,-0.162109375,-0.36572265625,-97.6829268292683,41.646341463414636,-47.50000000000001,155,2
132,0.8134765625,-0.134765625,-0.345703125,-102.8658536585366,42.25609756097561,-50.91463414634147,155,2
133,0.8076171875,-0.16357421875,-0.35693359375,-108.71951219512196,42.37804878048781,-53.53658536585366,155,2
134,0.7978515625,-0.1787109375,-0.40234375,-112.25609756097562,40.1219512195122,-56.21951219512196,155,2
135,0.7978515625,-0.17138671875,-0.39892578125,-113.78048780487806,39.146341463414636,-59.75609756097562,155,2
136,0.83056640625,-0.1494140625,-0.35986328125,-115.79268292682927,38.963414634146346,-63.41463414634147,155,2
137,0.83984375,-0.14306640625,-0.3896484375,-117.98780487804879,36.58536585365854,-67.13414634146342,155,2
138,0.84375,-0.12548828125,-0.4208984375,-121.64634146341464,35.0609756097561,-70.73170731707317,155,2
139,0.8544921875,-0.1240234375,-0.42138671875,-125.73170731707319,34.75609756097561,-75.3048780487805,155,2
140,0.87158203125,-0.1181640625,-0.41259765625,-130.1219512195122,35.30487804878049,-79.02439024390245,155,2
141,0.87890625,-0.12158203125,-0.3994140625,-135.4878048780488,36.890243902439025,-83.04878048780489,155,2
142,0.90283203125,-0.11279296875,-0.40283203125,-139.20731707317074,36.28048780487805,-87.31707317073172,155,2
143,0.90283203125,-0.1455078125,-0.4296875,-141.15853658536588,33.41463414634146,-90.91463414634147,155,2
144,0.8916015625,-0.17919921875,-0.47216796875,-156.09756097560978,30.487804878048784,-94.69512195121952,155,2
145,0.931640625,-0.15673828125,-0.4853515625,-139.45121951219514,27.926829268292686,-98.78048780487806,155,2
146,0.98681640625,-0.1337890625,-0.478515625,-140.91463414634148,25.914634146341466,-101.52439024390245,155,2
147,1.0498046875,-0.08935546875,-0.48583984375,-145.5487804878049,27.195121951219516,-106.09756097560977,155,2
148,1.09375,-0.08740234375,-0.5146484375,-153.78048780487805,29.02439024390244,-108.59756097560977,155,2
149,1.09619140625,-0.1025390625,-0.51904296875,-161.46341463414635,15.670731707317074,-112.37804878048782,155,2
150,1.11474609375,-0.10107421875,-0.4873046875,-165.7317073170732,32.6219512195122,-115.42682926829269,155,2
151,1.14306640625,-0.09033203125,-0.4384765625,-169.32926829268294,33.29268292682927,-117.92682926829269,155,2
152,1.150390625,-0.11279296875,-0.43212890625,-172.25609756097563,33.963414634146346,-121.40243902439025,155,2
153,1.1220703125,-0.16162109375,-0.4169921875,-171.82926829268294,33.65853658536586,-124.81707317073172,155,2
154,1.10546875,-0.19384765625,-0.3388671875,-166.21951219512198,30.731707317073173,-127.92682926829269,155,2
155,1.146484375,-0.19091796875,-0.32177734375,-161.28048780487805,27.439024390243905,-130.7317073170732,155,2
156,1.1611328125,-0.17822265625,-0.29443359375,-159.81707317073173,26.58536585365854,-133.35365853658539,155,2
157,1.158203125,-0.19580078125,-0.3037109375,-156.89024390243904,24.573170731707318,-135.609756097561,155,2
158,1.166015625,-0.173828125,-0.27783203125,-150.6707317073171,22.5609756097561,-138.71951219512195,155,2
159,1.240234375,-0.13720703125,-0.279296875,-149.08536585365854,21.28048780487805,-141.70731707317074,155,2
160,1.294921875,-0.08642578125,-0.26025390625,-148.84146341463415,21.28048780487805,-146.40243902439025,155,2
161,1.3388671875,-0.04345703125,-0.2314453125,-147.7439024390244,21.402439024390247,-149.75609756097563,155,2
162,1.36279296875,-0.04052734375,-0.20947265625,-144.02439024390245,20.54878048780488,-152.9268292682927,155,2
163,1.36572265625,-0.0732421875,-0.2236328125,-140.6707317073171,19.451219512195124,-155.2439024390244,155,2
164,1.3466796875,-0.03857421875,-0.244140625,-138.84146341463415,19.634146341463417,-159.81707317073173,155,2
165,1.35888671875,0.02099609375,-0.22607421875,-138.71951219512195,21.158536585365855,-164.45121951219514,155,2
166,1.435546875,0.11083984375,-0.169921875,-138.96341463414635,24.451219512195124,-170.00000000000003,155,2
167,1.4931640625,0.15087890625,-0.169921875,-141.58536585365854,27.987804878048784,-175.1219512195122,155,2
168,1.50146484375,0.14501953125,-0.20166015625,-144.81707317073173,29.87804878048781,-179.14634146341464,155,2
169,1.482421875,0.11328125,-0.22509765625,-146.40243902439025,30.60975609756098,-182.9878048780488,155,2
170,1.482421875,0.12255859375,-0.1611328125,-145.0609756097561,32.987804878048784,-185.91463414634148,155,2
171,1.49658203125,0.10107421875,-0.16650390625,-143.59756097560978,34.32926829268293,-187.8658536585366,155,2
172,1.4912109375,0.08447265625,-0.16748046875,-142.13414634146343,34.87804878048781,-191.03658536585368,155,2
173,1.49365234375,0.11865234375,-0.1572265625,-139.39024390243904,34.451219512195124,-192.6829268292683,155,2
174,1.380859375,0.1396484375,-0.140625,-136.09756097560978,35.91463414634147,-197.8658536585366,155,2
175,1.56591796875,0.2099609375,-0.10205078125,-132.7439024390244,37.5609756097561,-202.37804878048783,155,2
176,1.56103515625,0.23388671875,-0.0830078125,-131.21951219512195,37.5609756097561,-206.34146341463418,155,2
177,1.55322265625,0.283203125,-0.05029296875,-127.92682926829269,37.07317073170732,-211.52439024390245,155,2
178,1.58251953125,0.33740234375,-0.0283203125,-123.90243902439026,34.87804878048781,-215.91463414634148,155,2
179,1.60888671875,0.37841796875,0.0078125,-120.1829268292683,35.670731707317074,-220.06097560975613,155,2
180,1.63818359375,0.37158203125,-0.0400390625,-116.46341463414635,35.670731707317074,-224.75609756097563,155,2
181,1.66015625,0.40625,-0.02001953125,-110.42682926829269,36.34146341463415,-229.26829268292684,155,2
182,1.69384765625,0.435546875,-0.05078125,-107.8048780487805,38.41463414634147,-218.84146341463418,155,2
183,1.6279296875,0.45751953125,-0.06884765625,-111.15853658536587,42.86585365853659,-237.68292682926833,155,2
184,1.7421875,0.45849609375,-0.0634765625,-114.69512195121952,47.926829268292686,-240.12195121951223,155,2
185,1.69970703125,0.482421875,-0.01416015625,-117.07317073170732,52.19512195121952,-243.65853658536588,155,2
186,1.666015625,0.51220703125,0.01904296875,-119.45121951219514,56.463414634146346,-248.0487804878049,155,2
187,1.6513671875,0.5869140625,0.04638671875,-117.43902439024392,57.865853658536594,-252.31707317073173,155,2
188,1.64453125,0.64208984375,0.09521484375,-114.63414634146342,58.29268292682927,-256.70731707317077,155,2
189,1.67919921875,0.66650390625,0.076171875,-114.69512195121952,60.1219512195122,-262.01219512195127,155,2
190,1.7353515625,0.69287109375,0.0927734375,-113.78048780487806,62.865853658536594,-268.2926829268293,155,2
191,1.7421875,0.6650390625,0.11328125,-113.04878048780489,65.1219512195122,-274.20731707317077,155,2
192,1.71240234375,0.61181640625,0.1044921875,-108.47560975609757,66.64634146341464,-280.4878048780488,155,2
193,1.69140625,0.58984375,0.107421875,-101.82926829268294,66.28048780487805,-286.219512195122,155,2
194,1.6875,0.5810546875,0.19287109375,-91.52439024390245,64.26829268292684,-290.3658536585366,155,2
195,1.7353515625,0.5771484375,0.2548828125,-81.76829268292684,63.35365853658537,-294.57317073170736,155,2
196,1.74560546875,0.5166015625,0.1826171875,-93.53658536585367,64.32926829268293,-296.89024390243907,155,2
197,1.68359375,0.42138671875,0.0078125,-75.48780487804879,65.42682926829269,-298.2317073170732,155,2
198,1.60791015625,0.330078125,0.1318359375,-71.09756097560977,66.76829268292684,-299.0243902439025,155,2
199,1.52978515625,0.2724609375,0.12158203125,-64.45121951219512,65.67073170731707,-299.9390243902439,155,2
200,1.4599609375,0.25146484375,0.1240234375,-60.60975609756098,64.51219512195122,-301.76829268292687,155,2
201,1.40966796875,0.23974609375,-0.048828125,-58.47560975609757,64.26829268292684,-302.25609756097566,155,2
202,1.3408203125,0.21630859375,-0.04296875,-60.426829268292686,63.65853658536586,-299.75609756097566,155,2
203,1.19921875,0.12890625,0.01220703125,-62.926829268292686,65.2439024390244,-296.0365853658537,155,2
204,1.0546875,0.04638671875,0.06103515625,-66.03658536585367,66.76829268292684,-291.95121951219517,155,2
205,0.94677734375,-0.0576171875,0.0419921875,-68.59756097560977,67.98780487804879,-287.3780487804878,155,2
206,0.81494140625,-0.14453125,0.1162109375,-68.10975609756098,68.53658536585367,-282.01219512195127,155,2
207,0.70751953125,-0.2568359375,0.13134765625,-63.04878048780488,67.43902439024392,-275.6707317073171,155,2
208,0.60205078125,-0.34228515625,0.1533203125,-54.81707317073171,64.32926829268293,-269.39024390243907,155,2
209,0.56396484375,-0.41259765625,0.14306640625,-62.13414634146342,63.04878048780488,-263.4756097560976,155,2
210,0.54931640625,-0.4560546875,0.24462890625,-40.487804878048784,61.21951219512196,-257.19512195121956,155,2
211,0.47705078125,-0.51513671875,0.0869140625,-36.82926829268293,60.97560975609757,-251.09756097560978,155,2
212,0.42529296875,-0.58544921875,0.00341796875,-31.89024390243903,59.93902439024391,-243.109756097561,155,2
213,0.3427734375,-0.63037109375,0.15966796875,-27.926829268292686,59.268292682926834,-233.1707317073171,155,2
214,0.228515625,-0.63037109375,0.1513671875,-27.012195121951223,58.47560975609757,-221.89024390243904,155,2
215,0.11279296875,-0.8271484375,0.1416015625,-23.78048780487805,54.93902439024391,-207.9268292682927,155,2
216,0.0,-0.88623046875,0.20361328125,-20.975609756097562,52.31707317073171,-194.45121951219514,155,2
217,-0.07275390625,-0.9384765625,0.1455078125,-20.182926829268293,53.47560975609757,-179.57317073170734,155,2
218,-0.22607421875,-1.0703125,0.296875,-20.914634146341466,52.25609756097561,-164.93902439024393,155,2
219,-0.39990234375,-1.14208984375,0.2470703125,-22.682926829268293,51.40243902439025,-148.84146341463415,155,2
220,-0.47412109375,-1.20654296875,0.20703125,-23.902439024390247,47.804878048780495,-131.28048780487805,155,2
221,-0.515625,-1.28759765625,0.16064453125,-27.682926829268297,48.41463414634147,-110.54878048780489,155,2
222,-0.57373046875,-1.40380859375,0.18310546875,-30.731707317073173,50.304878048780495,-89.26829268292684,155,2
223,-0.63232421875,-1.53271484375,0.3095703125,-28.59756097560976,50.85365853658537,-67.8658536585366,155,2
224,-0.62353515625,-1.69189453125,0.349609375,-22.500000000000004,48.47560975609756,-62.37804878048781,155,2
225,-0.6962890625,-1.82421875,0.27197265625,-12.621951219512196,43.47560975609756,-24.573170731707318,155,2
226,-0.74169921875,-1.92578125,0.3505859375,-1.2804878048780488,36.890243902439025,-3.4756097560975614,155,2
227,-0.66162109375,-1.9521484375,0.21533203125,12.256097560975611,31.52439024390244,17.621951219512198,155,2
228,-0.6640625,-1.9609375,0.21923828125,19.939024390243905,27.682926829268297,38.47560975609756,155,2
229,-0.63525390625,-1.990234375,0.17431640625,20.0,27.621951219512198,62.13414634146342,155,2
230,-0.60888671875,-2.0654296875,0.1318359375,19.32926829268293,27.682926829268297,90.00000000000001,155,2
231,-0.6171875,-2.20166015625,0.05322265625,24.146341463414636,22.98780487804878,118.10975609756099,155,2
232,-0.57275390625,-2.3291015625,0.033203125,36.15853658536586,16.219512195121954,145.0609756097561,155,2
233,-0.4453125,-2.38037109375,0.1083984375,49.51219512195122,10.060975609756099,171.58536585365854,155,2
234,-0.32080078125,-2.3681640625,0.00830078125,61.646341463414636,4.817073170731708,195.85365853658539,155,2
235,-0.17724609375,-2.33056640625,0.138671875,70.42682926829269,2.073170731707317,205.1829268292683,155,2
236,-0.03857421875,-2.3173828125,0.16259765625,75.67073170731707,0.9756097560975611,245.7317073170732,155,2
237,0.1103515625,-2.3291015625,0.17236328125,78.29268292682927,0.3658536585365854,273.2317073170732,155,2
238,0.2900390625,-2.37353515625,0.13671875,82.43902439024392,1.524390243902439,302.5609756097561,155,2
239,0.47998046875,-2.49169921875,0.1669921875,86.95121951219512,4.085365853658537,334.0853658536586,155,2
240,0.69921875,-2.603515625,0.1953125,88.65853658536587,7.743902439024391,365.5487804878049,155,2
241,0.91845703125,-2.76904296875,0.21923828125,92.8048780487805,12.80487804878049,394.39024390243907,155,2
242,1.1552734375,-2.96923828125,0.2001953125,100.91463414634147,17.31707317073171,424.1463414634147,155,2
243,1.42431640625,-3.2236328125,0.15185546875,110.67073170731709,19.695121951219512,437.43902439024396,155,2
244,1.72802734375,-3.49560546875,0.06982421875,123.84146341463416,22.012195121951223,483.719512195122,155,2
245,2.0908203125,-3.802734375,-0.11865234375,125.91463414634147,16.76829268292683,501.82926829268297,155,2
246,2.41455078125,-4.13232421875,-0.47509765625,158.84146341463415,-6.402439024390245,553.7804878048781,155,2
247,3.009765625,-4.25634765625,-0.74365234375,205.609756097561,-16.585365853658537,592.6829268292684,155,2
248,3.8310546875,-4.58935546875,-1.06982421875,262.9878048780488,-39.93902439024391,621.219512195122,155,2
249,4.8681640625,-4.6484375,-1.1474609375,300.4268292682927,-21.463414634146343,641.4634146341464,155,2
250,5.87744140625,-4.97265625,-1.2939453125,306.3414634146342,-2.987804878048781,657.3170731707318,155,2
251,6.7841796875,-5.15087890625,-1.37744140625,296.70731707317077,44.024390243902445,715.2439024390244,155,2
252,7.3154296875,-5.19140625,-1.908203125,301.4024390243903,70.42682926829269,753.6585365853659,155,2
253,8.1025390625,-4.76123046875,-2.599609375,318.4146341463415,92.5609756097561,798.719512195122,155,2
254,9.0576171875,-4.21875,-3.392578125,329.26829268292687,98.96341463414635,867.8658536585367,155,2
255,10.11474609375,-3.9609375,-4.033203125,349.32926829268297,103.47560975609757,925.3048780487806,155,2
256,10.6181640625,-3.48828125,-4.68408203125,360.5487804878049,85.0609756097561,974.2073170731708,155,2
257,11.15625,-2.892578125,-5.16943359375,424.45121951219517,11.097560975609756,1019.5731707317074,155,2
258,11.69091796875,-2.662109375,-6.55078125,504.20731707317077,-86.21951219512196,1024.7560975609756,155,2
259,11.2626953125,-2.56787109375,-7.4091796875,615.9146341463415,-211.40243902439028,1000.3658536585367,155,2
260,10.4306640625,-2.28076171875,-7.37646484375,797.6829268292684,-369.93902439024396,963.6585365853659,155,2
261,9.5625,-3.28759765625,-7.6103515625,996.3414634146342,-561.5243902439025,883.9024390243903,155,2
262,7.9111328125,-4.5263671875,-8.30615234375,1240.7926829268295,-745.9146341463415,759.5731707317074,155,2
263,7.0390625,-4.583984375,-9.91796875,1486.8902439024391,-949.8780487804879,556.5853658536586,155,2
264,7.5986328125,-2.45458984375,-6.25,1043.2926829268295,-1099.0243902439026,418.3536585365854,155,2
265,15.99951171875,7.39453125,-8.40869140625,791.5243902439025,-667.9268292682927,143.41463414634148,155,2
266,-8.5576171875,0.08203125,-10.7392578125,1679.4512195121952,-608.9024390243903,-34.08536585365854,155,2
267,9.091796875,2.4326171875,-3.68408203125,1162.1951219512196,-200.12195121951223,-190.7317073170732,155,2
268,12.17431640625,4.7822265625,1.650390625,1150.548780487805,-102.37804878048782,-128.78048780487805,155,2
269,2.2685546875,-0.4970703125,-0.62353515625,1117.3170731707319,-136.58536585365854,-242.9878048780488,155,2
270,4.6455078125,-1.353515625,1.72705078125,960.6097560975611,-50.1219512195122,-322.25609756097566,155,2
271,6.32421875,-2.642578125,0.27685546875,941.829268292683,-169.02439024390245,-454.45121951219517,155,2
272,6.79052734375,-2.83740234375,-0.92919921875,818.9024390243903,-226.76829268292684,-636.4634146341464,155,2
273,5.68603515625,-2.89404296875,-1.935546875,742.6829268292684,-207.9878048780488,-723.5975609756098,155,2
274,5.43603515625,-2.62841796875,-2.37744140625,631.4634146341464,-159.51219512195124,-800.1219512195123,155,2
275,5.38720703125,-2.986328125,-2.484375,474.57317073170736,-102.43902439024392,-872.7439024390245,155,2
276,4.603515625,-3.638671875,-2.8974609375,294.32926829268297,-24.32926829268293,-890.7926829268293,155,2
277,3.458984375,-3.9130859375,-2.91943359375,145.1219512195122,65.2439024390244,-920.9756097560977,155,2
278,2.41845703125,-4.08349609375,-2.6455078125,108.90243902439025,140.1219512195122,-927.9268292682927,155,2
279,1.74609375,-3.7060546875,-2.240234375,90.85365853658537,212.8048780487805,-919.5731707317074,155,2
280,1.93359375,-2.7822265625,-1.31640625,81.52439024390245,292.7439024390244,-887.1951219512196,155,2
281,1.73583984375,-2.4375,-0.5908203125,70.91463414634147,347.9268292682927,-854.1463414634147,155,2
282,1.919921875,-1.94189453125,-0.2900390625,62.37804878048781,429.81707317073176,-817.439024390244,155,2
283,2.18359375,-1.85888671875,-0.6240234375,7.195121951219513,459.57317073170736,-775.3048780487806,155,2
284,2.4501953125,-1.6943359375,-1.458984375,-35.670731707317074,456.76829268292687,-745.1219512195123,155,2
285,2.53125,-1.6455078125,-2.3076171875,-65.97560975609757,424.1463414634147,-682.3170731707318,155,2
286,2.609375,-1.65966796875,-2.783203125,-88.59756097560977,393.2317073170732,-641.2804878048781,155,2
287,2.5771484375,-1.56884765625,-2.60546875,-92.25609756097562,367.7439024390244,-599.8170731707318,155,2
288,2.15234375,-1.63330078125,-1.97705078125,-130.3658536585366,359.69512195121956,-577.0121951219513,155,2
289,1.6259765625,-2.0224609375,-1.36865234375,-157.13414634146343,363.3536585365854,-545.4878048780488,155,2
290,1.376953125,-1.8974609375,-0.91748046875,-196.40243902439025,362.13414634146346,-502.68292682926835,155,2
291,1.14404296875,-1.72216796875,-0.9794921875,-210.97560975609758,366.1585365853659,-462.07317073170736,155,2
292,0.97802734375,-1.33349609375,-1.1416015625,-224.02439024390245,360.00000000000006,-423.5365853658537,155,2
293,0.92919921875,-1.00341796875,-1.69091796875,-227.50000000000003,350.6707317073171,-399.26829268292687,155,2
294,1.064453125,-0.9033203125,-1.955078125,-220.4878048780488,327.9268292682927,-378.7804878048781,155,2
295,1.015625,-0.9345703125,-1.966796875,-212.7439024390244,307.07317073170736,-374.20731707317077,155,2
296,0.8896484375,-0.92578125,-1.7626953125,-203.41463414634148,296.3414634146342,-334.32926829268297,155,2
297,0.7294921875,-0.68115234375,-1.46630859375,-235.7926829268293,308.109756097561,-316.4024390243903,155,2
298,0.37890625,-0.55810546875,-1.29345703125,-274.8170731707317,300.609756097561,-299.20731707317077,155,2
299,0.142578125,-0.35498046875,-1.193359375,-287.07317073170736,288.109756097561,-288.2317073170732,155,2
300,0.16748046875,-0.21044921875,-1.21240234375,-288.3536585365854,268.2317073170732,-281.5853658536586,155,2
301,0.09228515625,-0.2314453125,-1.1513671875,-291.5243902439025,248.41463414634148,-268.6585365853659,155,2
302,0.09716796875,-0.36865234375,-1.43896484375,-297.6829268292683,236.46341463414637,-256.2804878048781,155,2
303,0.24072265625,-0.2333984375,-1.48095703125,-293.0487804878049,221.76829268292684,-239.14634146341464,155,2
304,-0.10888671875,-0.3525390625,-1.38232421875,-278.719512195122,205.1829268292683,-222.43902439024393,155,2
305,-0.2578125,-0.47265625,-1.14599609375,-252.9878048780488,201.70731707317074,-208.53658536585368,155,2
306,-0.61083984375,-0.478515625,-1.14599609375,-245.4878048780488,185.06097560975613,-201.15853658536588,155,2
307,-0.74169921875,-0.6982421875,-0.951171875,-234.69512195121953,172.8658536585366,-184.26829268292684,155,2
308,-0.8701171875,-0.73193359375,-0.94970703125,-228.59756097560978,164.75609756097563,-164.02439024390245,155,2
309,-0.9306640625,-0.77001953125,-0.9169921875,-222.19512195121953,157.01219512195124,-144.14634146341464,155,2
310,-0.95654296875,-0.8466796875,-0.8466796875,-214.26829268292684,148.90243902439025,-128.84146341463415,155,2
311,-0.912109375,-0.8408203125,-0.81201171875,-204.14634146341464,136.09756097560978,-112.13414634146342,155,2
312,-0.88037109375,-0.82080078125,-0.93603515625,-193.0487804878049,123.65853658536587,-95.2439024390244,155,2
313,-0.82958984375,-0.75048828125,-0.9228515625,-177.9878048780488,110.60975609756099,-78.41463414634147,155,2
314,-0.8544921875,-0.67041015625,-0.8310546875,-166.21951219512198,103.10975609756099,-66.15853658536587,155,2
315,-0.9560546875,-0.5986328125,-0.740234375,-160.7317073170732,100.54878048780489,-58.59756097560976,155,2
316,-1.03369140625,-0.5087890625,-0.71435546875,-154.93902439024393,93.90243902439025,-53.84146341463415,155,2
317,-1.05078125,-0.4345703125,-0.7744140625,-144.26829268292684,80.91463414634147,-48.90243902439025,155,2
318,-1.01708984375,-0.365234375,-0.85009765625,-132.5609756097561,67.92682926829269,-45.243902439024396,155,2
319,-0.99072265625,-0.32373046875,-0.8701171875,-122.07317073170732,54.93902439024391,-42.43902439024391,155,2
320,-0.98095703125,-0.2763671875,-0.83837890625,-113.35365853658537,42.25609756097561,-37.5609756097561,155,2
321,-1.01904296875,-0.3154296875,-0.82080078125,-107.7439024390244,32.926829268292686,-30.487804878048784,155,2
322,-1.087890625,-0.39599609375,-0.77197265625,-99.87804878048782,23.170731707317074,-21.402439024390247,155,2
323,-1.15234375,-0.4404296875,-0.86767578125,-87.37804878048782,13.109756097560977,-10.914634146341465,155,2
324,-1.27197265625,-0.5009765625,-0.7138671875,-76.34146341463415,4.878048780487806,-2.3170731707317076,155,2
325,-1.34033203125,-0.46044921875,-0.71337890625,-66.95121951219512,-1.9512195121951221,4.207317073170732,155,2
326,-1.3134765625,-0.3896484375,-0.716796875,-60.67073170731708,-8.475609756097562,10.731707317073171,155,2
327,-1.2724609375,-0.3408203125,-0.630859375,-52.01219512195122,-16.52439024390244,16.951219512195124,155,2
328,-1.25341796875,-0.31787109375,-0.75732421875,-41.707317073170735,-24.207317073170735,22.439024390243905,155,2
329,-1.28662109375,-0.26220703125,-0.7001953125,-34.57317073170732,-15.79268292682927,28.53658536585366,155,2
330,-1.31982421875,-0.22119140625,-0.65234375,-29.573170731707318,-35.91463414634147,34.57317073170732,155,2
331,-1.3388671875,-0.20703125,-0.74853515625,-28.231707317073173,-41.58536585365854,40.304878048780495,155,2
332,-1.310546875,-0.17333984375,-0.6005859375,-22.743902439024392,-49.024390243902445,46.40243902439025,155,2
333,-1.30517578125,-0.14697265625,-0.64453125,-14.756097560975611,-57.560975609756106,50.97560975609756,155,2
334,-1.28515625,-0.08935546875,-0.60205078125,-5.487804878048781,-66.82926829268293,53.963414634146346,155,2
335,-1.37109375,-0.04296875,-0.54248046875,2.5609756097560976,-75.3048780487805,56.34146341463415,155,2
336,-1.20947265625,0.01611328125,-0.4765625,8.963414634146343,-81.64634146341464,57.6219512195122,155,2
337,-1.16357421875,0.0595703125,-0.43408203125,14.390243902439027,-87.98780487804879,58.23170731707317,155,2
338,-1.240234375,0.10498046875,-0.4111328125,19.634146341463417,-78.47560975609757,58.65853658536586,155,2
339,-1.08935546875,0.15283203125,-0.37548828125,24.695121951219516,-99.26829268292684,58.90243902439025,155,2
340,-1.06640625,0.17626953125,-0.357421875,28.231707317073173,-101.95121951219512,59.024390243902445,155,2
341,-1.0615234375,0.205078125,-0.31201171875,30.792682926829272,-103.84146341463415,58.35365853658537,155,2
342,-1.05078125,0.2265625,-0.283203125,31.951219512195124,-105.2439024390244,56.524390243902445,155,2
343,-1.01708984375,0.26171875,-0.28759765625,29.87804878048781,-103.53658536585367,53.47560975609757,155,2
344,-0.998046875,0.30810546875,-0.28515625,26.158536585365855,-106.46341463414635,50.426829268292686,155,2
345,-1.0341796875,0.2939453125,-0.373046875,21.646341463414636,-110.60975609756099,45.79268292682927,155,2
346,-1.064453125,0.27197265625,-0.22314453125,20.365853658536587,-116.58536585365854,41.890243902439025,155,2
347,-1.08154296875,0.24658203125,-0.20849609375,23.719512195121954,-123.47560975609757,39.451219512195124,155,2
348,-1.072265625,0.23486328125,-0.21875,27.987804878048784,-130.85365853658539,38.04878048780488,155,2
349,-1.0849609375,0.21630859375,-0.21337890625,31.76829268292683,-137.4390243902439,36.09756097560976,155,2
350,-1.09130859375,0.2275390625,-0.19970703125,35.243902439024396,-142.8048780487805,34.51219512195122,155,2
351,-1.078125,0.26611328125,-0.1884765625,36.707317073170735,-148.65853658536588,33.71951219512196,155,2
352,-1.05419921875,0.3115234375,-0.15087890625,37.07317073170732,-152.07317073170734,33.53658536585366,155,2
353,-1.037109375,0.3017578125,-0.1025390625,36.40243902439025,-155.4878048780488,32.43902439024391,155,2
354,-1.04345703125,0.31103515625,-0.06396484375,35.54878048780488,-159.20731707317074,31.76829268292683,155,2
355,-1.0400390625,0.31787109375,-0.05126953125,36.707317073170735,-164.20731707317074,30.60975609756098,155,2
356,-1.0087890625,0.322265625,-0.06591796875,37.5609756097561,-168.59756097560978,27.865853658536587,155,2
357,-0.97900390625,0.357421875,-0.08349609375,40.487804878048784,-174.51219512195124,25.365853658536587,155,2
358,-0.95166015625,0.3525390625,-0.0185546875,44.390243902439025,-178.35365853658539,23.414634146341466,155,2
359,-0.91162109375,0.330078125,0.0830078125,48.29268292682927,-180.3048780487805,22.31707317073171,155,2
360,-0.8681640625,0.2939453125,0.16943359375,50.60975609756098,-180.2439024390244,21.52439024390244,155,2
361,-0.86181640625,0.2529296875,0.21875,53.78048780487806,-183.41463414634148,20.670731707317074,155,2
362,-0.859375,0.23291015625,0.1796875,57.926829268292686,-183.71951219512198,17.195121951219512,155,2
363,-0.84033203125,0.279296875,0.20263671875,63.29268292682927,-185.00000000000003,15.54878048780488,155,2
364,-0.7919921875,0.32666015625,0.240234375,65.73170731707317,-184.69512195121953,15.060975609756099,155,2
365,-0.7041015625,0.3671875,0.27685546875,67.31707317073172,-184.02439024390245,15.060975609756099,155,2
366,-0.65673828125,0.37353515625,0.2783203125,67.25609756097562,-182.9878048780488,14.26829268292683,155,2
367,-0.650390625,0.39306640625,0.306640625,67.25609756097562,-181.70731707317074,14.146341463414636,155,2
368,-0.65283203125,0.4931640625,0.37353515625,68.35365853658537,-183.47560975609758,17.31707317073171,155,2
369,-0.67431640625,0.31884765625,0.361328125,72.25609756097562,-188.109756097561,19.878048780487806,155,2
370,-0.73291015625,0.26171875,0.3310546875,81.28048780487805,-191.64634146341464,20.121951219512198,155,2
371,-0.69580078125,0.25048828125,0.33056640625,78.23170731707317,-197.13414634146343,20.365853658536587,155,2
372,-0.63818359375,0.25341796875,0.41650390625,102.98780487804879,-197.37804878048783,22.012195121951223,155,2
373,-0.57958984375,0.22216796875,0.49609375,106.28048780487806,-194.57317073170734,24.02439024390244,155,2
374,-0.52783203125,0.2275390625,0.5302734375,105.85365853658537,-189.32926829268294,24.939024390243905,155,2
375,-0.5048828125,0.24609375,0.5205078125,103.47560975609757,-183.109756097561,26.158536585365855,155,2
376,-0.47998046875,0.26318359375,0.54296875,99.32926829268294,-177.07317073170734,27.5609756097561,155,2
377,-0.46923828125,0.25634765625,0.5283203125,97.01219512195122,-177.9878048780488,31.951219512195124,155,2
378,-0.50390625,0.2099609375,0.61962890625,96.34146341463415,-179.20731707317074,35.426829268292686,155,2
379,-0.51171875,0.205078125,0.505859375,100.60975609756099,-183.96341463414635,39.32926829268293,155,2
380,-0.4853515625,0.21435546875,0.5087890625,106.28048780487806,-190.2439024390244,44.451219512195124,155,2
381,-0.42822265625,0.24560546875,0.537109375,113.47560975609757,-196.15853658536588,50.304878048780495,155,2
382,-0.3974609375,0.23291015625,0.53173828125,115.60975609756099,-200.5487804878049,55.1829268292683,155,2
383,-0.36865234375,0.2490234375,0.5537109375,118.59756097560977,-205.85365853658539,59.75609756097562,155,2
384,-0.3466796875,0.2568359375,0.58740234375,121.46341463414635,-209.02439024390245,63.71951219512196,155,2
385,-0.3251953125,0.12646484375,0.62646484375,119.57317073170732,-208.96341463414635,66.58536585365854,155,2
386,-0.26025390625,0.27685546875,0.63671875,114.63414634146342,-207.07317073170734,68.04878048780489,155,2
387,-0.2353515625,0.2861328125,0.634765625,103.59756097560977,-200.609756097561,69.14634146341464,155,2
388,-0.1728515625,0.32421875,0.57080078125,108.84146341463416,-195.7317073170732,71.70731707317074,155,2
389,-0.1005859375,0.38037109375,0.56982421875,85.54878048780489,-192.37804878048783,74.93902439024392,155,2
390,-0.05078125,0.3896484375,0.59228515625,82.37804878048782,-194.57317073170734,79.32926829268294,155,2
391,-0.04296875,0.3310546875,0.56787109375,84.81707317073172,-200.6707317073171,85.60975609756099,155,2
392,-0.09130859375,0.2783203125,0.6162109375,90.73170731707317,-204.69512195121953,88.53658536585367,155,2
393,-0.06494140625,0.27490234375,0.65478515625,96.58536585365854,-207.56097560975613,91.64634146341464,155,2
394,-0.0087890625,0.3095703125,0.66650390625,100.67073170731709,-207.50000000000003,94.81707317073172,155,2
395,0.05224609375,0.333984375,0.71240234375,95.0609756097561,-201.28048780487808,97.43902439024392,155,2
396,0.078125,0.33935546875,0.6572265625,81.95121951219512,-191.58536585365854,97.7439024390244,155,2
397,0.13427734375,0.40478515625,0.69482421875,72.6219512195122,-182.6829268292683,99.75609756097562,155,2
398,0.138671875,0.40087890625,0.705078125,67.6219512195122,-179.32926829268294,103.04878048780489,155,2
399,0.14501953125,0.357421875,0.67626953125,67.01219512195122,-177.25609756097563,105.73170731707317,155,2
400,0.14208984375,0.326171875,0.666015625,69.75609756097562,-176.28048780487808,107.43902439024392,155,2
401,0.16650390625,0.32763671875,0.64990234375,75.0609756097561,-176.95121951219514,109.14634146341464,155,2
402,0.2177734375,0.36181640625,0.65869140625,81.21951219512196,-177.07317073170734,110.85365853658537,155,2
403,0.27392578125,0.37060546875,0.6259765625,84.81707317073172,-177.31707317073173,113.65853658536587,155,2
404,0.26904296875,0.3125,0.5595703125,93.10975609756099,-187.07317073170734,113.90243902439025,155,2
405,0.30029296875,0.3525390625,0.5576171875,68.59756097560977,-163.41463414634148,112.92682926829269,155,2
406,0.36181640625,0.39990234375,0.60986328125,61.28048780487806,-156.76829268292684,113.65853658536587,155,2
407,0.419921875,0.43359375,0.67138671875,57.6829268292683,-152.5609756097561,115.48780487804879,155,2
408,0.419921875,0.39599609375,0.701171875,55.79268292682927,-148.78048780487805,117.50000000000001,155,2
409,0.3818359375,0.349609375,0.7578125,55.426829268292686,-144.75609756097563,118.96341463414635,155,2
410,0.3623046875,0.3564453125,0.78076171875,57.6219512195122,-142.4390243902439,119.26829268292684,155,2
411,0.39501953125,0.38525390625,0.86962890625,59.39024390243903,-140.0,119.63414634146342,155,2
412,0.41162109375,0.43310546875,0.6689453125,60.1219512195122,-140.4878048780488,121.03658536585367,155,2
413,0.42431640625,0.44091796875,0.57568359375,63.17073170731708,-141.89024390243904,120.73170731707319,155,2
414,0.435546875,0.41162109375,0.53125,57.865853658536594,-136.64634146341464,118.96341463414635,155,2
415,0.515625,0.47119140625,0.52978515625,52.50000000000001,-132.19512195121953,118.29268292682927,155,2
416,0.56689453125,0.48583984375,0.55224609375,47.43902439024391,-127.31707317073172,118.04878048780489,155,2
417,0.60546875,0.48974609375,0.56298828125,45.426829268292686,-123.10975609756099,117.37804878048782,155,2
418,0.595703125,0.4326171875,0.55517578125,44.93902439024391,-119.39024390243904,117.19512195121952,155,2
419,0.576171875,0.408203125,0.55517578125,45.73170731707317,-115.54878048780489,116.34146341463416,155,2
420,0.5966796875,0.41259765625,0.6015625,48.65853658536586,-111.95121951219514,115.3658536585366,155,2
421,0.6162109375,0.41162109375,0.5908203125,52.19512195121952,-106.70731707317074,113.84146341463416,155,2
422,0.62548828125,0.4013671875,0.58203125,55.85365853658537,-101.15853658536587,113.65853658536587,155,2
423,0.6064453125,0.38720703125,0.5302734375,57.50000000000001,-95.0609756097561,113.17073170731709,155,2
424,0.62451171875,0.42724609375,0.4833984375,57.01219512195122,-91.58536585365854,112.56097560975611,155,2
425,0.62451171875,0.4921875,0.4384765625,52.987804878048784,-87.98780487804879,112.56097560975611,155,2
426,0.61376953125,0.544921875,0.41650390625,62.13414634146342,-84.20731707317074,112.8048780487805,155,2
427,0.5009765625,0.552734375,0.40771484375,39.51219512195122,-81.40243902439025,114.14634146341464,155,2
428,0.62939453125,0.57177734375,0.421875,32.5609756097561,-78.29268292682927,115.79268292682927,155,2
429,0.6337890625,0.560546875,0.43603515625,26.158536585365855,-76.70731707317074,117.92682926829269,155,2
430,0.65673828125,0.53759765625,0.45458984375,22.25609756097561,-77.8048780487805,121.15853658536587,155,2
431,0.6435546875,0.48193359375,0.4697265625,20.54878048780488,-78.29268292682927,123.23170731707319,155,2
432,0.64404296875,0.4501953125,0.52294921875,20.853658536585368,-77.43902439024392,124.75609756097562,155,2
433,0.6845703125,0.44970703125,0.54052734375,22.31707317073171,-75.91463414634147,125.00000000000001,155,2
434,0.74755859375,0.45947265625,0.5322265625,23.658536585365855,-75.60975609756098,124.57317073170732,155,2
435,0.76123046875,0.45166015625,0.490234375,25.243902439024392,-75.0609756097561,122.98780487804879,155,2
436,0.79541015625,0.48388671875,0.3935546875,24.207317073170735,-72.7439024390244,120.48780487804879,155,2
437,0.83251953125,0.51513671875,0.31103515625,18.963414634146343,-69.63414634146342,119.14634146341464,155,2
438,0.892578125,0.5537109375,0.25732421875,13.536585365853659,-68.47560975609757,119.45121951219514,155,2
439,0.8896484375,0.5283203125,0.189453125,7.8048780487804885,-67.8658536585366,119.87804878048782,155,2
440,0.99560546875,0.4794921875,0.19189453125,2.987804878048781,-68.23170731707317,119.32926829268294,155,2
441,0.85546875,0.45361328125,0.28125,1.4634146341463417,-69.26829268292684,117.6829268292683,155,2
442,0.84765625,0.419921875,0.2509765625,2.0121951219512195,-65.97560975609757,116.28048780487806,155,2
443,0.83056640625,0.37353515625,0.38916015625,1.8902439024390245,-61.585365853658544,114.87804878048782,155,2
444,0.83251953125,0.36865234375,0.34228515625,3.353658536585366,-60.304878048780495,113.35365853658537,155,2
445,0.85595703125,0.35400390625,0.283203125,5.548780487804878,-60.79268292682927,111.40243902439025,155,2
446,0.89990234375,0.3623046875,0.259765625,6.158536585365854,-61.82926829268293,109.02439024390245,155,2
447,0.9189453125,0.35302734375,0.23779296875,3.7195121951219514,-62.560975609756106,106.89024390243904,155,2
448,0.91357421875,0.34130859375,0.2001953125,0.24390243902439027,-63.78048780487806,105.3658536585366,155,2
449,0.880859375,0.3427734375,0.20556640625,-4.390243902439025,-63.71951219512196,104.02439024390245,155,2
450,0.873046875,0.3388671875,0.23046875,-8.719512195121952,-62.804878048780495,102.8658536585366,155,2
451,0.87158203125,0.34619140625,0.31787109375,-10.914634146341465,-61.89024390243903,100.2439024390244,155,2
452,0.86181640625,0.31591796875,0.37060546875,-9.51219512195122,-60.1219512195122,95.97560975609757,155,2
453,0.8330078125,0.27880859375,0.37451171875,-4.695121951219512,-57.37804878048781,91.21951219512196,155,2
454,0.8642578125,0.29345703125,0.33837890625,2.3170731707317076,-54.69512195121952,84.32926829268294,155,2
455,0.93212890625,0.3935546875,0.34228515625,9.51219512195122,-53.04878048780488,93.29268292682927,155,2
456,0.9765625,0.43408203125,0.31298828125,13.231707317073171,-49.75609756097561,71.82926829268294,155,2
457,0.96484375,0.45458984375,0.27587890625,15.30487804878049,-46.646341463414636,67.25609756097562,155,2
458,0.9228515625,0.46142578125,0.23583984375,17.865853658536587,-44.57317073170732,62.6829268292683,155,2
459,0.92236328125,0.3759765625,0.22900390625,19.26829268292683,-42.31707317073171,59.146341463414636,155,2
460,0.935546875,0.533203125,0.234375,17.926829268292686,-40.1219512195122,56.585365853658544,155,2
461,0.91650390625,0.51025390625,0.25537109375,31.09756097560976,-37.07317073170732,54.51219512195122,155,2
462,0.89111328125,0.49853515625,0.29345703125,13.353658536585368,-35.30487804878049,52.86585365853659,155,2
463,0.86669921875,0.46630859375,0.27490234375,12.500000000000002,-33.78048780487805,51.524390243902445,155,2
464,0.84619140625,0.4609375,0.31494140625,12.256097560975611,-31.463414634146343,48.59756097560976,155,2
465,0.75830078125,0.4873046875,0.3359375,11.463414634146343,-28.231707317073173,45.00000000000001,155,2
466,0.93798828125,0.53662109375,0.34814453125,8.536585365853659,-23.84146341463415,41.34146341463415,155,2
467,0.92724609375,0.537109375,0.3134765625,5.670731707317073,-18.963414634146343,36.951219512195124,155,2
468,0.9365234375,0.53271484375,0.2958984375,4.329268292682928,-31.219512195121954,32.43902439024391,155,2
469,0.93408203125,0.51904296875,0.28076171875,4.817073170731708,-13.414634146341465,26.82926829268293,155,2
470,0.92431640625,0.50341796875,0.25,6.585365853658537,-11.890243902439025,21.52439024390244,155,2
471,0.90966796875,0.4775390625,0.2080078125,9.085365853658537,-10.975609756097562,16.219512195121954,155,2
472,0.91064453125,0.466796875,0.1826171875,11.036585365853659,-10.609756097560977,10.853658536585368,155,2
473,0.90478515625,0.45361328125,0.16015625,11.829268292682928,-8.536585365853659,5.182926829268293,155,2
474,0.92138671875,0.4619140625,0.13623046875,11.829268292682928,-6.951219512195123,0.7926829268292683,155,2
475,0.908203125,0.43994140625,0.1455078125,11.036585365853659,-4.207317073170732,-3.780487804878049,155,2
476,0.888671875,0.408203125,0.1591796875,9.390243902439025,-1.0365853658536586,-8.109756097560977,155,2
477,0.880859375,0.4033203125,0.2099609375,7.743902439024391,3.2926829268292686,-12.01219512195122,155,2
478,0.86083984375,0.384765625,0.2236328125,7.134146341463415,7.500000000000001,-14.756097560975611,155,2
479,0.8369140625,0.353515625,0.19921875,7.500000000000001,10.30487804878049,-17.134146341463417,155,2
480,0.80517578125,0.3037109375,0.1630859375,7.865853658536586,12.74390243902439,-19.451219512195124,155,2
481,0.79736328125,0.27685546875,0.146484375,8.902439024390244,13.902439024390246,-21.402439024390247,155,2
482,0.80615234375,0.28515625,0.1435546875,9.573170731707318,14.939024390243905,-23.59756097560976,155,2
483,0.81591796875,0.25732421875,0.13916015625,8.78048780487805,16.585365853658537,-25.000000000000004,155,2
484,0.7978515625,0.24267578125,0.2451171875,7.621951219512196,17.31707317073171,-26.219512195121954,155,2
485,0.77587890625,0.21484375,0.1181640625,6.951219512195123,19.146341463414636,-27.987804878048784,155,2
486,0.80078125,0.2216796875,0.150390625,6.097560975609756,20.731707317073173,-29.512195121951223,155,2
487,0.82666015625,0.22265625,0.17578125,5.060975609756098,22.743902439024392,-30.853658536585368,155,2
488,0.80810546875,0.1953125,0.17578125,4.024390243902439,24.512195121951223,-32.13414634146342,155,2
489,0.77734375,0.17431640625,0.1630859375,3.658536585365854,25.54878048780488,-33.29268292682927,155,2
490,0.77685546875,0.16552734375,0.17041015625,3.963414634146342,27.012195121951223,-34.207317073170735,155,2
491,0.79052734375,0.166015625,0.193359375,2.9268292682926833,29.207317073170735,-34.81707317073171,155,2
492,0.7919921875,0.15625,0.18408203125,2.0121951219512195,30.426829268292686,-35.30487804878049,155,2
493,0.767578125,0.13134765625,0.14697265625,2.5,15.609756097560977,-36.21951219512196,155,2
494,0.75927734375,0.1171875,0.13525390625,2.8658536585365857,31.280487804878053,-37.01219512195122,155,2
495,0.77001953125,0.00146484375,0.1298828125,2.8658536585365857,31.646341463414636,-37.6219512195122,155,2
496,0.7783203125,0.130859375,0.13671875,2.25609756097561,32.01219512195122,-37.80487804878049,155,2
497,0.7548828125,0.13134765625,0.12890625,1.0975609756097562,32.5,-37.5609756097561,155,2
498,0.736328125,0.1220703125,0.11669921875,0.6707317073170732,32.07317073170732,-37.743902439024396,155,2
499,0.73193359375,0.12744140625,0.12255859375,0.853658536585366,31.463414634146343,-37.926829268292686,155,2
