,Ax,Ay,Az,Gx,Gy,Gz,distance,shot_type
0,0.59375,-0.57666015625,-0.30224609375,30.975609756097565,2.25609756097561,1.0975609756097562,20,4
1,0.591796875,-0.58642578125,-0.30029296875,12.439024390243903,4.024390243902439,1.3414634146341464,20,4
2,0.625,-0.560546875,-0.314453125,9.146341463414634,6.341463414634147,1.829268292682927,20,4
3,0.63134765625,-0.55712890625,-0.34033203125,4.329268292682928,9.085365853658537,1.6463414634146343,20,4
4,0.63427734375,-0.533203125,-0.34375,0.9146341463414634,10.548780487804878,1.524390243902439,20,4
5,0.6396484375,-0.537109375,-0.3525390625,-1.0365853658536586,9.878048780487806,1.524390243902439,20,4
6,0.65966796875,-0.54345703125,-0.37060546875,-3.963414634146342,10.487804878048781,1.5853658536585367,20,4
7,0.65966796875,-0.5517578125,-0.38916015625,-7.01219512195122,10.914634146341465,2.6219512195121952,20,4
8,0.662109375,-0.57080078125,-0.404296875,-9.146341463414634,10.426829268292684,3.231707317073171,20,4
9,0.64111328125,-0.57666015625,-0.40283203125,-9.573170731707318,9.817073170731708,4.329268292682928,20,4
10,0.63671875,-0.5869140625,-0.38818359375,-11.341463414634147,10.365853658536587,5.670731707317073,20,4
11,0.64208984375,-0.59375,-0.365234375,-14.085365853658537,12.134146341463415,6.7682926829268295,20,4
12,0.64453125,-0.5595703125,-0.34814453125,-17.31707317073171,13.78048780487805,6.463414634146342,20,4
13,0.65185546875,-0.5126953125,-0.3408203125,-18.04878048780488,15.54878048780488,7.378048780487806,20,4
14,0.6376953125,-0.5107421875,-0.2998046875,-19.390243902439025,17.5,7.500000000000001,20,4
15,0.64892578125,-0.5009765625,-0.29345703125,-22.439024390243905,20.670731707317074,7.439024390243903,20,4
16,0.669921875,-0.44970703125,-0.27880859375,-25.853658536585368,24.207317073170735,6.707317073170732,20,4
17,0.68115234375,-0.4189453125,-0.25,-29.939024390243905,27.926829268292686,5.975609756097562,20,4
18,0.6884765625,-0.4228515625,-0.259765625,-33.71951219512196,30.792682926829272,5.853658536585367,20,4
19,0.67626953125,-0.45263671875,-0.2177734375,-33.04878048780488,31.09756097560976,5.487804878048781,20,4
20,0.6806640625,-0.4951171875,-0.16162109375,-31.34146341463415,30.000000000000004,5.609756097560976,20,4
21,0.677734375,-0.52734375,-0.13818359375,-24.207317073170735,27.439024390243905,5.609756097560976,20,4
22,0.66748046875,-0.54150390625,-0.07958984375,-15.975609756097562,23.658536585365855,5.670731707317073,20,4
23,0.6669921875,-0.55224609375,-0.10986328125,-11.28048780487805,22.439024390243905,5.487804878048781,20,4
24,0.6669921875,-0.5078125,-0.1669921875,-11.036585365853659,22.865853658536587,4.024390243902439,20,4
25,0.71142578125,-0.44580078125,-0.23291015625,-14.573170731707318,25.121951219512198,3.1707317073170733,20,4
26,0.728515625,-0.42626953125,-0.24853515625,-20.60975609756098,29.634146341463417,2.378048780487805,20,4
27,0.7392578125,-0.431640625,-0.24755859375,-27.31707317073171,32.926829268292686,1.2195121951219514,20,4
28,0.7490234375,-0.44775390625,-0.22265625,-28.353658536585368,32.6829268292683,0.7926829268292683,20,4
29,0.7021484375,-0.5029296875,-0.20458984375,-23.475609756097562,27.865853658536587,0.30487804878048785,20,4
30,0.67041015625,-0.55029296875,-0.19580078125,-16.03658536585366,22.743902439024392,-0.5487804878048781,20,4
31,0.673828125,-0.544921875,-0.19189453125,-8.963414634146343,18.414634146341466,-0.9146341463414634,20,4
32,0.68701171875,-0.50146484375,-0.19775390625,-5.548780487804878,16.52439024390244,-1.0365853658536586,20,4
33,0.68115234375,-0.48779296875,-0.18603515625,-4.2682926829268295,15.731707317073171,-1.2804878048780488,20,4
34,0.6826171875,-0.49169921875,-0.1826171875,-3.1097560975609757,15.000000000000002,-1.7682926829268295,20,4
35,0.67431640625,-0.49462890625,-0.18408203125,-1.402439024390244,13.963414634146343,-1.829268292682927,20,4
36,0.66455078125,-0.37939453125,-0.2001953125,-0.48780487804878053,13.536585365853659,-1.3414634146341464,20,4
37,0.65625,-0.62353515625,-0.212890625,-0.9146341463414634,14.26829268292683,-1.6463414634146343,20,4
38,0.6796875,-0.490234375,-0.22265625,-2.073170731707317,14.939024390243905,-1.3414634146341464,20,4
39,0.68896484375,-0.4970703125,-0.20849609375,-3.1707317073170733,16.28048780487805,-1.2195121951219514,20,4
40,0.68017578125,-0.50927734375,-0.22119140625,-3.414634146341464,16.951219512195124,-0.9756097560975611,20,4
41,0.6826171875,-0.509765625,-0.2275390625,-3.658536585365854,18.658536585365855,-0.7926829268292683,20,4
42,0.6806640625,-0.50634765625,-0.21533203125,-5.975609756097562,19.939024390243905,-0.6707317073170732,20,4
43,0.681640625,-0.5,-0.21435546875,-6.890243902439025,19.81707317073171,-0.6707317073170732,20,4
44,0.6630859375,-0.515625,-0.19921875,-5.3048780487804885,18.170731707317074,-0.5487804878048781,20,4
45,0.6591796875,-0.5283203125,-0.1953125,-2.25609756097561,15.731707317073171,-0.6707317073170732,20,4
46,0.66162109375,-0.52490234375,-0.2041015625,0.9146341463414634,13.04878048780488,-0.9146341463414634,20,4
47,0.65673828125,-0.52197265625,-0.18798828125,3.658536585365854,11.646341463414634,-1.3414634146341464,20,4
48,0.671875,-0.51416015625,-0.193359375,5.2439024390243905,11.036585365853659,-1.2804878048780488,20,4
49,0.6884765625,-0.51416015625,-0.1875,5.365853658536586,12.01219512195122,-0.7317073170731708,20,4
50,0.69580078125,-0.509765625,-0.2021484375,4.573170731707317,13.475609756097562,-0.9146341463414634,20,4
51,0.69873046875,-0.62255859375,-0.21826171875,2.073170731707317,15.670731707317074,-0.9756097560975611,20,4
52,0.72216796875,-0.4755859375,-0.2294921875,-0.6707317073170732,18.231707317073173,-0.9146341463414634,20,4
53,0.716796875,-0.48681640625,-0.2109375,-2.8658536585365857,20.975609756097562,-0.7317073170731708,20,4
54,0.7158203125,-0.5107421875,-0.18798828125,-3.353658536585366,22.25609756097561,-0.7926829268292683,20,4
55,0.69677734375,-0.517578125,-0.19873046875,-2.8658536585365857,23.170731707317074,-0.853658536585366,20,4
56,0.68896484375,-0.51318359375,-0.1767578125,-2.9268292682926833,24.02439024390244,-1.1585365853658538,20,4
57,0.67529296875,-0.50927734375,-0.1650390625,-1.0975609756097562,24.695121951219516,-1.524390243902439,20,4
58,0.67138671875,-0.521484375,-0.15087890625,1.9512195121951221,24.573170731707318,-1.5853658536585367,20,4
59,0.6630859375,-0.544921875,-0.14990234375,4.573170731707317,22.926829268292686,-1.7682926829268295,20,4
60,0.69580078125,-0.52001953125,-0.17431640625,7.073170731707318,22.25609756097561,-1.707317073170732,20,4
61,0.69921875,-0.51123046875,-0.17822265625,7.865853658536586,21.097560975609756,-2.1341463414634148,20,4
62,0.685546875,-0.5078125,-0.1416015625,12.621951219512196,20.0,-2.6219512195121952,20,4
63,0.66162109375,-0.54345703125,-0.12353515625,16.34146341463415,18.84146341463415,-3.2926829268292686,20,4
64,0.68603515625,-0.53369140625,-0.16162109375,16.158536585365855,16.585365853658537,-3.658536585365854,20,4
65,0.6875,-0.62060546875,-0.197265625,15.060975609756099,13.78048780487805,-3.1707317073170733,20,4
66,0.7109375,-0.4677734375,-0.2080078125,13.78048780487805,13.414634146341465,-3.231707317073171,20,4
67,0.70556640625,-0.47265625,-0.1708984375,10.914634146341465,15.426829268292684,-3.353658536585366,20,4
68,0.70068359375,-0.47900390625,-0.15673828125,6.52439024390244,17.5609756097561,-3.780487804878049,20,4
69,0.71142578125,-0.46875,-0.1650390625,3.1097560975609757,20.365853658536587,-3.7195121951219514,20,4
70,0.7119140625,-0.4755859375,-0.1640625,-0.9146341463414634,23.658536585365855,-3.1097560975609757,20,4
71,0.69580078125,-0.49072265625,-0.13720703125,-5.365853658536586,26.03658536585366,-2.7439024390243905,20,4
72,0.69189453125,-0.49755859375,-0.13330078125,-8.353658536585366,28.10975609756098,-2.25609756097561,20,4
73,0.66845703125,-0.5078125,-0.10986328125,-8.597560975609756,27.25609756097561,-0.9756097560975611,20,4
74,0.66552734375,-0.52734375,-0.09814453125,-4.75609756097561,24.878048780487806,-0.12195121951219513,20,4
75,0.66064453125,-0.54638671875,-0.09814453125,-0.24390243902439027,21.82926829268293,0.426829268292683,20,4
76,0.65380859375,-0.537109375,-0.12646484375,2.987804878048781,20.243902439024392,0.426829268292683,20,4
77,0.677734375,-0.5185546875,-0.14306640625,3.780487804878049,19.878048780487806,0.48780487804878053,20,4
78,0.6845703125,-0.6171875,-0.15625,2.073170731707317,20.30487804878049,0.06097560975609757,20,4
79,0.7001953125,-0.47265625,-0.142578125,-0.426829268292683,21.097560975609756,-0.06097560975609757,20,4
80,0.70947265625,-0.46923828125,-0.24462890625,-2.439024390243903,21.707317073170735,-0.48780487804878053,20,4
81,0.71435546875,-0.46240234375,-0.10693359375,-3.7195121951219514,22.378048780487806,-1.1585365853658538,20,4
82,0.73095703125,-0.4462890625,-0.080078125,-3.8414634146341466,23.353658536585368,-2.682926829268293,20,4
83,0.7490234375,-0.41943359375,-0.07763671875,-3.963414634146342,23.719512195121954,-3.963414634146342,20,4
84,0.7724609375,-0.4033203125,-0.0888671875,-3.780487804878049,21.707317073170735,-4.024390243902439,20,4
85,0.7392578125,-0.431640625,-0.10107421875,-2.0121951219512195,18.78048780487805,-2.5,20,4
86,0.68505859375,-0.376953125,-0.12646484375,1.2195121951219514,16.82926829268293,-0.12195121951219513,20,4
87,0.66015625,-0.53173828125,-0.1337890625,2.5,17.25609756097561,1.5853658536585367,20,4
88,0.662109375,-0.52099609375,-0.1083984375,3.4756097560975614,18.414634146341466,2.439024390243903,20,4
89,0.68701171875,-0.51220703125,-0.11474609375,5.365853658536586,18.353658536585368,2.5609756097560976,20,4
90,0.69384765625,-0.4931640625,-0.1455078125,6.890243902439025,19.451219512195124,2.804878048780488,20,4
91,0.7109375,-0.49853515625,-0.17626953125,4.207317073170732,21.28048780487805,4.75609756097561,20,4
92,0.705078125,-0.49365234375,-0.20751953125,-2.8658536585365857,26.09756097560976,5.914634146341464,20,4
93,0.72314453125,-0.47265625,-0.1953125,-12.378048780487806,33.41463414634146,6.52439024390244,20,4
94,0.7158203125,-0.44970703125,-0.19091796875,-25.243902439024392,42.50000000000001,6.951219512195123,20,4
95,0.72412109375,-0.43212890625,-0.17919921875,-38.170731707317074,52.07317073170732,7.134146341463415,20,4
96,0.73876953125,-0.4111328125,-0.1650390625,-48.47560975609756,60.1829268292683,7.621951219512196,20,4
97,0.7333984375,-0.4306640625,-0.10888671875,-56.03658536585366,67.6219512195122,9.085365853658537,20,4
98,0.6904296875,-0.48876953125,-0.0634765625,-60.304878048780495,71.58536585365854,10.731707317073171,20,4
99,0.6796875,-0.4990234375,-0.05322265625,-55.304878048780495,71.70731707317074,11.890243902439025,20,4
100,0.69140625,-0.5068359375,-0.0498046875,-49.085365853658544,68.41463414634147,13.475609756097562,20,4
101,0.68408203125,-0.52392578125,-0.1005859375,-45.73170731707317,64.69512195121952,15.243902439024392,20,4
102,0.6865234375,-0.46875,-0.1787109375,-45.91463414634147,62.6219512195122,15.54878048780488,20,4
103,0.74853515625,-0.3720703125,-0.20654296875,-54.451219512195124,67.6829268292683,12.80487804878049,20,4
104,0.80615234375,-0.29541015625,-0.24951171875,-70.67073170731707,77.43902439024392,8.414634146341465,20,4
105,0.8173828125,-0.375,-0.2587890625,-86.58536585365854,86.46341463414635,4.695121951219512,20,4
106,0.7958984375,-0.2890625,-0.2275390625,-97.25609756097562,88.84146341463415,1.2195121951219514,20,4
107,0.779296875,-0.35595703125,-0.2099609375,-98.96341463414635,86.46341463414635,-0.9756097560975611,20,4
108,0.6845703125,-0.46923828125,-0.138671875,-91.15853658536587,79.87804878048782,-0.853658536585366,20,4
109,0.6591796875,-0.53466796875,-0.14404296875,-75.67073170731707,68.71951219512195,0.6097560975609757,20,4
110,0.64697265625,-0.54150390625,-0.13623046875,-60.00000000000001,57.804878048780495,0.9146341463414634,20,4
111,0.6455078125,-0.509765625,-0.16015625,-47.926829268292686,49.39024390243903,15.54878048780488,20,4
112,0.65771484375,-0.45654296875,-0.19482421875,-42.31707317073171,44.81707317073171,-2.25609756097561,20,4
113,0.6884765625,-0.37548828125,-0.1923828125,-40.54878048780488,42.50000000000001,-3.658536585365854,20,4
114,0.70849609375,-0.341796875,-0.24072265625,-40.73170731707317,39.32926829268293,-3.780487804878049,20,4
115,0.74755859375,-0.2861328125,-0.3017578125,-44.146341463414636,38.04878048780488,-5.182926829268293,20,4
116,0.7431640625,-0.27978515625,-0.31640625,-49.69512195121952,38.71951219512196,-7.560975609756098,20,4
117,0.73388671875,-0.25732421875,-0.30859375,-55.426829268292686,40.73170731707317,-10.426829268292684,20,4
118,0.759765625,-0.24462890625,-0.27490234375,-61.34146341463415,42.50000000000001,-12.134146341463415,20,4
119,0.72509765625,-0.27490234375,-0.23046875,-66.21951219512195,42.6219512195122,-12.195121951219512,20,4
120,0.693359375,-0.29296875,-0.244140625,-66.28048780487805,39.93902439024391,-13.658536585365855,20,4
121,0.7080078125,-0.28857421875,-0.27197265625,-65.60975609756098,37.6829268292683,-0.06097560975609757,20,4
122,0.7041015625,-0.29150390625,-0.25732421875,-66.40243902439025,36.34146341463415,-16.646341463414636,20,4
123,0.70849609375,-0.3037109375,-0.27294921875,-67.13414634146342,35.85365853658537,-18.475609756097562,20,4
124,0.72802734375,-0.267578125,-0.27587890625,-70.0609756097561,35.426829268292686,-20.30487804878049,20,4
125,0.72509765625,-0.26171875,-0.3212890625,-75.1219512195122,35.426829268292686,-22.195121951219512,20,4
126,0.734375,-0.212890625,-0.31201171875,-80.73170731707317,36.82926829268293,-24.451219512195124,20,4
127,0.87255859375,-0.197265625,-0.2958984375,-86.70731707317074,38.47560975609756,-27.134146341463417,20,4
128,0.62744140625,-0.22119140625,-0.28564453125,-91.03658536585367,38.10975609756098,-29.146341463414636,20,4
129,0.7138671875,-0.259765625,-0.28564453125,-91.58536585365854,36.15853658536586,-30.853658536585368,20,4
130,0.7275390625,-0.25927734375,-0.2724609375,-89.81707317073172,33.35365853658537,-32.25609756097561,20,4
131,0.7353515625,-0.25244140625,-0.2880859375,-89.51219512195122,46.707317073170735,-33.29268292682927,20,4
132,0.74951171875,-0.23828125,-0.29443359375,-91.03658536585367,29.634146341463417,-34.93902439024391,20,4
133,0.7529296875,-0.2294921875,-0.3037109375,-94.57317073170732,30.0609756097561,-36.890243902439025,20,4
134,0.7646484375,-0.23046875,-0.357421875,-100.3658536585366,31.158536585365855,-39.451219512195124,20,4
135,0.78173828125,-0.21142578125,-0.3525390625,-105.42682926829269,32.07317073170732,-41.951219512195124,20,4
136,0.79296875,-0.2109375,-0.3515625,-110.79268292682927,33.53658536585366,-43.59756097560976,20,4
137,0.7958984375,-0.212890625,-0.3857421875,-115.79268292682927,32.743902439024396,-46.03658536585366,20,4
138,0.828125,-0.17333984375,-0.37353515625,-119.93902439024392,33.109756097560975,-49.207317073170735,20,4
139,0.8466796875,-0.18408203125,-0.25244140625,-109.51219512195122,33.29268292682927,-51.03658536585366,20,4
140,0.82958984375,-0.224609375,-0.34814453125,-128.59756097560978,32.743902439024396,-51.82926829268293,20,4
141,0.8203125,-0.2275390625,-0.35400390625,-130.6707317073171,32.5,-54.69512195121952,20,4
142,0.83837890625,-0.197265625,-0.36181640625,-133.2926829268293,31.82926829268293,-56.707317073170735,20,4
143,0.85498046875,-0.181640625,-0.37353515625,-137.19512195121953,32.07317073170732,-59.024390243902445,20,4
144,0.88330078125,-0.16015625,-0.3720703125,-141.64634146341464,34.390243902439025,-62.31707317073171,20,4
145,0.89599609375,-0.15185546875,-0.251953125,-147.4390243902439,35.426829268292686,-65.1829268292683,20,4
146,0.8984375,-0.146484375,-0.42724609375,-151.46341463414635,34.69512195121951,-68.29268292682927,20,4
147,0.9140625,-0.126953125,-0.39111328125,-154.63414634146343,35.487804878048784,-71.46341463414635,20,4
148,0.92919921875,-0.2490234375,-0.3876953125,-158.2317073170732,36.463414634146346,-75.0,20,4
149,0.9501953125,-0.1201171875,-0.42041015625,-162.19512195121953,36.58536585365854,-78.90243902439025,20,4
150,0.9384765625,-0.123046875,-0.4208984375,-164.08536585365854,36.40243902439025,-83.04878048780489,20,4
151,0.94189453125,-0.1298828125,-0.41943359375,-164.93902439024393,34.451219512195124,-85.79268292682927,20,4
152,0.9521484375,-0.13671875,-0.4296875,-166.64634146341464,34.32926829268293,-89.32926829268294,20,4
153,0.958984375,-0.24951171875,-0.43115234375,-169.02439024390245,34.390243902439025,-92.31707317073172,20,4
154,0.9716796875,-0.109375,-0.43701171875,-156.21951219512198,35.1829268292683,-96.21951219512196,20,4
155,0.87841796875,-0.0859375,-0.4189453125,-175.7926829268293,37.5,-100.85365853658537,20,4
156,1.0556640625,-0.03564453125,-0.40087890625,-182.6829268292683,40.670731707317074,-105.42682926829269,20,4
157,1.05615234375,-0.0419921875,-0.4248046875,-190.1219512195122,42.43902439024391,-109.26829268292684,20,4
158,1.03857421875,-0.06494140625,-0.44384765625,-194.02439024390245,44.51219512195122,-114.87804878048782,20,4
159,1.048828125,-0.0751953125,-0.4248046875,-194.93902439024393,45.36585365853659,-118.35365853658537,20,4
160,1.0791015625,-0.08740234375,-0.4228515625,-192.6829268292683,42.25609756097561,-121.70731707317074,20,4
161,1.11376953125,-0.029296875,-0.4169921875,-188.47560975609758,39.08536585365854,-125.85365853658537,20,4
162,1.146484375,-0.00537109375,-0.41845703125,-189.02439024390245,38.23170731707317,-129.9390243902439,20,4
163,1.1865234375,0.01904296875,-0.42236328125,-192.25609756097563,39.207317073170735,-135.6707317073171,20,4
164,1.2119140625,0.03759765625,-0.39990234375,-194.20731707317074,40.79268292682927,-141.64634146341464,20,4
165,1.1279296875,0.06494140625,-0.3349609375,-194.20731707317074,41.58536585365854,-146.89024390243904,20,4
166,1.263671875,0.05517578125,-0.31884765625,-194.93902439024393,41.58536585365854,-151.70731707317074,20,4
167,1.28076171875,0.0576171875,-0.328125,-193.59756097560978,39.69512195121951,-156.70731707317074,20,4
168,1.27734375,0.09375,-0.30712890625,-189.14634146341464,37.6219512195122,-163.35365853658539,20,4
169,1.3544921875,0.158203125,-0.29638671875,-184.75609756097563,36.34146341463415,-169.26829268292684,20,4
170,1.3916015625,0.17578125,-0.32275390625,-184.39024390243904,35.0609756097561,-172.8048780487805,20,4
171,1.44775390625,0.21240234375,-0.2978515625,-183.109756097561,36.09756097560976,-179.02439024390245,20,4
172,1.5166015625,0.2236328125,-0.31005859375,-181.95121951219514,36.463414634146346,-184.20731707317074,20,4
173,1.58740234375,0.2431640625,-0.345703125,-182.37804878048783,38.90243902439025,-189.75609756097563,20,4
174,1.64990234375,0.279296875,-0.3564453125,-187.19512195121953,44.268292682926834,-195.6707317073171,20,4
175,1.67431640625,0.3046875,-0.3017578125,-192.37804878048783,49.93902439024391,-202.19512195121953,20,4
176,1.68603515625,0.27880859375,-0.3095703125,-196.89024390243904,55.426829268292686,-207.6829268292683,20,4
177,1.67919921875,0.23291015625,-0.31298828125,-199.63414634146343,58.17073170731708,-213.2317073170732,20,4
178,1.505859375,0.2119140625,-0.3154296875,-201.09756097560978,63.84146341463415,-216.70731707317074,20,4
179,1.63232421875,0.1630859375,-0.255859375,-199.69512195121953,67.8048780487805,-222.01219512195124,20,4
180,1.67724609375,0.1923828125,-0.22021484375,-198.90243902439025,72.6829268292683,-227.50000000000003,20,4
181,1.6748046875,0.2109375,-0.126953125,-199.63414634146343,77.8658536585366,-232.01219512195124,20,4
182,1.708984375,0.21728515625,-0.03759765625,-198.2317073170732,81.52439024390245,-235.12195121951223,20,4
183,1.7041015625,0.17041015625,0.015625,-195.5487804878049,83.71951219512196,-238.35365853658539,20,4
184,1.69189453125,0.14013671875,0.021484375,-188.109756097561,83.90243902439025,-240.4878048780488,20,4
185,1.65869140625,0.1064453125,0.0478515625,-177.8048780487805,83.10975609756099,-242.25609756097563,20,4
186,1.6962890625,0.1650390625,0.03173828125,-168.2926829268293,83.78048780487805,-245.06097560975613,20,4
187,1.6923828125,0.21142578125,0.03369140625,-161.21951219512198,83.71951219512196,-246.76829268292684,20,4
188,1.67333984375,0.2236328125,-0.125,-159.08536585365854,84.87804878048782,-247.50000000000003,20,4
189,1.60302734375,0.21337890625,0.0234375,-154.57317073170734,86.64634146341464,-248.65853658536588,20,4
190,1.578125,0.25146484375,0.07763671875,-145.2439024390244,84.87804878048782,-247.07317073170734,20,4
191,1.51025390625,0.2236328125,0.1201171875,-135.6707317073171,81.89024390243902,-245.00000000000003,20,4
192,1.51611328125,0.2568359375,0.1064453125,-139.87804878048783,79.39024390243902,-244.87804878048783,20,4
193,1.48193359375,0.27001953125,0.1064453125,-114.26829268292684,75.3048780487805,-245.30487804878052,20,4
194,1.4755859375,0.30322265625,0.07275390625,-104.02439024390245,70.60975609756098,-246.28048780487808,20,4
195,1.49169921875,0.341796875,0.05615234375,-96.15853658536587,67.01219512195122,-248.35365853658539,20,4
196,1.49853515625,0.3525390625,0.0908203125,-92.98780487804879,64.75609756097562,-250.5487804878049,20,4
197,1.48193359375,0.3251953125,0.09521484375,-89.02439024390245,63.90243902439025,-252.68292682926833,20,4
198,1.474609375,0.318359375,0.125,-83.71951219512196,64.57317073170732,-256.219512195122,20,4
199,1.4326171875,0.27978515625,0.1435546875,-80.0,65.0,-255.7317073170732,20,4
200,1.36669921875,0.21923828125,0.14892578125,-77.19512195121952,65.79268292682927,-256.76829268292687,20,4
201,1.3212890625,0.2138671875,0.14306640625,-72.6219512195122,65.3658536585366,-258.2317073170732,20,4
202,1.28173828125,0.20068359375,0.09033203125,-70.42682926829269,66.34146341463415,-258.4756097560976,20,4
203,1.23193359375,0.14599609375,0.1103515625,-68.23170731707317,67.5,-257.9878048780488,20,4
204,1.15380859375,0.044921875,0.10986328125,-63.47560975609757,67.8658536585366,-255.7317073170732,20,4
205,1.09033203125,0.001953125,0.16650390625,-55.0609756097561,65.67073170731707,-252.8658536585366,20,4
206,1.01318359375,-0.0380859375,0.18701171875,-45.85365853658537,62.43902439024391,-249.08536585365854,20,4
207,0.951171875,-0.08984375,0.1728515625,-38.35365853658537,60.365853658536594,-245.6707317073171,20,4
208,0.89013671875,-0.14697265625,0.142578125,-36.03658536585366,59.085365853658544,-242.8658536585366,20,4
209,0.7958984375,-0.25,0.13232421875,-30.365853658536587,55.91463414634147,-238.2317073170732,20,4
210,0.77197265625,-0.32568359375,0.1328125,-22.80487804878049,52.37804878048781,-231.03658536585368,20,4
211,0.69287109375,-0.39599609375,0.10009765625,-18.414634146341466,50.426829268292686,-223.71951219512198,20,4
212,0.568359375,-0.4501953125,0.1650390625,-14.146341463414636,47.926829268292686,-214.93902439024393,20,4
213,0.4228515625,-0.5087890625,0.203125,-9.878048780487806,44.69512195121952,-204.39024390243904,20,4
214,0.31396484375,-0.5947265625,0.275390625,-5.975609756097562,42.25609756097561,-194.14634146341464,20,4
215,0.21923828125,-0.6357421875,0.2802734375,-0.48780487804878053,39.93902439024391,-183.2317073170732,20,4
216,0.1435546875,-0.65478515625,0.3076171875,1.707317073170732,39.81707317073171,-172.31707317073173,20,4
217,0.05810546875,-0.6845703125,0.31298828125,1.6463414634146343,39.146341463414636,-159.93902439024393,20,4
218,-0.0849609375,-0.78466796875,0.32080078125,2.0121951219512195,40.60975609756098,-146.28048780487805,20,4
219,-0.21826171875,-0.9033203125,0.3349609375,4.451219512195122,39.207317073170735,-132.9878048780488,20,4
220,-0.306640625,-1.015625,0.28564453125,8.597560975609756,36.768292682926834,-117.98780487804879,20,4
221,-0.359375,-1.03857421875,0.36767578125,11.951219512195124,36.03658536585366,-102.6829268292683,20,4
222,-0.423828125,-1.14208984375,0.3388671875,10.548780487804878,38.47560975609756,-84.14634146341464,20,4
223,-0.38916015625,-1.28466796875,0.3427734375,13.414634146341465,37.01219512195122,-63.84146341463415,20,4
224,-0.65478515625,-1.25390625,0.36962890625,22.743902439024392,32.37804878048781,-43.65853658536586,20,4
225,-0.61083984375,-1.41748046875,0.42529296875,30.914634146341466,29.939024390243905,-25.121951219512198,20,4
226,-0.55322265625,-1.45361328125,0.4091796875,33.90243902439025,30.914634146341466,-5.426829268292684,20,4
227,-0.50439453125,-1.48974609375,0.373046875,35.0609756097561,30.243902439024392,15.182926829268293,20,4
228,-0.71923828125,-1.5478515625,0.359375,37.19512195121951,28.59756097560976,34.024390243902445,20,4
229,-0.54736328125,-1.552734375,0.4404296875,36.951219512195124,46.707317073170735,52.804878048780495,20,4
230,-0.6767578125,-1.5810546875,0.41015625,35.1219512195122,35.1219512195122,73.78048780487805,20,4
231,-0.580078125,-1.7109375,0.498046875,36.646341463414636,36.15853658536586,96.03658536585367,20,4
232,-0.50048828125,-1.8193359375,0.330078125,31.402439024390247,33.41463414634146,118.78048780487806,20,4
233,-0.41259765625,-1.9248046875,0.3740234375,64.02439024390245,28.475609756097562,125.06097560975611,20,4
234,-0.27294921875,-1.98974609375,0.31640625,81.28048780487805,24.085365853658537,161.82926829268294,20,4
235,-0.18408203125,-2.05908203125,0.22021484375,95.0609756097561,22.25609756097561,184.51219512195124,20,4
236,-0.11474609375,-2.11328125,0.1533203125,104.75609756097562,21.03658536585366,205.7317073170732,20,4
237,-0.01513671875,-2.18212890625,0.07861328125,106.95121951219514,21.82926829268293,231.58536585365854,20,4
238,0.08642578125,-2.36669921875,0.04248046875,93.65853658536587,24.81707317073171,260.1219512195122,20,4
239,0.2431640625,-2.544921875,0.06982421875,113.41463414634147,26.89024390243903,289.45121951219517,20,4
240,0.46142578125,-2.67822265625,0.0244140625,122.6829268292683,26.219512195121954,321.0975609756098,20,4
241,0.65869140625,-2.873046875,-0.06591796875,135.91463414634148,20.243902439024392,353.9024390243903,20,4
242,0.83203125,-3.1513671875,-0.12841796875,140.97560975609758,12.01219512195122,386.5853658536586,20,4
243,1.080078125,-3.490234375,-0.318359375,181.95121951219514,1.3414634146341464,419.0853658536586,20,4
244,1.353515625,-3.74951171875,-0.48583984375,203.1707317073171,-7.560975609756098,452.01219512195127,20,4
245,1.7216796875,-3.9541015625,-0.6494140625,241.09756097560978,-18.10975609756098,469.39024390243907,20,4
246,2.18896484375,-4.09814453125,-0.74853515625,279.32926829268297,-25.54878048780488,518.1707317073171,20,4
247,2.7490234375,-4.35498046875,-0.65185546875,308.2317073170732,-41.707317073170735,554.8780487804878,20,4
248,3.47119140625,-4.59375,-1.197265625,325.6707317073171,-40.91463414634147,577.8048780487806,20,4
249,4.07177734375,-4.8515625,-1.6064453125,336.4634146341464,-33.170731707317074,621.5243902439025,20,4
250,4.63232421875,-5.2587890625,-1.79833984375,349.32926829268297,-24.26829268292683,647.3780487804879,20,4
251,5.33837890625,-5.38916015625,-2.05859375,367.7439024390244,-27.621951219512198,667.6219512195122,20,4
252,6.01953125,-5.64697265625,-2.404296875,392.74390243902445,-29.634146341463417,696.8902439024391,20,4
253,7.0126953125,-5.591796875,-3.064453125,456.5853658536586,-27.865853658536587,733.4146341463415,20,4
254,8.16357421875,-5.43701171875,-4.05126953125,527.9268292682927,-7.560975609756098,761.3414634146342,20,4
255,8.9931640625,-4.95166015625,-5.01953125,567.3780487804878,27.25609756097561,770.9756097560976,20,4
256,10.1240234375,-4.16357421875,-5.9306640625,582.439024390244,66.89024390243902,773.7804878048781,20,4
257,11.1103515625,-2.87744140625,-6.36669921875,651.7682926829269,75.91463414634147,773.8414634146342,20,4
258,10.71240234375,-1.97265625,-6.443359375,721.219512195122,2.439024390243903,760.1219512195123,20,4
259,10.5224609375,-1.53857421875,-6.28173828125,837.8048780487806,-73.65853658536587,736.8902439024391,20,4
260,10.13525390625,-1.06982421875,-6.6826171875,912.5000000000001,-168.96341463414635,716.6463414634147,20,4
261,8.91064453125,-1.501953125,-6.99072265625,1027.439024390244,-252.31707317073173,641.3414634146342,20,4
262,7.638671875,-1.65771484375,-6.9765625,1132.2560975609756,-381.82926829268297,571.7682926829269,20,4
263,6.18701171875,-2.31689453125,-7.314453125,1318.1707317073171,-576.3414634146342,430.4878048780488,20,4
264,5.18798828125,-2.3505859375,15.90869140625,1412.8658536585367,-1169.329268292683,713.2926829268293,20,4
265,-7.53759765625,-15.31201171875,-16.0,1618.4756097560978,-1987.9268292682927,-387.7439024390244,20,4
266,15.99951171875,15.99951171875,-16.0,407.01219512195127,214.57317073170734,975.7317073170733,20,4
267,-4.60595703125,-6.125,2.8212890625,402.25609756097566,-304.0853658536586,-306.4634146341464,20,4
268,7.74169921875,0.9208984375,0.2177734375,1532.9268292682927,-596.219512195122,-305.5487804878049,20,4
269,4.0390625,3.4951171875,-15.029296875,1613.4756097560978,-118.65853658536587,-437.37804878048786,20,4
270,5.88720703125,2.25390625,-0.78466796875,756.8902439024391,-56.951219512195124,-575.9146341463415,20,4
271,3.49462890625,2.6171875,1.89501953125,768.3536585365854,-18.414634146341466,-480.9146341463415,20,4
272,3.01953125,-2.56396484375,1.6005859375,747.2560975609757,47.6829268292683,-541.9512195121952,20,4
273,5.22900390625,-2.3232421875,0.90673828125,621.0365853658537,94.45121951219512,-585.1829268292684,20,4
274,4.61279296875,-3.05224609375,-0.7451171875,541.7073170731708,64.20731707317074,-618.1707317073171,20,4
275,4.34130859375,-2.865234375,-0.53466796875,492.80487804878055,71.46341463414635,-642.1951219512196,20,4
276,3.9931640625,-3.31005859375,-0.71826171875,446.82926829268297,35.0609756097561,-703.2926829268293,20,4
277,3.1474609375,-3.55322265625,-1.0234375,330.7317073170732,63.10975609756098,-711.4024390243903,20,4
278,3.15869140625,-2.68798828125,-1.1396484375,252.9268292682927,112.92682926829269,-716.5853658536586,20,4
279,3.31005859375,-2.060546875,-1.74853515625,177.31707317073173,176.21951219512198,-703.2317073170732,20,4
280,3.74462890625,-1.9423828125,-1.759765625,94.08536585365854,207.9878048780488,-690.7317073170732,20,4
281,3.63720703125,-2.35009765625,-1.587890625,44.63414634146342,232.50000000000003,-673.8414634146342,20,4
282,3.171875,-2.7001953125,-1.17431640625,-3.8414634146341466,253.1707317073171,-653.4756097560976,20,4
283,2.98046875,-2.74853515625,-1.35693359375,-31.158536585365855,276.4024390243903,-639.6341463414635,20,4
284,2.8798828125,-2.31103515625,-1.39111328125,-57.25609756097561,292.13414634146346,-598.719512195122,20,4
285,2.71337890625,-2.28125,-1.62548828125,-63.10975609756098,298.2926829268293,-567.1951219512196,20,4
286,2.41845703125,-2.2509765625,-1.701171875,-93.35365853658537,299.81707317073176,-534.8170731707318,20,4
287,1.89794921875,-2.177734375,-1.60009765625,-105.42682926829269,297.8048780487805,-504.75609756097566,20,4
288,1.4912109375,-2.07958984375,-1.259765625,-122.7439024390244,308.6585365853659,-475.18292682926835,20,4
289,1.17822265625,-1.8974609375,-1.09716796875,-140.2439024390244,319.93902439024396,-450.4878048780488,20,4
290,1.10107421875,-1.486328125,-1.06689453125,-151.64634146341464,333.109756097561,-425.6707317073171,20,4
291,1.00390625,-1.33349609375,-1.0751953125,-166.52439024390245,342.7439024390244,-398.4756097560976,20,4
292,0.85595703125,-1.2998046875,-1.279296875,-179.51219512195124,349.57317073170736,-381.219512195122,20,4
293,1.0546875,-1.2978515625,-1.43310546875,-168.47560975609758,343.5975609756098,-374.0853658536586,20,4
294,0.9716796875,-0.98095703125,-1.59814453125,-160.97560975609758,325.2439024390244,-345.9756097560976,20,4
295,1.01904296875,-0.92724609375,-1.7373046875,-155.7926829268293,315.5487804878049,-325.0609756097561,20,4
296,0.8818359375,-0.8916015625,-1.6748046875,-166.21951219512198,315.609756097561,-306.6463414634147,20,4
297,0.5546875,-0.88623046875,-1.55908203125,-184.93902439024393,313.2926829268293,-284.45121951219517,20,4
298,0.3310546875,-0.84814453125,-1.5009765625,-193.1707317073171,310.7926829268293,-279.9390243902439,20,4
299,0.16796875,-0.77734375,-1.4912109375,-196.40243902439025,306.0365853658537,-243.41463414634148,20,4
300,0.1240234375,-0.74072265625,-1.46240234375,-197.25609756097563,311.2804878048781,-225.6707317073171,20,4
301,-0.11376953125,-0.6396484375,-1.384765625,-187.43902439024393,293.6585365853659,-213.65853658536588,20,4
302,-0.24267578125,-0.67041015625,-1.2109375,-200.4878048780488,269.57317073170736,-203.71951219512198,20,4
303,-0.087890625,-0.35400390625,-1.26708984375,-198.109756097561,260.8536585365854,-195.97560975609758,20,4
304,0.03515625,-0.23193359375,-1.205078125,-200.2439024390244,264.51219512195127,-184.32926829268294,20,4
305,-0.11474609375,-0.27783203125,-1.13525390625,-204.39024390243904,241.70731707317074,-167.6829268292683,20,4
306,-0.337890625,-0.32861328125,-1.0322265625,-216.46341463414635,248.84146341463418,-157.6219512195122,20,4
307,-0.68505859375,-0.38134765625,-0.97412109375,-198.41463414634148,209.63414634146343,-145.91463414634148,20,4
308,-0.74365234375,-0.43505859375,-0.7744140625,-202.31707317073173,208.78048780487808,-155.1829268292683,20,4
309,-0.7744140625,-0.275390625,-0.98828125,-192.9878048780488,199.51219512195124,-127.7439024390244,20,4
310,-0.7841796875,-0.18408203125,-0.771484375,-185.00000000000003,202.50000000000003,-122.92682926829269,20,4
311,-0.72998046875,-0.1318359375,-0.7314453125,-177.31707317073173,180.4878048780488,-118.78048780487806,20,4
312,-0.72314453125,-0.10400390625,-0.68994140625,-169.63414634146343,171.95121951219514,-113.65853658536587,20,4
313,-0.8134765625,-0.1513671875,-0.6728515625,-168.90243902439025,165.0609756097561,-107.92682926829269,20,4
314,-0.9228515625,-0.18603515625,-0.69677734375,-163.53658536585368,161.28048780487805,-99.02439024390245,20,4
315,-1.037109375,-0.2041015625,-0.64892578125,-157.8048780487805,171.34146341463415,-92.19512195121952,20,4
316,-1.11962890625,-0.1416015625,-0.71337890625,-152.01219512195124,149.32926829268294,-83.65853658536587,20,4
317,-1.14697265625,-0.04052734375,-0.671875,-139.32926829268294,146.03658536585368,-75.85365853658537,20,4
318,-1.07421875,0.046875,-0.58544921875,-135.0609756097561,143.0487804878049,-69.51219512195122,20,4
319,-1.02734375,0.1044921875,-0.6123046875,-130.609756097561,137.5,-65.2439024390244,20,4
320,-1.02490234375,0.11328125,-0.57861328125,-129.69512195121953,134.08536585365854,-60.243902439024396,20,4
321,-1.1025390625,0.0869140625,-0.546875,-128.90243902439025,139.75609756097563,-55.67073170731708,20,4
322,-1.20458984375,0.06298828125,-0.55712890625,-122.50000000000001,112.50000000000001,-53.84146341463415,20,4
323,-1.212890625,0.02685546875,-0.53466796875,-118.10975609756099,102.7439024390244,-52.804878048780495,20,4
324,-1.16943359375,0.03759765625,-0.50439453125,-114.14634146341464,94.20731707317074,-50.1829268292683,20,4
325,-1.1162109375,0.07958984375,-0.4794921875,-107.50000000000001,86.21951219512196,-44.268292682926834,20,4
326,-1.11669921875,0.080078125,-0.43310546875,-101.09756097560977,93.53658536585367,-41.09756097560976,20,4
327,-1.17236328125,0.0673828125,-0.5068359375,-103.59756097560977,70.2439024390244,-38.47560975609756,20,4
328,-1.1982421875,0.05712890625,-0.6162109375,-99.26829268292684,62.6829268292683,-36.09756097560976,20,4
329,-1.22216796875,0.02880859375,-0.55615234375,-94.69512195121952,54.268292682926834,-32.25609756097561,20,4
330,-1.29052734375,-0.0380859375,-0.47021484375,-89.02439024390245,48.53658536585366,-27.80487804878049,20,4
331,-1.3408203125,-0.115234375,-0.53271484375,-92.7439024390244,40.0,-23.658536585365855,20,4
332,-1.2919921875,-0.1240234375,-0.5869140625,-84.14634146341464,31.707317073170735,-18.04878048780488,20,4
333,-1.27978515625,-0.15234375,-0.6123046875,-74.69512195121952,18.963414634146343,-11.463414634146343,20,4
334,-1.27001953125,-0.16552734375,-0.58740234375,-63.29268292682927,9.573170731707318,-3.9024390243902443,20,4
335,-1.30126953125,-0.2001953125,-0.5390625,-54.32926829268293,2.8658536585365857,3.231707317073171,20,4
336,-1.34375,-0.181640625,-0.4931640625,-47.01219512195122,-3.2926829268292686,11.463414634146343,20,4
337,-1.36572265625,-0.1513671875,-0.4951171875,-39.51219512195122,-9.02439024390244,20.182926829268293,20,4
338,-1.36279296875,-0.1279296875,-0.44775390625,-32.6219512195122,-15.30487804878049,27.195121951219516,20,4
339,-1.3427734375,-0.0859375,-0.43310546875,-27.25609756097561,-20.0,33.170731707317074,20,4
340,-1.29248046875,-0.04248046875,-0.39892578125,-23.10975609756098,-24.02439024390244,38.35365853658537,20,4
341,-1.26025390625,-0.00830078125,-0.3955078125,-20.121951219512198,-28.414634146341466,42.804878048780495,20,4
342,-1.27783203125,0.015625,-0.416015625,-17.134146341463417,-34.51219512195122,46.03658536585366,20,4
343,-1.369140625,0.0400390625,-0.48779296875,-11.76829268292683,-40.60975609756098,48.71951219512196,20,4
344,-1.21875,0.08935546875,-0.45654296875,-4.634146341463415,-47.6829268292683,51.524390243902445,20,4
345,-1.20068359375,0.1171875,-0.408203125,1.707317073170732,-53.47560975609757,53.04878048780488,20,4
346,-1.189453125,0.13525390625,-0.251953125,5.914634146341464,-59.39024390243903,53.41463414634147,20,4
347,-1.1640625,0.158203125,-0.33740234375,8.78048780487805,-63.59756097560976,52.987804878048784,20,4
348,-1.13134765625,0.17626953125,-0.31201171875,10.365853658536587,-68.04878048780489,51.89024390243903,20,4
349,-1.09765625,0.19287109375,-0.28857421875,10.548780487804878,-72.98780487804879,50.1829268292683,20,4
350,-1.07373046875,0.19921875,-0.2900390625,10.182926829268293,-76.89024390243902,49.69512195121952,20,4
351,-1.08203125,0.15869140625,-0.28173828125,10.365853658536587,-81.15853658536587,49.57317073170732,20,4
352,-1.10205078125,0.24609375,-0.283203125,11.829268292682928,-84.57317073170732,49.63414634146342,20,4
353,-1.0859375,0.11376953125,-0.2705078125,13.536585365853659,-88.65853658536587,50.00000000000001,20,4
354,-1.0830078125,0.123046875,-0.24609375,15.182926829268293,-91.34146341463415,51.768292682926834,20,4
355,-1.0537109375,0.1298828125,-0.2451171875,16.585365853658537,-95.3658536585366,54.63414634146342,20,4
356,-1.04345703125,0.13427734375,-0.2255859375,20.121951219512198,-99.57317073170732,57.13414634146342,20,4
357,-1.0390625,0.1259765625,-0.201171875,24.573170731707318,-103.90243902439025,59.32926829268293,20,4
358,-1.0234375,0.1455078125,-0.16162109375,28.231707317073173,-107.25609756097562,61.707317073170735,20,4
359,-1.005859375,0.17333984375,-0.1328125,28.719512195121954,-107.56097560975611,63.90243902439025,20,4
360,-0.97314453125,0.21875,-0.10009765625,27.073170731707318,-107.92682926829269,66.21951219512195,20,4
361,-0.939453125,0.2529296875,-0.091796875,25.975609756097562,-109.75609756097562,68.29268292682927,20,4
362,-0.90478515625,0.275390625,-0.08642578125,25.853658536585368,-113.53658536585367,69.39024390243902,20,4
363,-0.8994140625,0.29541015625,-0.07763671875,26.52439024390244,-116.89024390243904,69.75609756097562,20,4
364,-0.86083984375,0.31689453125,-0.01806640625,27.621951219512198,-121.64634146341464,69.93902439024392,20,4
365,-0.8125,0.3291015625,0.00390625,29.39024390243903,-125.91463414634147,69.08536585365854,20,4
366,-0.78857421875,0.32421875,0.05029296875,30.54878048780488,-129.08536585365854,68.41463414634147,20,4
367,-0.77197265625,0.33349609375,0.076171875,33.23170731707317,-134.14634146341464,68.35365853658537,20,4
368,-0.78515625,0.32275390625,0.09765625,35.79268292682927,-137.37804878048783,67.43902439024392,20,4
369,-0.7724609375,0.3125,0.1357421875,37.37804878048781,-139.20731707317074,66.58536585365854,20,4
370,-0.76171875,0.33056640625,0.1630859375,38.23170731707317,-140.85365853658539,65.85365853658537,20,4
371,-0.75732421875,0.337890625,0.18701171875,37.37804878048781,-141.21951219512195,64.45121951219512,20,4
372,-0.74951171875,0.33740234375,0.19384765625,38.29268292682927,-142.9268292682927,63.84146341463415,20,4
373,-0.7265625,0.32470703125,0.1826171875,39.63414634146342,-143.59756097560978,46.82926829268293,20,4
374,-0.70947265625,0.3349609375,0.18994140625,43.35365853658537,-146.52439024390245,62.560975609756106,20,4
375,-0.669921875,0.35205078125,0.17919921875,45.1219512195122,-148.84146341463415,62.01219512195122,20,4
376,-0.64404296875,0.38623046875,0.1875,44.63414634146342,-149.26829268292684,61.21951219512196,20,4
377,-0.619140625,0.39111328125,0.2138671875,40.91463414634147,-148.71951219512195,62.01219512195122,20,4
378,-0.61279296875,0.25341796875,0.2568359375,38.53658536585366,-148.1707317073171,62.987804878048784,20,4
379,-0.6064453125,0.37109375,0.294921875,39.390243902439025,-146.95121951219514,64.20731707317074,20,4
380,-0.5703125,0.3623046875,0.3232421875,42.37804878048781,-147.7439024390244,65.85365853658537,20,4
381,-0.53564453125,0.36767578125,0.32275390625,47.6219512195122,-149.39024390243904,67.5,20,4
382,-0.48388671875,0.3984375,0.3212890625,54.268292682926834,-151.64634146341464,67.8048780487805,20,4
383,-0.44873046875,0.4140625,0.3515625,57.31707317073171,-149.87804878048783,67.37804878048782,20,4
384,-0.38671875,0.443359375,0.33544921875,54.87804878048781,-146.46341463414635,66.40243902439025,20,4
385,-0.3447265625,0.5146484375,0.32958984375,50.85365853658537,-143.90243902439025,63.04878048780488,20,4
386,-0.3212890625,0.54638671875,0.34765625,47.25609756097561,-142.5,60.243902439024396,20,4
387,-0.30712890625,0.57275390625,0.3876953125,45.426829268292686,-140.91463414634148,57.50000000000001,20,4
388,-0.287109375,0.580078125,0.39990234375,43.41463414634147,-139.63414634146343,55.73170731707317,20,4
389,-0.283203125,0.5869140625,0.3896484375,44.08536585365854,-140.5487804878049,52.987804878048784,20,4
390,-0.26904296875,0.5654296875,0.42041015625,45.85365853658537,-140.4268292682927,50.243902439024396,20,4
391,-0.234375,0.57958984375,0.44482421875,49.51219512195122,-141.28048780487805,48.78048780487805,20,4
392,-0.2255859375,0.5751953125,0.44580078125,52.926829268292686,-141.21951219512195,47.13414634146342,20,4
393,-0.216796875,0.5791015625,0.470703125,53.35365853658537,-138.53658536585368,46.15853658536586,20,4
394,-0.17626953125,0.5927734375,0.48974609375,52.6829268292683,-135.97560975609758,45.97560975609756,20,4
395,-0.1640625,0.60498046875,0.501953125,52.13414634146342,-133.71951219512195,45.1219512195122,20,4
396,-0.162109375,0.6240234375,0.515625,54.024390243902445,-132.9268292682927,44.51219512195122,20,4
397,-0.17626953125,0.63330078125,0.52099609375,57.43902439024391,-134.26829268292684,44.32926829268293,20,4
398,-0.19580078125,0.64111328125,0.5302734375,60.60975609756098,-134.26829268292684,42.926829268292686,20,4
399,-0.1591796875,0.6953125,0.51708984375,61.768292682926834,-133.47560975609758,40.60975609756098,20,4
400,-0.126953125,0.7373046875,0.49462890625,58.963414634146346,-132.9878048780488,39.451219512195124,20,4
401,-0.0966796875,0.77587890625,0.49072265625,55.487804878048784,-134.39024390243904,38.65853658536586,20,4
402,-0.11572265625,0.765625,0.50537109375,50.426829268292686,-133.71951219512195,37.80487804878049,20,4
403,-0.1298828125,0.75927734375,0.5576171875,46.03658536585366,-132.37804878048783,36.58536585365854,20,4
404,-0.13916015625,0.76220703125,0.634765625,42.86585365853659,-129.8780487804878,35.0609756097561,20,4
405,-0.12939453125,0.7734375,0.693359375,41.890243902439025,-126.95121951219514,33.29268292682927,20,4
406,-0.1025390625,0.7861328125,0.732421875,42.43902439024391,-124.63414634146342,31.34146341463415,20,4
407,-0.08251953125,0.79833984375,0.72607421875,44.146341463414636,-122.56097560975611,29.573170731707318,20,4
408,-0.07275390625,0.8203125,0.654296875,45.1219512195122,-121.58536585365854,28.292682926829272,20,4
409,-0.0791015625,0.796875,0.626953125,43.65853658536586,-120.1829268292683,26.58536585365854,20,4
410,-0.05615234375,0.8486328125,0.6240234375,43.90243902439025,-121.09756097560977,24.512195121951223,20,4
411,-0.0830078125,0.86767578125,0.59912109375,44.69512195121952,-122.98780487804879,23.719512195121954,20,4
412,-0.103515625,0.87353515625,0.63671875,43.84146341463415,-123.53658536585367,21.219512195121954,20,4
413,-0.111328125,0.87451171875,0.626953125,43.35365853658537,-124.26829268292684,19.512195121951223,20,4
414,-0.1123046875,0.90966796875,0.63671875,41.524390243902445,-125.60975609756099,17.5,20,4
415,-0.1181640625,0.92724609375,0.62744140625,38.23170731707317,-126.03658536585367,15.853658536585368,20,4
416,-0.11767578125,0.9013671875,0.6103515625,32.5,-124.26829268292684,13.231707317073171,20,4
417,-0.06494140625,0.8779296875,0.68505859375,26.646341463414636,-120.79268292682927,10.731707317073171,20,4
418,-0.025390625,0.83935546875,0.74169921875,23.04878048780488,-116.95121951219514,8.963414634146343,20,4
419,-0.01025390625,0.8388671875,0.75244140625,23.84146341463415,-114.14634146341464,6.890243902439025,20,4
420,-0.025390625,0.80712890625,0.736328125,26.58536585365854,-111.95121951219514,5.426829268292684,20,4
421,-0.03515625,0.79541015625,0.685546875,29.939024390243905,-111.76829268292684,5.365853658536586,20,4
422,-0.03369140625,0.7919921875,0.6103515625,32.01219512195122,-112.8048780487805,5.365853658536586,20,4
423,-0.0361328125,0.81494140625,0.56201171875,35.1219512195122,-114.08536585365854,6.341463414634147,20,4
424,-0.03857421875,0.8232421875,0.53076171875,38.23170731707317,-115.54878048780489,7.926829268292684,20,4
425,-0.04150390625,0.81103515625,0.50244140625,39.51219512195122,-116.40243902439025,9.695121951219512,20,4
426,-0.03173828125,0.78466796875,0.51416015625,39.32926829268293,-117.43902439024392,11.158536585365855,20,4
427,-0.0068359375,0.7763671875,0.54248046875,37.987804878048784,-117.56097560975611,11.707317073170733,20,4
428,0.00732421875,0.74609375,0.5966796875,32.37804878048781,-114.93902439024392,11.76829268292683,20,4
429,0.041015625,0.75,0.599609375,27.439024390243905,-113.41463414634147,11.76829268292683,20,4
430,0.04296875,0.72705078125,0.59423828125,20.426829268292686,-111.95121951219514,9.817073170731708,20,4
431,0.04736328125,0.74853515625,0.603515625,19.390243902439025,-112.56097560975611,9.146341463414634,20,4
432,0.04345703125,0.69970703125,0.62548828125,20.48780487804878,-113.10975609756099,12.01219512195122,20,4
433,0.00244140625,0.650390625,0.638671875,21.52439024390244,-112.8658536585366,17.134146341463417,20,4
434,-0.03271484375,0.63671875,0.61767578125,23.719512195121954,-113.78048780487806,18.963414634146343,20,4
435,-0.009765625,0.66943359375,0.59130859375,27.195121951219516,-115.1829268292683,20.0609756097561,20,4
436,0.044921875,0.65087890625,0.5703125,28.353658536585368,-117.37804878048782,26.09756097560976,20,4
437,0.0498046875,0.73828125,0.5400390625,25.731707317073173,-118.10975609756099,30.853658536585368,20,4
438,0.03076171875,0.61376953125,0.5556640625,18.902439024390244,-115.73170731707319,32.6219512195122,20,4
439,0.04638671875,0.50439453125,0.6025390625,9.207317073170733,-111.64634146341464,36.28048780487805,20,4
440,0.05712890625,0.67626953125,0.50048828125,-2.6219512195121952,-109.02439024390245,41.15853658536586,20,4
441,0.02734375,0.732421875,0.65380859375,-13.231707317073171,-100.54878048780489,46.40243902439025,20,4
442,-0.125,0.7763671875,0.69189453125,-27.195121951219516,-89.63414634146342,49.87804878048781,20,4
443,0.01904296875,0.85693359375,0.7392578125,-37.13414634146342,-81.76829268292684,56.646341463414636,20,4
444,0.064453125,0.96875,0.74169921875,-41.951219512195124,-77.19512195121952,59.451219512195124,20,4
445,0.0771484375,1.0654296875,0.7119140625,-38.04878048780488,-78.35365853658537,59.268292682926834,20,4
446,0.1083984375,1.111328125,0.705078125,-34.207317073170735,-81.82926829268294,54.146341463414636,20,4
447,0.021484375,1.0751953125,0.6455078125,-27.682926829268297,-88.35365853658537,54.75609756097561,20,4
448,-0.05859375,0.98486328125,0.63671875,-30.243902439024392,-95.97560975609757,49.39024390243903,20,4
449,-0.05517578125,1.02001953125,0.642578125,5.853658536585367,-107.25609756097562,36.951219512195124,20,4
450,-0.01123046875,1.123046875,0.6572265625,24.573170731707318,-113.53658536585367,28.353658536585368,20,4
451,0.06982421875,1.29736328125,0.65869140625,36.34146341463415,-119.20731707317074,20.121951219512198,20,4
452,0.10400390625,1.39013671875,0.7490234375,38.10975609756098,-120.3048780487805,12.80487804878049,20,4
453,0.072265625,1.39306640625,0.61474609375,32.37804878048781,-118.10975609756099,7.621951219512196,20,4
454,0.044921875,1.34716796875,0.63720703125,25.365853658536587,-112.92682926829269,3.231707317073171,20,4
455,0.0283203125,1.26904296875,0.6435546875,18.963414634146343,-105.1829268292683,-1.5853658536585367,20,4
456,0.03271484375,1.36962890625,0.5908203125,15.853658536585368,-100.1829268292683,-7.378048780487806,20,4
457,0.04638671875,1.205078125,0.544921875,13.536585365853659,-95.48780487804879,-14.085365853658537,20,4
458,0.0322265625,1.126953125,0.51171875,9.329268292682928,-90.1219512195122,-17.31707317073171,20,4
459,0.01513671875,1.05322265625,0.46728515625,3.963414634146342,-83.35365853658537,-19.939024390243905,20,4
460,0.02294921875,1.029296875,0.43212890625,-0.426829268292683,-78.41463414634147,-23.04878048780488,20,4
461,0.03125,1.03662109375,0.4208984375,-2.7439024390243905,-74.45121951219512,-27.926829268292686,20,4
462,0.08056640625,1.05322265625,0.384765625,-3.9024390243902443,-74.26829268292684,-30.792682926829272,20,4
463,0.09716796875,1.01904296875,0.353515625,-4.2682926829268295,-77.25609756097562,-31.09756097560976,20,4
464,0.0,1.00146484375,0.33935546875,1.1585365853658538,-81.64634146341464,-32.07317073170732,20,4
465,0.1357421875,0.9560546875,0.2587890625,4.085365853658537,-84.45121951219512,-32.13414634146342,20,4
466,0.14501953125,0.89208984375,0.19677734375,7.926829268292684,-90.3658536585366,-29.75609756097561,20,4
467,0.1455078125,0.85107421875,0.17529296875,14.207317073170733,-97.13414634146342,-29.08536585365854,20,4
468,0.169921875,0.830078125,0.1962890625,18.658536585365855,-99.08536585365854,-28.414634146341466,20,4
469,0.18603515625,0.7587890625,0.1259765625,13.78048780487805,-101.03658536585367,-23.84146341463415,20,4
470,0.1787109375,0.6923828125,0.115234375,6.646341463414635,-98.53658536585367,-17.25609756097561,20,4
471,0.15869140625,0.578125,0.03955078125,-5.609756097560976,-98.23170731707317,-7.073170731707318,20,4
472,0.04638671875,0.49267578125,0.060546875,-2.378048780487805,-104.20731707317074,1.9512195121951221,20,4
473,0.0380859375,0.46240234375,0.0361328125,5.121951219512195,-112.01219512195122,6.829268292682928,20,4
474,0.021484375,0.4150390625,0.1142578125,22.5609756097561,-119.93902439024392,18.231707317073173,20,4
475,0.0126953125,0.29052734375,0.142578125,32.6829268292683,-125.54878048780489,17.073170731707318,20,4
476,-0.00830078125,0.15625,0.0810546875,35.487804878048784,-129.69512195121953,32.07317073170732,20,4
477,-0.0341796875,0.103515625,0.052734375,38.29268292682927,-128.2317073170732,58.59756097560976,20,4
478,0.01416015625,0.00244140625,-0.0302734375,32.37804878048781,-121.46341463414635,64.08536585365854,20,4
479,0.1533203125,0.2353515625,-0.07763671875,20.30487804878049,-111.82926829268294,71.09756097560977,20,4
480,0.12646484375,0.30908203125,-0.10693359375,-3.048780487804878,-97.43902439024392,79.02439024390245,20,4
481,0.3056640625,0.31103515625,-0.0791015625,-31.158536585365855,-84.02439024390245,87.7439024390244,20,4
482,0.31689453125,0.29052734375,-0.07763671875,-50.00000000000001,-75.3048780487805,95.79268292682927,20,4
483,0.33837890625,0.2626953125,-0.0283203125,-53.41463414634147,-75.97560975609757,104.02439024390245,20,4
484,0.3271484375,0.18359375,-0.01806640625,-48.53658536585366,-83.35365853658537,115.73170731707319,20,4
485,0.32080078125,0.037109375,-0.0361328125,-37.13414634146342,-78.71951219512196,129.51219512195124,20,4
486,0.25732421875,-0.01806640625,-0.05712890625,-28.658536585365855,-96.21951219512196,142.31707317073173,20,4
487,0.23681640625,-0.30712890625,-0.1142578125,-32.926829268292686,-109.26829268292684,150.7926829268293,20,4
488,0.37353515625,-0.27001953125,-0.12109375,-33.29268292682927,-85.60975609756099,155.5487804878049,20,4
489,0.37841796875,-0.1474609375,-0.0244140625,-46.03658536585366,-67.6219512195122,154.20731707317074,20,4
490,0.6298828125,0.05615234375,0.06005859375,-76.76829268292684,-41.15853658536586,153.47560975609758,20,4
491,0.76708984375,0.1787109375,0.060546875,-121.09756097560977,-8.170731707317074,155.0609756097561,20,4
492,0.85205078125,0.20263671875,-0.01708984375,-164.02439024390245,17.865853658536587,153.47560975609758,20,4
493,0.85791015625,0.19287109375,-0.0546875,-202.43902439024393,38.29268292682927,145.609756097561,20,4
494,0.89013671875,0.2236328125,-0.0849609375,-218.71951219512198,51.09756097560976,134.32926829268294,20,4
495,0.962890625,0.279296875,-0.1865234375,-255.4878048780488,47.86585365853659,129.14634146341464,20,4
496,0.9326171875,0.30224609375,-0.3095703125,-262.2560975609756,35.97560975609756,125.91463414634147,20,4
497,0.8818359375,0.31103515625,-0.32763671875,-245.91463414634148,29.695121951219516,128.109756097561,20,4
498,0.6904296875,0.11572265625,-0.166015625,-232.8658536585366,-8.475609756097562,137.07317073170734,20,4
499,0.55615234375,-0.0078125,0.03515625,-180.91463414634148,-16.402439024390244,147.4390243902439,20,4
