,Ax,Ay,Az,Gx,Gy,Gz,distance,shot_type
0,0.671875,-0.498046875,-0.25244140625,6.890243902439025,-1.4634146341463417,5.670731707317073,130,4
1,0.6806640625,-0.49169921875,-0.25830078125,7.926829268292684,-0.853658536585366,5.121951219512195,130,4
2,0.7158203125,-0.4736328125,-0.25439453125,6.341463414634147,1.0975609756097562,4.329268292682928,130,4
3,0.708984375,-0.47607421875,-0.37255859375,5.060975609756098,2.439024390243903,3.8414634146341466,130,4
4,0.6953125,-0.47412109375,-0.25048828125,6.402439024390245,1.9512195121951221,2.439024390243903,130,4
5,0.70556640625,-0.49072265625,-0.2392578125,8.292682926829269,0.3658536585365854,0.6097560975609757,130,4
6,0.7138671875,-0.37646484375,-0.2265625,10.0,-0.06097560975609757,0.0,130,4
7,0.69921875,-0.513671875,-0.20947265625,12.378048780487806,-2.682926829268293,-0.06097560975609757,130,4
8,0.6630859375,-0.54248046875,-0.22509765625,16.52439024390244,-4.939024390243903,-0.3658536585365854,130,4
9,0.68408203125,-0.54541015625,-0.25927734375,18.353658536585368,-5.731707317073171,-1.402439024390244,130,4
10,0.71337890625,-0.52197265625,-0.2744140625,31.03658536585366,-4.451219512195122,-1.6463414634146343,130,4
11,0.87451171875,-0.55224609375,-0.37744140625,7.8048780487804885,-2.682926829268293,1.2804878048780488,130,4
12,0.5673828125,-0.7333984375,-0.4755859375,2.8658536585365857,5.609756097560976,2.378048780487805,130,4
13,0.60498046875,-0.55712890625,-0.14501953125,6.890243902439025,3.1707317073170733,-5.548780487804878,130,4
14,0.78466796875,-0.384765625,-0.24755859375,13.597560975609758,-0.5487804878048781,-5.0,130,4
15,0.7392578125,-0.4326171875,-0.28466796875,12.378048780487806,1.7682926829268295,-5.182926829268293,130,4
16,0.70166015625,-0.50048828125,-0.2705078125,6.219512195121951,5.0,-5.731707317073171,130,4
17,0.6796875,-0.47900390625,-0.22998046875,11.341463414634147,-0.853658536585366,-5.426829268292684,130,4
18,0.6728515625,-0.498046875,-0.24609375,18.170731707317074,-4.695121951219512,-4.51219512195122,130,4
19,0.66162109375,-0.5283203125,-0.2919921875,18.902439024390244,-4.207317073170732,-3.353658536585366,130,4
20,0.67138671875,-0.5234375,-0.29736328125,17.98780487804878,-4.390243902439025,-3.048780487804878,130,4
21,0.70947265625,-0.50927734375,-0.279296875,17.378048780487806,-3.1707317073170733,-2.987804878048781,130,4
22,0.72900390625,-0.5009765625,-0.283203125,15.79268292682927,-0.6707317073170732,-3.1707317073170733,130,4
23,0.69873046875,-0.50927734375,-0.28173828125,14.329268292682928,1.1585365853658538,-4.024390243902439,130,4
24,0.69384765625,-0.4921875,-0.2666015625,14.146341463414636,2.0121951219512195,-4.817073170731708,130,4
25,0.68408203125,-0.47509765625,-0.25634765625,13.109756097560977,1.6463414634146343,-4.51219512195122,130,4
26,0.65625,-0.48291015625,-0.28125,12.560975609756099,-0.6707317073170732,-3.4756097560975614,130,4
27,0.65673828125,-0.517578125,-0.32275390625,12.621951219512196,-3.414634146341464,-2.3170731707317076,130,4
28,0.64794921875,-0.54638671875,-0.353515625,13.231707317073171,-7.682926829268293,-15.426829268292684,130,4
29,0.62255859375,-0.61279296875,-0.39697265625,13.414634146341465,-11.890243902439025,4.024390243902439,130,4
30,0.60693359375,-0.65087890625,-0.423828125,8.292682926829269,-10.426829268292684,5.731707317073171,130,4
31,0.61181640625,-0.62890625,-0.42041015625,2.987804878048781,-7.134146341463415,7.25609756097561,130,4
32,0.64208984375,-0.587890625,-0.400390625,0.0,-5.0,7.317073170731708,130,4
33,0.65478515625,-0.59228515625,-0.392578125,-2.439024390243903,-3.4756097560975614,8.231707317073171,130,4
34,0.61328125,-0.62060546875,-0.39697265625,-4.451219512195122,-1.8902439024390245,9.329268292682928,130,4
35,0.57470703125,-0.63720703125,-0.36181640625,-4.573170731707317,-2.8658536585365857,10.426829268292684,130,4
36,0.5615234375,-0.62890625,-0.32568359375,-2.1951219512195124,-4.75609756097561,11.28048780487805,130,4
37,0.57275390625,-0.5771484375,-0.35693359375,-0.6097560975609757,-6.402439024390245,10.975609756097562,130,4
38,0.59423828125,-0.54296875,-0.361328125,0.1829268292682927,-6.341463414634147,9.756097560975611,130,4
39,0.6611328125,-0.619140625,-0.34423828125,2.1951219512195124,-7.743902439024391,7.926829268292684,130,4
40,0.693359375,-0.45751953125,-0.3203125,3.4756097560975614,-7.621951219512196,6.707317073170732,130,4
41,0.71630859375,-0.42041015625,-0.3134765625,2.804878048780488,-6.829268292682928,4.878048780487806,130,4
42,0.7421875,-0.38037109375,-0.28173828125,2.439024390243903,-4.390243902439025,3.414634146341464,130,4
43,0.7333984375,-0.39111328125,-0.265625,3.536585365853659,-4.024390243902439,2.1951219512195124,130,4
44,0.720703125,-0.40576171875,-0.2509765625,5.2439024390243905,-2.682926829268293,0.7317073170731708,130,4
45,0.72802734375,-0.3974609375,-0.2314453125,6.52439024390244,-2.1341463414634148,-0.9146341463414634,130,4
46,0.73388671875,-0.392578125,-0.203125,9.146341463414634,-1.6463414634146343,-2.682926829268293,130,4
47,0.73046875,-0.5,-0.18798828125,11.036585365853659,-0.9756097560975611,-4.695121951219512,130,4
48,0.78173828125,-0.32763671875,-0.21484375,10.975609756097562,-0.24390243902439027,-5.487804878048781,130,4
49,0.75830078125,-0.359375,-0.24072265625,9.634146341463415,1.6463414634146343,-4.451219512195122,130,4
50,0.7158203125,-0.42919921875,-0.2744140625,5.0,5.3048780487804885,-4.390243902439025,130,4
51,0.69970703125,-0.43212890625,-0.27392578125,1.6463414634146343,8.292682926829269,-4.085365853658537,130,4
52,0.701171875,-0.42333984375,-0.2666015625,-1.1585365853658538,11.463414634146343,-4.451219512195122,130,4
53,0.71240234375,-0.4130859375,-0.2724609375,-3.1707317073170733,12.256097560975611,-4.451219512195122,130,4
54,0.69775390625,-0.43017578125,-0.27880859375,-3.1097560975609757,10.914634146341465,-5.0,130,4
55,0.6982421875,-0.45166015625,-0.27001953125,-1.5853658536585367,9.695121951219512,-3.780487804878049,130,4
56,0.69482421875,-0.4990234375,-0.28515625,1.1585365853658538,8.475609756097562,-3.2926829268292686,130,4
57,0.66796875,-0.57080078125,-0.3388671875,2.7439024390243905,7.073170731707318,-1.3414634146341464,130,4
58,0.7373046875,-0.62841796875,-0.38037109375,3.780487804878049,5.914634146341464,0.7317073170731708,130,4
59,0.62158203125,-0.6494140625,-0.39404296875,3.536585365853659,6.707317073170732,2.682926829268293,130,4
60,0.607421875,-0.658203125,-0.40380859375,4.207317073170732,7.134146341463415,3.414634146341464,130,4
61,0.61279296875,-0.6650390625,-0.4287109375,5.2439024390243905,5.731707317073171,4.085365853658537,130,4
62,0.58056640625,-0.681640625,-0.4306640625,6.951219512195123,4.390243902439025,3.353658536585366,130,4
63,0.58984375,-0.642578125,-0.40185546875,7.073170731707318,4.390243902439025,2.1341463414634148,130,4
64,0.62255859375,-0.55419921875,-0.37158203125,8.048780487804878,3.353658536585366,0.1829268292682927,130,4
65,0.65380859375,-0.5244140625,-0.35888671875,9.451219512195122,2.1341463414634148,-0.48780487804878053,130,4
66,0.63916015625,-0.5244140625,-0.3291015625,9.51219512195122,2.073170731707317,-1.3414634146341464,130,4
67,0.6455078125,-0.625,-0.32080078125,11.463414634146343,1.4634146341463417,-2.5609756097560976,130,4
68,0.6650390625,-0.48486328125,-0.2978515625,13.841463414634148,0.9756097560975611,-2.682926829268293,130,4
69,0.68798828125,-0.45947265625,-0.28271484375,17.134146341463417,2.073170731707317,-3.536585365853659,130,4
70,0.72216796875,-0.42724609375,-0.2734375,17.926829268292686,3.9024390243902443,-4.2682926829268295,130,4
71,0.74853515625,-0.4013671875,-0.24853515625,17.195121951219512,7.073170731707318,-4.695121951219512,130,4
72,0.76123046875,-0.392578125,-0.2275390625,14.817073170731708,9.878048780487806,-5.182926829268293,130,4
73,0.74560546875,-0.404296875,-0.216796875,14.02439024390244,11.097560975609756,-3.658536585365854,130,4
74,0.69873046875,-0.4462890625,-0.212890625,16.951219512195124,9.451219512195122,-1.0975609756097562,130,4
75,0.681640625,-0.4638671875,-0.21923828125,23.84146341463415,6.036585365853659,-0.24390243902439027,130,4
76,0.69482421875,-0.4775390625,-0.2353515625,28.10975609756098,3.658536585365854,1.0975609756097562,130,4
77,0.6767578125,-0.4892578125,-0.19970703125,30.975609756097565,3.048780487804878,2.9268292682926833,130,4
78,0.6708984375,-0.52197265625,-0.16455078125,32.6219512195122,2.7439024390243905,5.975609756097562,130,4
79,0.6689453125,-0.525390625,-0.15283203125,33.90243902439025,2.804878048780488,8.048780487804878,130,4
80,0.68505859375,-0.5048828125,-0.00341796875,36.707317073170735,1.0975609756097562,9.939024390243903,130,4
81,0.68359375,-0.52197265625,-0.18212890625,40.0609756097561,-3.780487804878049,10.853658536585368,130,4
82,0.6689453125,-0.54541015625,-0.2783203125,41.646341463414636,-7.01219512195122,10.914634146341465,130,4
83,0.6171875,-0.546875,-0.31005859375,40.73170731707317,-9.329268292682928,8.231707317073171,130,4
84,0.6123046875,-0.5703125,-0.35205078125,34.207317073170735,-5.731707317073171,6.158536585365854,130,4
85,0.64404296875,-0.54638671875,-0.36865234375,27.012195121951223,-3.353658536585366,4.146341463414634,130,4
86,0.63818359375,-0.5947265625,-0.40087890625,17.5,1.2195121951219514,2.25609756097561,130,4
87,0.61181640625,-0.59619140625,-0.4189453125,8.109756097560977,7.01219512195122,-0.48780487804878053,130,4
88,0.63330078125,-0.60498046875,-0.43505859375,15.000000000000002,10.182926829268293,-2.7439024390243905,130,4
89,0.65185546875,-0.595703125,-0.4765625,-4.329268292682928,8.170731707317074,-4.51219512195122,130,4
90,0.63818359375,-0.6103515625,-0.5419921875,-0.5487804878048781,3.1097560975609757,-6.2804878048780495,130,4
91,0.646484375,-0.630859375,-0.52392578125,-0.48780487804878053,1.8902439024390245,-7.621951219512196,130,4
92,0.65966796875,-0.63330078125,-0.5166015625,-0.9146341463414634,0.9146341463414634,-6.2804878048780495,130,4
93,0.6416015625,-0.640625,-0.49853515625,-2.378048780487805,0.06097560975609757,-5.2439024390243905,130,4
94,0.5947265625,-0.68798828125,-0.54931640625,-10.060975609756099,0.0,-0.9756097560975611,130,4
95,0.572265625,-0.69189453125,-0.4208984375,0.06097560975609757,-1.6463414634146343,0.7926829268292683,130,4
96,0.5869140625,-0.6611328125,-0.37841796875,1.5853658536585367,0.6707317073170732,2.8658536585365857,130,4
97,0.61181640625,-0.5810546875,-0.36865234375,-0.853658536585366,4.75609756097561,5.426829268292684,130,4
98,0.6298828125,-0.5341796875,-0.29638671875,-3.4756097560975614,7.743902439024391,7.8048780487804885,130,4
99,0.62060546875,-0.51171875,-0.279296875,-5.060975609756098,10.853658536585368,8.719512195121952,130,4
100,0.64697265625,-0.46533203125,-0.37451171875,-6.829268292682928,13.658536585365855,8.231707317073171,130,4
101,0.671875,-0.4365234375,-0.22412109375,-9.085365853658537,15.79268292682927,7.560975609756098,130,4
102,0.70654296875,-0.42333984375,-0.19921875,-9.939024390243903,17.195121951219512,6.829268292682928,130,4
103,0.73193359375,-0.4296875,-0.20361328125,-10.30487804878049,17.926829268292686,5.548780487804878,130,4
104,0.7265625,-0.45068359375,-0.17724609375,-10.0,19.32926829268293,4.939024390243903,130,4
105,0.71484375,-0.48046875,-0.15380859375,-8.536585365853659,20.182926829268293,3.780487804878049,130,4
106,0.73779296875,-0.494140625,-0.146484375,-7.073170731707318,22.073170731707318,2.6219512195121952,130,4
107,0.7666015625,-0.49169921875,-0.16259765625,-7.439024390243903,24.207317073170735,1.2195121951219514,130,4
108,0.7783203125,-0.4873046875,-0.15380859375,-7.317073170731708,25.853658536585368,1.0365853658536586,130,4
109,0.740234375,-0.53076171875,-0.24951171875,-6.463414634146342,26.402439024390247,1.0365853658536586,130,4
110,0.703125,-0.5732421875,-0.1220703125,-4.939024390243903,27.621951219512198,1.524390243902439,130,4
111,0.66015625,-0.59228515625,-0.10595703125,-5.0,32.43902439024391,2.6219512195121952,130,4
112,0.66357421875,-0.5986328125,-0.05126953125,-6.890243902439025,38.53658536585366,3.7195121951219514,130,4
113,0.646484375,-0.5859375,-0.068359375,-9.329268292682928,43.963414634146346,4.817073170731708,130,4
114,0.6650390625,-0.55908203125,-0.123046875,-15.182926829268293,51.89024390243903,5.670731707317073,130,4
115,0.69189453125,-0.619140625,-0.1494140625,-22.012195121951223,57.19512195121952,7.01219512195122,130,4
116,0.6953125,-0.51953125,-0.09619140625,-25.48780487804878,64.08536585365854,9.02439024390244,130,4
117,0.6728515625,-0.60693359375,-0.06884765625,-28.414634146341466,69.87804878048782,10.487804878048781,130,4
118,0.64453125,-0.662109375,-0.01953125,-30.121951219512198,74.93902439024392,12.317073170731708,130,4
119,0.63525390625,-0.662109375,-0.00146484375,-31.03658536585366,77.43902439024392,14.51219512195122,130,4
120,0.63232421875,-0.6484375,-0.00341796875,-29.75609756097561,79.26829268292684,0.06097560975609757,130,4
121,0.6318359375,-0.6376953125,0.017578125,-25.853658536585368,93.41463414634147,17.98780487804878,130,4
122,0.62158203125,-0.5927734375,-0.060546875,-19.02439024390244,65.79268292682927,15.609756097560977,130,4
123,0.6455078125,-0.390625,-0.1669921875,-14.878048780487806,63.29268292682927,11.829268292682928,130,4
124,0.88427734375,-0.314453125,-0.28271484375,-24.207317073170735,70.54878048780489,7.439024390243903,130,4
125,0.85791015625,-0.3369140625,-0.3212890625,-38.53658536585366,79.63414634146342,2.8658536585365857,130,4
126,0.8583984375,-0.296875,-0.27294921875,-48.29268292682927,81.95121951219512,-0.1829268292682927,130,4
127,0.8369140625,-0.28515625,-0.2822265625,-53.41463414634147,79.32926829268294,-0.426829268292683,130,4
128,0.759765625,-0.33203125,-0.3251953125,-57.6829268292683,76.58536585365854,0.48780487804878053,130,4
129,0.697265625,-0.3603515625,-0.35205078125,-58.29268292682927,71.76829268292684,0.5487804878048781,130,4
130,0.68310546875,-0.31591796875,-0.35595703125,-54.32926829268293,66.95121951219512,0.6707317073170732,130,4
131,0.70849609375,-0.23486328125,-0.41845703125,-54.69512195121952,65.3048780487805,1.3414634146341464,130,4
132,0.728515625,-0.1591796875,-0.47265625,-47.31707317073171,68.17073170731707,1.1585365853658538,130,4
133,0.74853515625,-0.10498046875,-0.48779296875,-72.6219512195122,70.85365853658537,-0.853658536585366,130,4
134,0.79052734375,-0.072265625,-0.5009765625,-80.42682926829269,71.52439024390245,-2.439024390243903,130,4
135,0.7919921875,-0.0732421875,-0.5244140625,-87.5609756097561,69.81707317073172,-3.231707317073171,130,4
136,0.74169921875,-0.0068359375,-0.53857421875,-93.65853658536587,68.29268292682927,-5.853658536585367,130,4
137,0.7060546875,-0.1455078125,-0.5009765625,-94.75609756097562,66.52439024390245,-8.231707317073171,130,4
138,0.71630859375,-0.2470703125,-0.48388671875,-95.97560975609757,64.45121951219512,-10.731707317073171,130,4
139,0.7431640625,-0.11279296875,-0.48193359375,-99.57317073170732,60.243902439024396,-12.560975609756099,130,4
140,0.71630859375,-0.0009765625,-0.5341796875,-102.25609756097562,55.1219512195122,-15.365853658536587,130,4
141,0.69775390625,-0.11328125,-0.51806640625,-105.42682926829269,51.951219512195124,-18.902439024390244,130,4
142,0.716796875,-0.11767578125,-0.3779296875,-109.14634146341464,49.39024390243903,-21.76829268292683,130,4
143,0.73046875,-0.095703125,-0.48291015625,-114.39024390243904,47.6219512195122,-24.207317073170735,130,4
144,0.7197265625,-0.13525390625,-0.376953125,-119.02439024390245,45.304878048780495,-27.5609756097561,130,4
145,0.7099609375,-0.134765625,-0.5078125,-120.67073170731709,44.024390243902445,-31.03658536585366,130,4
146,0.7158203125,-0.1435546875,-0.49609375,-123.10975609756099,44.51219512195122,-34.024390243902445,130,4
147,0.7333984375,-0.14501953125,-0.3857421875,-126.95121951219514,41.646341463414636,-36.768292682926834,130,4
148,0.72705078125,-0.24560546875,-0.55224609375,-129.14634146341464,38.35365853658537,-39.63414634146342,130,4
149,0.73974609375,-0.11865234375,-0.5556640625,-132.37804878048783,34.51219512195122,-42.804878048780495,130,4
150,0.7705078125,-0.09228515625,-0.59423828125,-135.3048780487805,31.03658536585366,-46.58536585365854,130,4
151,0.806640625,-0.041015625,-0.5634765625,-140.0609756097561,29.939024390243905,-50.487804878048784,130,4
152,0.84423828125,-0.03271484375,-0.55810546875,-148.0487804878049,15.670731707317074,-54.81707317073171,130,4
153,0.83837890625,-0.06787109375,-0.58203125,-140.7317073170732,32.86585365853659,-58.71951219512196,130,4
154,0.82275390625,-0.0732421875,-0.59375,-162.25609756097563,32.86585365853659,-64.32926829268293,130,4
155,0.8720703125,-0.02880859375,-0.5849609375,-167.25609756097563,31.76829268292683,-68.59756097560977,130,4
156,0.88818359375,-0.0595703125,-0.57421875,-172.8658536585366,32.19512195121951,-72.07317073170732,130,4
157,0.86474609375,-0.0908203125,-0.57080078125,-175.91463414634148,31.34146341463415,-76.15853658536587,130,4
158,0.8916015625,-0.06005859375,-0.529296875,-175.5487804878049,29.695121951219516,-79.75609756097562,130,4
159,0.93408203125,-0.060546875,-0.54248046875,-175.6707317073171,28.719512195121954,-83.10975609756099,130,4
160,0.9677734375,-0.0634765625,-0.54638671875,-175.5487804878049,27.439024390243905,-87.37804878048782,130,4
161,1.02392578125,-0.0107421875,-0.59423828125,-175.2439024390244,26.34146341463415,-92.6219512195122,130,4
162,1.09814453125,0.01220703125,-0.5712890625,-179.69512195121953,29.573170731707318,-97.37804878048782,130,4
163,1.1611328125,0.025390625,-0.57080078125,-172.19512195121953,35.243902439024396,-103.29268292682927,130,4
164,1.21826171875,0.04833984375,-0.59814453125,-197.01219512195124,40.36585365853659,-110.06097560975611,130,4
165,1.2744140625,0.0576171875,-0.533203125,-203.65853658536588,45.60975609756098,-115.1829268292683,130,4
166,1.29150390625,0.04248046875,-0.5166015625,-208.53658536585368,49.93902439024391,-120.2439024390244,130,4
167,1.26708984375,-0.01611328125,-0.4873046875,-210.6707317073171,53.23170731707317,-125.3658536585366,130,4
168,1.24365234375,-0.0458984375,-0.44970703125,-207.6829268292683,53.29268292682927,-130.3658536585366,130,4
169,1.23681640625,-0.04638671875,-0.43701171875,-202.9878048780488,51.951219512195124,-134.39024390243904,130,4
170,1.25244140625,-0.00244140625,-0.4443359375,-201.58536585365854,52.5609756097561,-138.41463414634148,130,4
171,1.25244140625,0.02392578125,-0.44921875,-202.19512195121953,54.51219512195122,-143.0487804878049,130,4
172,1.294921875,0.05078125,-0.4384765625,-203.2317073170732,59.207317073170735,-148.2926829268293,130,4
173,1.3583984375,0.083984375,-0.43896484375,-204.26829268292684,62.01219512195122,-153.84146341463415,130,4
174,1.40869140625,0.1591796875,-0.4306640625,-204.87804878048783,62.865853658536594,-159.14634146341464,130,4
175,1.4404296875,0.1533203125,-0.45849609375,-206.03658536585368,63.65853658536586,-164.32926829268294,130,4
176,1.44873046875,0.1318359375,-0.4267578125,-203.59756097560978,65.60975609756098,-169.69512195121953,130,4
177,1.47412109375,0.13134765625,-0.39306640625,-195.2439024390244,62.926829268292686,-173.1707317073171,130,4
178,1.47900390625,0.13916015625,-0.416015625,-184.45121951219514,58.23170731707317,-177.31707317073173,130,4
179,1.47705078125,0.189453125,-0.384765625,-176.89024390243904,56.34146341463415,-180.1829268292683,130,4
180,1.47900390625,0.16748046875,-0.38720703125,-171.82926829268294,55.1829268292683,-182.56097560975613,130,4
181,1.46484375,0.18212890625,-0.40625,-168.65853658536588,57.560975609756106,-187.13414634146343,130,4
182,1.50830078125,0.2607421875,-0.35595703125,-168.1707317073171,60.1219512195122,-190.1829268292683,130,4
183,1.52392578125,0.271484375,-0.3583984375,-168.84146341463415,62.37804878048781,-194.87804878048783,130,4
184,1.568359375,0.30322265625,-0.37939453125,-164.75609756097563,63.35365853658537,-200.2439024390244,130,4
185,1.59423828125,0.31787109375,-0.337890625,-159.75609756097563,63.71951219512196,-204.20731707317074,130,4
186,1.64013671875,0.30908203125,-0.35888671875,-154.69512195121953,77.8658536585366,-208.47560975609758,130,4
187,1.64306640625,0.29833984375,-0.353515625,-150.85365853658539,63.17073170731708,-212.37804878048783,130,4
188,1.64013671875,0.2587890625,-0.337890625,-147.5609756097561,64.75609756097562,-215.4268292682927,130,4
189,1.63623046875,0.2314453125,-0.37109375,-143.2926829268293,64.45121951219512,-217.01219512195124,130,4
190,1.642578125,0.2236328125,-0.33642578125,-139.81707317073173,65.85365853658537,-217.62195121951223,130,4
191,1.66650390625,0.22900390625,-0.3349609375,-137.37804878048783,68.71951219512195,-218.84146341463418,130,4
192,1.68115234375,0.2333984375,-0.32373046875,-124.93902439024392,74.39024390243902,-220.6707317073171,130,4
193,1.63232421875,0.2119140625,-0.25634765625,-145.609756097561,80.48780487804879,-223.2926829268293,130,4
194,1.607421875,0.1943359375,-0.1875,-148.1707317073171,82.98780487804879,-225.2439024390244,130,4
195,1.5537109375,0.154296875,-0.130859375,-147.13414634146343,84.69512195121952,-227.01219512195124,130,4
196,1.4951171875,0.16064453125,-0.06884765625,-142.31707317073173,85.1219512195122,-229.69512195121953,130,4
197,1.498046875,0.224609375,0.03271484375,-133.84146341463415,84.87804878048782,-234.87804878048783,130,4
198,1.5224609375,0.2685546875,0.09912109375,-126.34146341463416,83.53658536585367,-240.4268292682927,130,4
199,1.529296875,0.26025390625,0.06884765625,-119.57317073170732,82.01219512195122,-248.96341463414637,130,4
200,1.5087890625,0.22412109375,0.05078125,-110.85365853658537,80.1829268292683,-254.81707317073173,130,4
201,1.45166015625,0.15185546875,0.1083984375,-98.90243902439025,77.43902439024392,-259.57317073170736,130,4
202,1.41748046875,0.08349609375,0.1005859375,-85.85365853658537,73.78048780487805,-261.76829268292687,130,4
203,1.28662109375,-0.005859375,0.021484375,-74.20731707317074,71.52439024390245,-258.5365853658537,130,4
204,1.14111328125,-0.0546875,0.00341796875,-63.35365853658537,69.93902439024392,-252.74390243902442,130,4
205,1.03466796875,-0.03466796875,0.015625,-57.07317073170732,70.42682926829269,-247.74390243902442,130,4
206,0.95263671875,-0.060546875,-0.0634765625,-56.21951219512196,72.07317073170732,-242.19512195121953,130,4
207,0.85400390625,-0.10888671875,-0.12744140625,-57.37804878048781,74.20731707317074,-249.69512195121953,130,4
208,0.7783203125,-0.125,-0.09521484375,-59.39024390243903,76.58536585365854,-227.8048780487805,130,4
209,0.73046875,-0.15380859375,0.00390625,-61.34146341463415,78.90243902439025,-219.45121951219514,130,4
210,0.6064453125,-0.26171875,0.06689453125,-59.87804878048781,80.0,-210.4878048780488,130,4
211,0.4765625,-0.43115234375,0.14501953125,-55.79268292682927,76.52439024390245,-201.40243902439025,130,4
212,0.4169921875,-0.46826171875,0.18896484375,-46.09756097560976,73.17073170731707,-194.02439024390245,130,4
213,0.3154296875,-0.58984375,0.16845703125,-40.60975609756098,68.35365853658537,-184.26829268292684,130,4
214,0.23681640625,-0.609375,0.2421875,-34.69512195121951,65.67073170731707,-173.65853658536588,130,4
215,0.244140625,-0.65576171875,0.3115234375,-32.86585365853659,63.84146341463415,-159.81707317073173,130,4
216,0.013671875,-0.70849609375,0.34130859375,-31.89024390243903,60.85365853658537,-143.96341463414635,130,4
217,-0.1201171875,-0.767578125,0.39404296875,-30.60975609756098,59.39024390243903,-129.14634146341464,130,4
218,-0.2099609375,-0.7958984375,0.392578125,-27.80487804878049,55.54878048780488,-112.92682926829269,130,4
219,-0.28759765625,-0.84033203125,0.41650390625,-21.951219512195124,52.19512195121952,-96.95121951219512,130,4
220,-0.3173828125,-0.90478515625,0.3916015625,-30.914634146341466,48.53658536585366,-81.15853658536587,130,4
221,-0.2861328125,-0.923828125,0.330078125,-7.134146341463415,43.47560975609756,-77.01219512195122,130,4
222,-0.31591796875,-1.02490234375,0.29345703125,-14.695121951219514,42.07317073170732,-41.951219512195124,130,4
223,-0.31494140625,-1.083984375,0.314453125,9.02439024390244,41.951219512195124,-23.719512195121954,130,4
224,-0.3681640625,-1.13134765625,0.35791015625,14.695121951219514,42.07317073170732,-6.402439024390245,130,4
225,-0.41748046875,-1.2138671875,0.3583984375,21.34146341463415,39.32926829268293,10.792682926829269,130,4
226,-0.400390625,-1.224609375,0.30322265625,30.914634146341466,36.463414634146346,26.76829268292683,130,4
227,-0.3515625,-1.1298828125,0.2998046875,35.97560975609756,33.71951219512196,43.90243902439025,130,4
228,-0.34033203125,-1.32177734375,0.29052734375,42.07317073170732,31.707317073170735,62.07317073170732,130,4
229,-0.359375,-1.388671875,0.36962890625,50.243902439024396,28.902439024390247,82.43902439024392,130,4
230,-0.337890625,-1.41650390625,0.236328125,59.32926829268293,24.573170731707318,102.8658536585366,130,4
231,-0.27880859375,-1.455078125,0.185546875,69.14634146341464,17.439024390243905,123.96341463414635,130,4
232,-0.20361328125,-1.49365234375,0.0947265625,62.743902439024396,11.707317073170733,145.85365853658539,130,4
233,-0.06982421875,-1.54248046875,-0.005859375,88.04878048780489,6.219512195121951,170.7317073170732,130,4
234,0.029296875,-1.6591796875,-0.048828125,99.87804878048782,1.402439024390244,195.1829268292683,130,4
235,0.142578125,-1.6357421875,-0.05126953125,111.58536585365854,-4.75609756097561,204.69512195121953,130,4
236,0.21826171875,-1.90380859375,-0.083984375,126.46341463414635,-12.987804878048781,244.57317073170734,130,4
237,0.35009765625,-2.029296875,-0.10693359375,138.71951219512195,-14.939024390243905,270.0,130,4
238,0.48779296875,-2.16650390625,-0.04345703125,145.6707317073171,-11.646341463414634,296.2804878048781,130,4
239,0.626953125,-2.37158203125,-0.03515625,151.28048780487805,-10.853658536585368,324.57317073170736,130,4
240,0.74951171875,-2.54443359375,-0.07177734375,161.64634146341464,-12.439024390243903,354.87804878048786,130,4
241,0.8701171875,-2.80859375,-0.1767578125,170.85365853658539,-13.29268292682927,375.609756097561,130,4
242,1.02783203125,-3.00341796875,-0.4072265625,181.76829268292684,-23.719512195121954,434.69512195121956,130,4
243,1.21923828125,-3.37939453125,-0.71875,199.87804878048783,-16.219512195121954,477.56097560975616,130,4
244,1.61474609375,-3.64404296875,-0.94677734375,231.70731707317074,-32.987804878048784,500.60975609756105,130,4
245,1.88623046875,-4.107421875,-1.03173828125,266.4634146341464,-63.84146341463415,531.6463414634147,130,4
246,2.5771484375,-4.41357421875,-1.7060546875,338.4756097560976,-100.85365853658537,563.9024390243903,130,4
247,3.35400390625,-4.58642578125,-2.1533203125,378.4756097560976,-101.70731707317074,582.5609756097562,130,4
248,3.95556640625,-4.900390625,-2.59375,398.719512195122,-90.3048780487805,599.5731707317074,130,4
249,4.416015625,-5.4990234375,-2.86279296875,399.81707317073176,-68.65853658536587,606.219512195122,130,4
250,5.181640625,-5.55126953125,-3.21044921875,409.0243902439025,-52.37804878048781,653.719512195122,130,4
251,5.86572265625,-5.3759765625,-3.73876953125,492.50000000000006,-45.304878048780495,694.7560975609757,130,4
252,6.9169921875,-4.880859375,-4.16845703125,560.4268292682927,-33.35365853658537,719.8780487804879,130,4
253,8.15966796875,-4.3125,-4.427734375,635.4878048780488,-63.90243902439025,794.939024390244,130,4
254,8.849609375,-4.244140625,-5.06787109375,711.2804878048781,-134.63414634146343,798.2317073170732,130,4
255,10.009765625,-3.5009765625,-6.0322265625,777.6829268292684,-201.89024390243904,757.5609756097562,130,4
256,10.6748046875,-2.7421875,-6.92041015625,823.1097560975611,-279.45121951219517,689.329268292683,130,4
257,9.169921875,-2.63330078125,-6.9404296875,875.4878048780489,-341.6463414634147,638.109756097561,130,4
258,7.0966796875,-2.86962890625,-6.349609375,999.8780487804879,-424.45121951219517,539.0853658536586,130,4
259,5.62646484375,-2.6826171875,-7.169921875,1150.7926829268295,-547.9268292682927,333.8414634146342,130,4
260,4.75732421875,-10.06201171875,3.66064453125,795.1219512195123,107.37804878048782,202.43902439024393,130,4
261,-9.12451171875,-2.509765625,-1.03662109375,1252.9878048780488,-192.19512195121953,92.8658536585366,130,4
262,8.8740234375,-5.42822265625,-12.7548828125,1232.7439024390244,-542.8048780487806,-46.15853658536586,130,4
263,15.7744140625,5.37109375,-1.45849609375,899.0853658536586,-53.10975609756098,-89.20731707317074,130,4
264,0.62353515625,0.31689453125,-3.35107421875,1305.7317073170732,-276.0365853658537,-85.79268292682927,130,4
265,4.25927734375,0.13525390625,-2.66015625,996.829268292683,-239.51219512195124,-258.5975609756098,130,4
266,5.0185546875,1.76123046875,-1.16796875,975.2439024390245,-229.75609756097563,-234.51219512195124,130,4
267,2.50244140625,-1.33154296875,-2.10595703125,910.9146341463415,-243.35365853658539,-380.2439024390244,130,4
268,3.68896484375,-0.35205078125,-1.90087890625,772.1951219512196,-258.719512195122,-493.2926829268293,130,4
269,2.8486328125,-0.87841796875,-1.55419921875,712.9268292682927,-224.63414634146343,-531.0975609756098,130,4
270,2.31103515625,-1.61767578125,-1.46240234375,585.0,-194.51219512195124,-592.0121951219513,130,4
271,1.60791015625,-2.00341796875,-1.3232421875,459.45121951219517,-163.35365853658539,-628.2926829268293,130,4
272,1.0537109375,-2.13134765625,-1.1259765625,369.57317073170736,-115.91463414634147,-697.5000000000001,130,4
273,1.1865234375,-1.9501953125,-0.74853515625,291.95121951219517,-56.21951219512196,-732.0121951219513,130,4
274,1.35888671875,-1.66357421875,-0.353515625,220.5487804878049,-12.80487804878049,-723.7804878048781,130,4
275,1.2470703125,-1.1474609375,-0.099609375,181.82926829268294,66.70731707317074,-716.1585365853659,130,4
276,1.48681640625,-0.81298828125,0.046875,160.7926829268293,161.52439024390245,-675.2439024390244,130,4
277,1.41455078125,-0.76025390625,-0.091796875,157.7439024390244,216.09756097560978,-676.1585365853659,130,4
278,2.24609375,-0.8076171875,-0.18603515625,154.20731707317074,243.0487804878049,-675.0000000000001,130,4
279,2.80419921875,-0.56005859375,-0.236328125,89.45121951219512,259.32926829268297,-650.1219512195122,130,4
280,2.53857421875,-1.33251953125,-0.16162109375,10.975609756097562,272.13414634146346,-613.6585365853659,130,4
281,2.16650390625,-1.57177734375,-0.12841796875,-42.43902439024391,285.8536585365854,-590.3658536585366,130,4
282,1.98046875,-1.3896484375,-0.609375,-79.32926829268294,300.0609756097561,-532.9878048780488,130,4
283,1.9697265625,-1.2978515625,-0.99267578125,-136.46341463414635,300.1829268292683,-490.24390243902445,130,4
284,1.72021484375,-1.337890625,-1.23388671875,-148.78048780487805,300.609756097561,-467.19512195121956,130,4
285,1.47900390625,-1.2783203125,-1.0888671875,-176.28048780487808,297.13414634146346,-417.50000000000006,130,4
286,1.06103515625,-1.146484375,-0.9638671875,-177.37804878048783,294.57317073170736,-398.2926829268293,130,4
287,1.3701171875,-0.7861328125,-0.88232421875,-182.07317073170734,292.6219512195122,-368.6585365853659,130,4
288,1.06640625,-0.7109375,-0.82177734375,-209.32926829268294,304.69512195121956,-356.95121951219517,130,4
289,1.0966796875,-0.49462890625,-0.787109375,-229.81707317073173,311.82926829268297,-343.8414634146342,130,4
290,0.8525390625,-0.25390625,-0.8046875,-245.7926829268293,319.26829268292687,-343.109756097561,130,4
291,0.814453125,-0.37060546875,-0.9833984375,-253.35365853658539,320.9756097560976,-307.37804878048786,130,4
292,0.76513671875,-0.43505859375,-1.2333984375,-252.50000000000003,316.4024390243903,-286.82926829268297,130,4
293,0.66796875,-0.48974609375,-1.349609375,-227.50000000000003,297.8658536585366,-262.2560975609756,130,4
294,0.25341796875,-0.65771484375,-1.39990234375,-206.82926829268294,281.76829268292687,-240.3658536585366,130,4
295,0.021484375,-0.6455078125,-1.26953125,-200.85365853658539,265.609756097561,-222.7439024390244,130,4
296,-0.11181640625,-0.50830078125,-0.96923828125,-170.4878048780488,256.2804878048781,-205.5487804878049,130,4
297,-0.1298828125,-0.421875,-0.6796875,-180.3658536585366,257.07317073170736,-193.59756097560978,130,4
298,-0.3935546875,-0.47607421875,-0.6103515625,-187.7439024390244,254.02439024390247,-179.87804878048783,130,4
299,-0.4189453125,-0.2060546875,-0.61767578125,-197.13414634146343,245.609756097561,-164.20731707317074,130,4
300,-0.4658203125,-0.13134765625,-0.7021484375,-199.93902439024393,237.8048780487805,-147.07317073170734,130,4
301,-0.4541015625,-0.16650390625,-0.85205078125,-201.09756097560978,221.46341463414637,-132.01219512195124,130,4
302,-0.47314453125,-0.1796875,-0.912109375,-191.15853658536588,200.4878048780488,-115.2439024390244,130,4
303,-0.69677734375,-0.283203125,-0.814453125,-172.43902439024393,182.19512195121953,-101.95121951219512,130,4
304,-0.76806640625,-0.39501953125,-0.70556640625,-159.81707317073173,169.39024390243904,-96.34146341463415,130,4
305,-0.94482421875,-0.3115234375,-0.6650390625,-153.0487804878049,159.14634146341464,-92.07317073170732,130,4
306,-0.88623046875,-0.1728515625,-0.60302734375,-146.28048780487805,149.51219512195124,-82.5609756097561,130,4
307,-0.888671875,-0.138671875,-0.57763671875,-143.109756097561,142.01219512195124,-73.96341463414635,130,4
308,-0.87744140625,-0.1044921875,-0.5888671875,-140.7317073170732,136.09756097560978,-64.87804878048782,130,4
309,-0.9287109375,-0.11279296875,-0.5869140625,-141.15853658536588,129.08536585365854,-55.243902439024396,130,4
310,-1.06298828125,-0.14501953125,-0.64306640625,-129.14634146341464,118.10975609756099,-45.91463414634147,130,4
311,-1.1201171875,-0.14697265625,-0.6767578125,-114.87804878048782,109.63414634146342,-38.65853658536586,130,4
312,-1.18505859375,-0.1455078125,-0.7314453125,-108.10975609756099,97.8658536585366,-31.707317073170735,130,4
313,-1.18310546875,-0.06005859375,-0.72216796875,-96.21951219512196,85.91463414634147,-23.414634146341466,130,4
314,-1.13525390625,-0.103515625,-0.6875,-85.91463414634147,73.71951219512195,-12.926829268292684,130,4
315,-1.373046875,-0.15673828125,-0.67529296875,-78.23170731707317,60.79268292682927,-4.146341463414634,130,4
316,-1.35302734375,-0.14306640625,-0.59716796875,-69.75609756097562,50.00000000000001,3.963414634146342,130,4
317,-1.34130859375,-0.10009765625,-0.55615234375,-64.26829268292684,40.79268292682927,12.256097560975611,130,4
318,-1.27880859375,-0.05419921875,-0.51318359375,-60.426829268292686,34.207317073170735,19.939024390243905,130,4
319,-1.24365234375,-0.12353515625,-0.60400390625,-53.90243902439025,23.59756097560976,25.426829268292686,130,4
320,-1.19775390625,0.0126953125,-0.57421875,-50.85365853658537,10.121951219512196,28.10975609756098,130,4
321,-1.15625,0.046875,-0.55322265625,-43.23170731707317,14.451219512195124,15.853658536585368,130,4
322,-1.14013671875,0.01513671875,-0.51123046875,-37.07317073170732,-11.036585365853659,34.32926829268293,130,4
323,-1.11279296875,0.025390625,-0.46240234375,-32.6219512195122,-22.073170731707318,37.37804878048781,130,4
324,-1.10205078125,0.05615234375,-0.4345703125,-27.865853658536587,-32.86585365853659,40.1829268292683,130,4
325,-1.0908203125,0.09423828125,-0.38916015625,-24.512195121951223,-40.97560975609756,42.43902439024391,130,4
326,-1.09619140625,0.12841796875,-0.34619140625,-22.500000000000004,-49.024390243902445,43.84146341463415,130,4
327,-1.11181640625,0.14013671875,-0.3193359375,-21.76829268292683,-56.34146341463415,43.78048780487805,130,4
328,-1.09716796875,0.1728515625,-0.3037109375,-17.5,-65.60975609756098,44.024390243902445,130,4
329,-1.07177734375,0.18798828125,-0.28173828125,-12.317073170731708,-75.42682926829269,44.81707317073171,130,4
330,-1.0439453125,0.1884765625,-0.23876953125,-5.853658536585367,-84.63414634146342,45.670731707317074,130,4
331,-1.04931640625,0.1796875,-0.20947265625,-0.30487804878048785,-91.95121951219512,45.85365853658537,130,4
332,-1.03759765625,0.19384765625,-0.1865234375,4.573170731707317,-98.78048780487806,45.97560975609756,130,4
333,-1.02392578125,0.203125,-0.1826171875,9.634146341463415,-105.06097560975611,47.19512195121952,130,4
334,-1.0087890625,0.216796875,-0.1650390625,13.658536585365855,-93.71951219512196,48.84146341463415,130,4
335,-0.99609375,0.2236328125,-0.14501953125,17.134146341463417,-114.51219512195122,51.03658536585366,130,4
336,-0.962890625,0.23486328125,-0.10009765625,22.439024390243905,-122.8658536585366,53.35365853658537,130,4
337,-0.9599609375,0.23779296875,-0.037109375,25.792682926829272,-127.43902439024392,54.39024390243903,130,4
338,-0.9482421875,0.2490234375,-0.00341796875,27.25609756097561,-130.0,55.365853658536594,130,4
339,-0.92529296875,0.2783203125,0.0283203125,29.02439024390244,-134.32926829268294,57.19512195121952,130,4
340,-0.896484375,0.29833984375,0.048828125,32.01219512195122,-137.6829268292683,58.65853658536586,130,4
341,-0.88037109375,0.32080078125,0.0888671875,33.71951219512196,-142.07317073170734,60.060975609756106,130,4
342,-0.87158203125,0.35107421875,0.11181640625,34.268292682926834,-145.5487804878049,60.85365853658537,130,4
343,-0.8251953125,0.38818359375,0.15478515625,33.29268292682927,-147.9878048780488,60.67073170731708,130,4
344,-0.78369140625,0.4267578125,0.2216796875,29.573170731707318,-149.57317073170734,59.81707317073171,130,4
345,-0.7529296875,0.4541015625,0.2685546875,29.207317073170735,-153.41463414634148,59.207317073170735,130,4
346,-0.73681640625,0.44873046875,0.2861328125,29.451219512195124,-156.89024390243904,56.646341463414636,130,4
347,-0.708984375,0.4404296875,0.2880859375,32.43902439024391,-160.3658536585366,54.268292682926834,130,4
348,-0.67431640625,0.42919921875,0.31787109375,35.73170731707317,-162.01219512195124,51.707317073170735,130,4
349,-0.61083984375,0.4375,0.35009765625,37.07317073170732,-162.6219512195122,51.524390243902445,130,4
350,-0.5439453125,0.43115234375,0.41552734375,35.243902439024396,-160.1829268292683,52.43902439024391,130,4
351,-0.50341796875,0.439453125,0.4580078125,31.58536585365854,-158.71951219512198,55.85365853658537,130,4
352,-0.50830078125,0.40380859375,0.44677734375,30.121951219512198,-158.41463414634148,57.31707317073171,130,4
353,-0.54248046875,0.38671875,0.44384765625,32.6219512195122,-159.02439024390245,58.84146341463415,130,4
354,-0.5732421875,0.35595703125,0.46630859375,38.35365853658537,-160.91463414634148,60.365853658536594,130,4
355,-0.5615234375,0.35791015625,0.50830078125,43.59756097560976,-160.5487804878049,61.95121951219513,130,4
356,-0.541015625,0.3671875,0.56298828125,45.1829268292683,-157.6219512195122,64.08536585365854,130,4
357,-0.5087890625,0.39501953125,0.58642578125,43.71951219512196,-153.1707317073171,65.1829268292683,130,4
358,-0.44287109375,0.453125,0.5771484375,42.50000000000001,-151.82926829268294,66.40243902439025,130,4
359,-0.39599609375,0.4677734375,0.5556640625,42.743902439024396,-154.14634146341464,67.5,130,4
360,-0.49560546875,0.478515625,0.52978515625,45.73170731707317,-157.37804878048783,68.47560975609757,130,4
361,-0.36279296875,0.45361328125,0.49365234375,49.69512195121952,-161.82926829268294,68.47560975609757,130,4
362,-0.33203125,0.43310546875,0.48828125,53.35365853658537,-163.53658536585368,68.59756097560977,130,4
363,-0.30322265625,0.427734375,0.50830078125,53.29268292682927,-163.47560975609758,69.51219512195122,130,4
364,-0.267578125,0.4453125,0.55126953125,54.207317073170735,-161.89024390243904,71.21951219512195,130,4
365,-0.2119140625,0.43896484375,0.5908203125,53.17073170731708,-158.59756097560978,72.8658536585366,130,4
366,-0.16015625,0.4423828125,0.6171875,51.89024390243903,-155.1219512195122,74.20731707317074,130,4
367,-0.11865234375,0.44873046875,0.63720703125,50.54878048780488,-152.43902439024393,75.48780487804879,130,4
368,-0.09765625,0.44970703125,0.638671875,48.84146341463415,-151.95121951219514,76.21951219512196,130,4
369,-0.0927734375,0.45654296875,0.61474609375,49.63414634146342,-154.14634146341464,76.21951219512196,130,4
370,-0.08740234375,0.458984375,0.60595703125,53.47560975609757,-157.7439024390244,75.60975609756098,130,4
371,-0.0830078125,0.45703125,0.60595703125,56.585365853658544,-159.63414634146343,75.2439024390244,130,4
372,-0.04345703125,0.46142578125,0.6337890625,53.35365853658537,-158.0487804878049,74.69512195121952,130,4
373,0.00048828125,0.47412109375,0.63037109375,43.78048780487805,-153.2926829268293,75.0,130,4
374,0.03662109375,0.49658203125,0.63623046875,34.87804878048781,-149.26829268292684,76.03658536585367,130,4
375,0.05419921875,0.4921875,0.64990234375,30.60975609756098,-147.9878048780488,77.8658536585366,130,4
376,0.06982421875,0.4775390625,0.60986328125,30.54878048780488,-148.78048780487805,79.14634146341464,130,4
377,0.09033203125,0.466796875,0.6064453125,32.86585365853659,-150.91463414634148,79.93902439024392,130,4
378,0.08447265625,0.47705078125,0.6015625,36.707317073170735,-154.63414634146343,80.85365853658537,130,4
379,0.0986328125,0.486328125,0.580078125,40.91463414634147,-157.8048780487805,81.82926829268294,130,4
380,0.111328125,0.37646484375,0.56201171875,42.5609756097561,-160.2439024390244,82.01219512195122,130,4
381,0.1318359375,0.509765625,0.64208984375,37.926829268292686,-154.57317073170734,79.87804878048782,130,4
382,0.14208984375,0.4833984375,0.69091796875,19.32926829268293,-141.64634146341464,78.04878048780489,130,4
383,0.21240234375,0.5869140625,0.69677734375,3.9024390243902443,-132.9268292682927,79.69512195121952,130,4
384,0.1953125,0.564453125,0.66259765625,-1.3414634146341464,-131.70731707317074,80.91463414634147,130,4
385,0.1953125,0.5546875,0.61767578125,-15.365853658536587,-131.76829268292684,80.0609756097561,130,4
386,0.125,0.5478515625,0.60693359375,4.146341463414634,-135.2439024390244,79.93902439024392,130,4
387,0.2783203125,0.533203125,0.587890625,11.097560975609756,-141.15853658536588,80.2439024390244,130,4
388,0.271484375,0.5263671875,0.603515625,19.390243902439025,-146.95121951219514,80.97560975609757,130,4
389,0.25048828125,0.49560546875,0.61279296875,29.634146341463417,-151.21951219512195,82.50000000000001,130,4
390,0.23486328125,0.46923828125,0.50146484375,39.146341463414636,-152.7439024390244,83.35365853658537,130,4
391,0.24853515625,0.4453125,0.61767578125,40.73170731707317,-149.39024390243904,83.04878048780489,130,4
392,0.29443359375,0.45947265625,0.61669921875,38.41463414634147,-142.9268292682927,84.08536585365854,130,4
393,0.31689453125,0.47216796875,0.60791015625,31.402439024390247,-133.2317073170732,84.45121951219512,130,4
394,0.39892578125,0.53564453125,0.59375,26.89024390243903,-126.28048780487806,85.79268292682927,130,4
395,0.4267578125,0.5458984375,0.55859375,25.54878048780488,-123.41463414634147,87.19512195121952,130,4
396,0.45654296875,0.55078125,0.48095703125,25.54878048780488,-109.51219512195122,87.8658536585366,130,4
397,0.4658203125,0.5283203125,0.43115234375,25.0609756097561,-126.95121951219514,88.29268292682927,130,4
398,0.47900390625,0.52392578125,0.4189453125,24.451219512195124,-130.4268292682927,89.87804878048782,130,4
399,0.49267578125,0.52685546875,0.46826171875,24.390243902439025,-132.8658536585366,91.46341463414635,130,4
400,0.47119140625,0.501953125,0.5634765625,25.54878048780488,-135.1219512195122,95.00000000000001,130,4
401,0.42578125,0.4306640625,0.62841796875,30.731707317073173,-133.96341463414635,96.89024390243904,130,4
402,0.42919921875,0.40185546875,0.60546875,36.03658536585366,-132.6829268292683,97.8658536585366,130,4
403,0.47216796875,0.4052734375,0.53369140625,37.926829268292686,-127.50000000000001,95.3658536585366,130,4
404,0.46923828125,0.466796875,0.40087890625,30.121951219512198,-119.69512195121952,91.76829268292684,130,4
405,0.6533203125,0.5537109375,0.3984375,20.60975609756098,-113.78048780487806,92.25609756097562,130,4
406,0.66845703125,0.54541015625,0.35498046875,13.536585365853659,-112.56097560975611,94.02439024390245,130,4
407,0.63916015625,0.501953125,0.3076171875,10.060975609756099,-112.01219512195122,96.76829268292684,130,4
408,0.634765625,0.45947265625,0.26953125,7.25609756097561,-112.8048780487805,97.98780487804879,130,4
409,0.65380859375,0.46533203125,0.3212890625,6.890243902439025,-115.3048780487805,101.64634146341464,130,4
410,0.650390625,0.4326171875,0.2529296875,6.829268292682928,-117.31707317073172,104.75609756097562,130,4
411,0.615234375,0.38623046875,0.44873046875,9.390243902439025,-118.10975609756099,108.17073170731709,130,4
412,0.58642578125,0.375,0.47509765625,14.878048780487806,-117.56097560975611,108.78048780487806,130,4
413,0.615234375,0.369140625,0.4296875,16.52439024390244,-113.29268292682927,107.37804878048782,130,4
414,0.6962890625,0.40234375,0.36376953125,14.146341463414636,-110.06097560975611,104.81707317073172,130,4
415,0.73583984375,0.42529296875,0.27294921875,8.719512195121952,-105.91463414634147,102.56097560975611,130,4
416,0.7958984375,0.4677734375,0.2451171875,3.231707317073171,-102.6829268292683,102.19512195121952,130,4
417,0.7939453125,0.451171875,0.23828125,-1.3414634146341464,-101.46341463414635,101.82926829268294,130,4
418,0.7666015625,0.39501953125,0.2060546875,-3.231707317073171,-101.82926829268294,102.07317073170732,130,4
419,0.7568359375,0.37744140625,0.2099609375,-2.987804878048781,-103.84146341463415,103.47560975609757,130,4
420,0.7333984375,0.337890625,0.2197265625,-5.426829268292684,-103.23170731707317,105.1219512195122,130,4
421,0.7421875,0.35400390625,0.244140625,-7.134146341463415,-102.98780487804879,106.89024390243904,130,4
422,0.76123046875,0.35107421875,0.2568359375,-7.317073170731708,-102.98780487804879,107.37804878048782,130,4
423,0.7890625,0.32763671875,0.37060546875,-6.036585365853659,-103.35365853658537,106.46341463414635,130,4
424,0.818359375,0.33056640625,0.23876953125,-6.585365853658537,-100.48780487804879,102.98780487804879,130,4
425,0.8603515625,0.31884765625,0.24365234375,-7.073170731707318,-97.25609756097562,100.06097560975611,130,4
426,0.89111328125,0.318359375,0.212890625,-6.158536585365854,-95.67073170731709,96.34146341463415,130,4
427,0.8642578125,0.28955078125,0.14697265625,-3.963414634146342,-95.1219512195122,94.26829268292684,130,4
428,0.85400390625,0.27001953125,0.0947265625,-1.829268292682927,-95.48780487804879,94.51219512195122,130,4
429,0.84716796875,0.25146484375,0.05322265625,-1.0365853658536586,-95.1829268292683,93.78048780487806,130,4
430,0.830078125,0.216796875,0.11767578125,-3.048780487804878,-95.0609756097561,96.09756097560977,130,4
431,0.83154296875,0.21728515625,-0.02197265625,-10.792682926829269,-90.1829268292683,94.45121951219512,130,4
432,0.759765625,0.2724609375,0.02587890625,-18.231707317073173,-86.52439024390245,95.0609756097561,130,4
433,0.9326171875,0.30078125,0.07861328125,-23.04878048780488,-85.1829268292683,94.75609756097562,130,4
434,0.92529296875,0.26025390625,0.119140625,-26.463414634146343,-85.73170731707317,78.17073170731707,130,4
435,0.892578125,0.2177734375,0.1201171875,-26.463414634146343,-86.15853658536587,91.40243902439025,130,4
436,0.88671875,0.20556640625,0.12939453125,-22.439024390243905,-87.13414634146342,88.35365853658537,130,4
437,0.89697265625,0.19775390625,0.05859375,-19.390243902439025,-87.25609756097562,84.81707317073172,130,4
438,0.90283203125,0.19140625,0.00439453125,-19.634146341463417,-86.09756097560977,81.64634146341464,130,4
439,0.892578125,0.1923828125,-0.03076171875,-19.451219512195124,-85.3048780487805,79.08536585365854,130,4
440,0.88623046875,0.17431640625,-0.02685546875,-21.34146341463415,-82.98780487804879,76.46341463414635,130,4
441,0.99853515625,0.1572265625,-0.11572265625,-21.34146341463415,-82.31707317073172,74.02439024390245,130,4
442,0.845703125,0.11328125,0.0341796875,-17.5,-80.60975609756099,70.3048780487805,130,4
443,0.86572265625,0.138671875,0.05126953125,-11.097560975609756,-80.1219512195122,65.85365853658537,130,4
444,0.87548828125,0.15380859375,0.025390625,-6.2804878048780495,-77.5609756097561,61.21951219512196,130,4
445,0.89794921875,0.1865234375,-0.0078125,-5.914634146341464,-74.63414634146342,57.01219512195122,130,4
446,0.89892578125,0.208984375,-0.02294921875,-9.207317073170733,-69.69512195121952,52.743902439024396,130,4
447,0.90673828125,0.20263671875,-0.03369140625,-11.829268292682928,-64.69512195121952,50.00000000000001,130,4
448,0.87939453125,0.2041015625,-0.037109375,-13.597560975609758,-60.1219512195122,47.19512195121952,130,4
449,0.859375,0.18798828125,-0.02197265625,-12.865853658536587,-56.09756097560976,45.0609756097561,130,4
450,0.8623046875,0.19140625,0.0048828125,-11.219512195121952,-54.32926829268293,43.59756097560976,130,4
451,0.841796875,0.1552734375,0.11962890625,-9.817073170731708,-53.41463414634147,42.86585365853659,130,4
452,0.84375,0.1494140625,-0.0576171875,-9.02439024390244,-51.768292682926834,41.58536585365854,130,4
453,0.865234375,0.16552734375,-0.07080078125,-10.487804878048781,-47.987804878048784,40.0,130,4
454,0.91064453125,0.205078125,-0.0703125,-13.902439024390246,-43.59756097560976,38.71951219512196,130,4
455,0.9453125,0.2177734375,-0.0576171875,-18.53658536585366,-39.63414634146342,36.82926829268293,130,4
456,0.93017578125,0.19580078125,-0.06591796875,-21.158536585365855,-36.463414634146346,34.69512195121951,130,4
457,0.927734375,0.18896484375,-0.052734375,-22.621951219512198,-33.65853658536586,31.951219512195124,130,4
458,0.94384765625,0.19482421875,-0.03955078125,-24.085365853658537,-30.914634146341466,29.451219512195124,130,4
459,0.96044921875,0.1904296875,-0.03759765625,-27.012195121951223,-27.073170731707318,27.195121951219516,130,4
460,0.9697265625,0.177734375,-0.03369140625,-30.182926829268297,-23.04878048780488,24.146341463414636,130,4
461,0.97021484375,0.17724609375,-0.041015625,-32.13414634146342,-19.939024390243905,21.463414634146343,130,4
462,0.974609375,0.1611328125,-0.05126953125,-33.23170731707317,-18.475609756097562,18.658536585365855,130,4
463,0.96142578125,0.14599609375,-0.0908203125,-33.59756097560976,-16.402439024390244,14.878048780487806,130,4
464,0.97705078125,0.15576171875,-0.091796875,-34.63414634146342,-13.902439024390246,11.341463414634147,130,4
465,0.98486328125,0.1669921875,-0.07958984375,-35.91463414634147,-11.341463414634147,7.743902439024391,130,4
466,0.96923828125,0.1591796875,-0.072265625,-36.82926829268293,-8.170731707317074,3.9024390243902443,130,4
467,0.94775390625,0.1455078125,-0.0546875,-36.34146341463415,-5.609756097560976,0.1829268292682927,130,4
468,0.90380859375,0.12646484375,-0.0498046875,-35.85365853658537,-2.9268292682926833,-3.048780487804878,130,4
469,0.876953125,0.103515625,-0.0673828125,-34.81707317073171,0.426829268292683,-6.158536585365854,130,4
470,0.896484375,0.1240234375,-0.0625,-33.35365853658537,2.25609756097561,-9.26829268292683,130,4
471,0.8818359375,0.09619140625,-0.0888671875,-32.743902439024396,4.878048780487806,-11.52439024390244,130,4
472,0.85400390625,0.1005859375,-0.09765625,-33.78048780487805,7.134146341463415,-13.353658536585368,130,4
473,0.84912109375,0.09716796875,-0.12060546875,-34.268292682926834,9.756097560975611,-0.12195121951219513,130,4
474,0.859375,0.09765625,-0.00439453125,-34.93902439024391,12.01219512195122,-17.195121951219512,130,4
475,0.83740234375,0.09814453125,-0.1376953125,-36.15853658536586,14.26829268292683,-18.658536585365855,130,4
476,0.826171875,0.08447265625,-0.1474609375,-37.25609756097561,16.219512195121954,-20.121951219512198,130,4
477,0.81494140625,0.087890625,-0.150390625,-37.80487804878049,17.98780487804878,-21.219512195121954,130,4
478,0.802734375,0.07958984375,-0.1455078125,-37.6219512195122,19.085365853658537,-22.195121951219512,130,4
479,0.79833984375,0.0654296875,-0.15625,-37.07317073170732,20.0,-23.29268292682927,130,4
480,0.78369140625,0.0615234375,-0.15380859375,-35.97560975609756,20.243902439024392,-24.512195121951223,130,4
481,0.78759765625,0.06689453125,-0.1416015625,-34.75609756097561,19.634146341463417,-25.121951219512198,130,4
482,0.7841796875,0.05712890625,-0.18798828125,-33.04878048780488,19.02439024390244,-26.646341463414636,130,4
483,0.7841796875,0.0556640625,-0.18994140625,-32.13414634146342,19.02439024390244,-27.621951219512198,130,4
484,0.7890625,0.06982421875,-0.1806640625,-31.951219512195124,18.78048780487805,-27.865853658536587,130,4
485,0.78759765625,0.07177734375,-0.1923828125,-32.43902439024391,19.32926829268293,-27.80487804878049,130,4
486,0.77734375,0.05908203125,-0.197265625,-32.987804878048784,19.26829268292683,-27.987804878048784,130,4
487,0.77001953125,0.06396484375,-0.18310546875,-32.31707317073171,19.146341463414636,-28.170731707317074,130,4
488,0.76611328125,0.05322265625,-0.17822265625,-31.82926829268293,18.719512195121954,-28.53658536585366,130,4
489,0.75927734375,0.05078125,-0.185546875,-31.158536585365855,18.53658536585366,-28.963414634146343,130,4
490,0.7451171875,0.04345703125,-0.1806640625,-30.365853658536587,17.865853658536587,-29.32926829268293,130,4
491,0.74951171875,0.037109375,-0.203125,-29.26829268292683,31.09756097560976,-29.573170731707318,130,4
492,0.7353515625,0.0263671875,-0.232421875,-28.53658536585366,14.756097560975611,-30.182926829268297,130,4
493,0.73046875,0.03173828125,-0.2275390625,-28.53658536585366,14.451219512195124,-30.121951219512198,130,4
494,0.74853515625,0.04443359375,-0.22607421875,-29.573170731707318,14.51219512195122,-30.000000000000004,130,4
495,0.7578125,0.0380859375,-0.2197265625,-31.52439024390244,14.634146341463415,-29.39024390243903,130,4
496,0.73828125,0.021484375,-0.21630859375,-32.13414634146342,13.597560975609758,-29.08536585365854,130,4
497,0.72265625,0.01025390625,-0.228515625,-32.01219512195122,13.170731707317074,-28.963414634146343,130,4
498,0.72509765625,0.0185546875,-0.20556640625,-31.34146341463415,12.256097560975611,-28.59756097560976,130,4
499,0.72802734375,0.02685546875,-0.19287109375,-31.402439024390247,11.585365853658537,-28.170731707317074,130,4
