,Ax,Ay,Az,Gx,Gy,Gz,distance,shot_type
0,0.6748046875,-0.46728515625,-0.37890625,5.975609756097562,5.7926829268292686,-1.7682926829268295,145,6
1,0.6796875,-0.474609375,-0.37646484375,5.7926829268292686,6.585365853658537,-1.524390243902439,145,6
2,0.673828125,-0.47216796875,-0.37158203125,5.121951219512195,7.560975609756098,-1.402439024390244,145,6
3,0.68115234375,-0.4716796875,-0.3466796875,4.75609756097561,8.109756097560977,-1.4634146341463417,145,6
4,0.68701171875,-0.45947265625,-0.3359375,4.939024390243903,8.658536585365855,-0.9146341463414634,145,6
5,0.6796875,-0.45458984375,-0.33544921875,5.609756097560976,9.02439024390244,-1.0975609756097562,145,6
6,0.68212890625,-0.44970703125,-0.34375,6.036585365853659,8.841463414634147,-1.4634146341463417,145,6
7,0.6982421875,-0.44384765625,-0.25341796875,6.402439024390245,6.463414634146342,-1.7682926829268295,145,6
8,0.67529296875,-0.46240234375,-0.39404296875,7.865853658536586,6.097560975609756,-2.8658536585365857,145,6
9,0.6875,-0.4482421875,-0.38623046875,8.902439024390244,5.975609756097562,-4.2682926829268295,145,6
10,0.69091796875,-0.43115234375,-0.35791015625,9.451219512195122,5.7926829268292686,-5.365853658536586,145,6
11,0.68017578125,-0.44384765625,-0.35302734375,10.0,4.939024390243903,-5.487804878048781,145,6
12,0.66162109375,-0.45263671875,-0.33740234375,10.060975609756099,4.573170731707317,-5.0,145,6
13,0.65478515625,-0.4443359375,-0.3271484375,9.51219512195122,4.634146341463415,-4.390243902439025,145,6
14,0.646484375,-0.43505859375,-0.3173828125,8.414634146341465,5.487804878048781,-3.9024390243902443,145,6
15,0.6455078125,-0.43994140625,-0.314453125,7.500000000000001,6.402439024390245,-3.536585365853659,145,6
16,0.6376953125,-0.458984375,-0.3154296875,8.78048780487805,4.75609756097561,-3.353658536585366,145,6
17,0.626953125,-0.48193359375,-0.3623046875,11.28048780487805,2.8658536585365857,-3.658536585365854,145,6
18,0.63720703125,-0.47802734375,-0.25830078125,13.109756097560977,1.402439024390244,-4.207317073170732,145,6
19,0.6630859375,-0.4716796875,-0.384765625,15.243902439024392,-0.5487804878048781,-4.451219512195122,145,6
20,0.66357421875,-0.6240234375,-0.404296875,16.158536585365855,-0.7317073170731708,-4.329268292682928,145,6
21,0.67822265625,-0.5048828125,-0.42626953125,13.29268292682927,0.48780487804878053,-3.8414634146341466,145,6
22,0.65771484375,-0.537109375,-0.4267578125,9.207317073170733,2.8658536585365857,-2.804878048780488,145,6
23,0.61572265625,-0.57080078125,-0.49951171875,6.585365853658537,5.7926829268292686,-4.51219512195122,145,6
24,0.6640625,-0.50927734375,-0.3427734375,5.731707317073171,6.2804878048780495,-5.426829268292684,145,6
25,0.66845703125,-0.4970703125,-0.3212890625,5.670731707317073,5.853658536585367,-5.182926829268293,145,6
26,0.64697265625,-0.51318359375,-0.34521484375,4.817073170731708,4.939024390243903,-5.365853658536586,145,6
27,0.62646484375,-0.5380859375,-0.35888671875,4.75609756097561,3.414634146341464,-4.695121951219512,145,6
28,0.61181640625,-0.541015625,-0.359375,6.585365853658537,-0.9756097560975611,-3.658536585365854,145,6
29,0.6083984375,-0.54931640625,-0.39208984375,9.451219512195122,-3.4756097560975614,-2.7439024390243905,145,6
30,0.62060546875,-0.55859375,-0.421875,10.853658536585368,-4.329268292682928,-1.7682926829268295,145,6
31,0.630859375,-0.544921875,-0.44873046875,10.548780487804878,-3.7195121951219514,-1.0365853658536586,145,6
32,0.65185546875,-0.5361328125,-0.43017578125,9.451219512195122,-2.7439024390243905,-0.7926829268292683,145,6
33,0.6708984375,-0.51611328125,-0.40283203125,8.475609756097562,-1.3414634146341464,-1.2804878048780488,145,6
34,0.669921875,-0.505859375,-0.38330078125,7.743902439024391,-0.7317073170731708,-1.7682926829268295,145,6
35,0.658203125,-0.50634765625,-0.380859375,7.25609756097561,-1.0365853658536586,-2.3170731707317076,145,6
36,0.65625,-0.51806640625,-0.2509765625,7.743902439024391,-0.9756097560975611,-2.439024390243903,145,6
37,0.6328125,-0.517578125,-0.34423828125,8.841463414634147,-1.829268292682927,-2.378048780487805,145,6
38,0.74951171875,-0.51025390625,-0.32763671875,9.878048780487806,-2.6219512195121952,-2.25609756097561,145,6
39,0.63037109375,-0.5009765625,-0.310546875,9.695121951219512,-2.3170731707317076,-1.829268292682927,145,6
40,0.6435546875,-0.4814453125,-0.3017578125,9.695121951219512,-3.963414634146342,-1.6463414634146343,145,6
41,0.64697265625,-0.470703125,-0.314453125,11.097560975609756,-4.878048780487806,-1.8902439024390245,145,6
42,0.6689453125,-0.45458984375,-0.314453125,13.475609756097562,-6.2804878048780495,-2.073170731707317,145,6
43,0.68798828125,-0.4404296875,-0.322265625,14.329268292682928,-5.609756097560976,-3.1097560975609757,145,6
44,0.72314453125,-0.40771484375,-0.31787109375,14.207317073170733,-4.51219512195122,-3.963414634146342,145,6
45,0.7255859375,-0.4072265625,-0.31298828125,13.536585365853659,-3.658536585365854,-5.182926829268293,145,6
46,0.7216796875,-0.41357421875,-0.2861328125,14.26829268292683,-3.048780487804878,-6.036585365853659,145,6
47,0.70947265625,-0.427734375,-0.294921875,14.817073170731708,-2.8658536585365857,-6.341463414634147,145,6
48,0.681640625,-0.45703125,-0.28076171875,15.182926829268293,-2.25609756097561,-6.585365853658537,145,6
49,0.6767578125,-0.46044921875,-0.2822265625,15.609756097560977,-1.6463414634146343,-6.402439024390245,145,6
50,0.69384765625,-0.44677734375,-0.296875,14.573170731707318,-15.426829268292684,-6.219512195121951,145,6
51,0.69140625,-0.43310546875,-0.29638671875,14.390243902439027,1.524390243902439,-5.2439024390243905,145,6
52,0.6796875,-0.4541015625,-0.30859375,14.02439024390244,2.9268292682926833,-4.573170731707317,145,6
53,0.68359375,-0.4521484375,-0.33056640625,12.560975609756099,5.2439024390243905,-3.963414634146342,145,6
54,0.7080078125,-0.44921875,-0.3544921875,9.02439024390244,7.378048780487806,-3.2926829268292686,145,6
55,0.70947265625,-0.4609375,-0.37646484375,6.7682926829268295,9.329268292682928,-2.439024390243903,145,6
56,0.69677734375,-0.4853515625,-0.498046875,5.3048780487804885,11.219512195121952,-2.073170731707317,145,6
57,0.69189453125,-0.4970703125,-0.3515625,4.939024390243903,11.890243902439025,-2.073170731707317,145,6
58,0.68310546875,-0.49658203125,-0.3310546875,5.060975609756098,11.829268292682928,-1.9512195121951221,145,6
59,0.67041015625,-0.515625,-0.31005859375,7.743902439024391,9.573170731707318,-1.5853658536585367,145,6
60,0.63720703125,-0.5478515625,-0.2890625,11.646341463414634,6.7682926829268295,-1.2195121951219514,145,6
61,0.6328125,-0.55224609375,-0.294921875,14.02439024390244,5.7926829268292686,-1.5853658536585367,145,6
62,0.64599609375,-0.5283203125,-0.31103515625,14.085365853658537,6.158536585365854,-1.2195121951219514,145,6
63,0.65185546875,-0.5146484375,-0.32666015625,13.170731707317074,7.134146341463415,-1.4634146341463417,145,6
64,0.64404296875,-0.50537109375,-0.32958984375,13.231707317073171,6.585365853658537,-1.4634146341463417,145,6
65,0.6416015625,-0.533203125,-0.34716796875,12.987804878048781,7.682926829268293,-1.7682926829268295,145,6
66,0.6474609375,-0.53271484375,-0.35693359375,12.317073170731708,8.353658536585366,-1.829268292682927,145,6
67,0.6513671875,-0.53125,-0.3662109375,12.500000000000002,7.8048780487804885,-1.402439024390244,145,6
68,0.626953125,-0.560546875,-0.36083984375,13.841463414634148,6.7682926829268295,-0.7317073170731708,145,6
69,0.6298828125,-0.56298828125,-0.35595703125,15.487804878048783,5.670731707317073,-0.06097560975609757,145,6
70,0.62255859375,-0.5703125,-0.36962890625,16.219512195121954,3.8414634146341466,0.48780487804878053,145,6
71,0.63037109375,-0.5458984375,-0.25732421875,19.451219512195124,0.1829268292682927,0.48780487804878053,145,6
72,0.62939453125,-0.5380859375,-0.25244140625,22.98780487804878,-2.5,1.6463414634146343,145,6
73,0.64013671875,-0.53662109375,-0.25732421875,23.10975609756098,-2.8658536585365857,1.8902439024390245,145,6
74,0.6552734375,-0.50048828125,-0.40771484375,20.853658536585368,-2.1341463414634148,1.829268292682927,145,6
75,0.67333984375,-0.4560546875,-0.4140625,17.804878048780488,-0.12195121951219513,2.3170731707317076,145,6
76,0.67578125,-0.45166015625,-0.41748046875,12.865853658536587,3.353658536585366,2.3170731707317076,145,6
77,0.6982421875,-0.43212890625,-0.4072265625,7.378048780487806,7.500000000000001,2.6219512195121952,145,6
78,0.69091796875,-0.43359375,-0.38427734375,2.682926829268293,10.060975609756099,2.1951219512195124,145,6
79,0.6806640625,-0.45458984375,-0.3740234375,0.7317073170731708,10.670731707317074,2.439024390243903,145,6
80,0.66552734375,-0.4638671875,-0.37451171875,0.12195121951219513,10.30487804878049,2.439024390243903,145,6
81,0.671875,-0.4658203125,-0.3818359375,0.24390243902439027,10.182926829268293,2.682926829268293,145,6
82,0.66015625,-0.49267578125,-0.3408203125,1.402439024390244,9.390243902439025,3.231707317073171,145,6
83,0.6484375,-0.51025390625,-0.33447265625,2.378048780487805,8.109756097560977,3.1097560975609757,145,6
84,0.65234375,-0.50830078125,-0.326171875,5.121951219512195,6.158536585365854,2.9268292682926833,145,6
85,0.642578125,-0.51611328125,-0.330078125,7.8048780487804885,4.2682926829268295,3.1707317073170733,145,6
86,0.6484375,-0.51806640625,-0.35302734375,9.573170731707318,2.987804878048781,2.8658536585365857,145,6
87,0.68115234375,-0.48681640625,-0.34326171875,10.182926829268293,2.8658536585365857,2.804878048780488,145,6
88,0.69140625,-0.49072265625,-0.35205078125,8.78048780487805,4.634146341463415,2.7439024390243905,145,6
89,0.71435546875,-0.47802734375,-0.32177734375,7.01219512195122,7.378048780487806,2.6219512195121952,145,6
90,0.72216796875,-0.47216796875,-0.298828125,4.2682926829268295,10.426829268292684,2.1341463414634148,145,6
91,0.71728515625,-0.47607421875,-0.27587890625,1.7682926829268295,12.439024390243903,2.1951219512195124,145,6
92,0.69287109375,-0.49560546875,-0.271484375,0.6707317073170732,12.987804878048781,2.5609756097560976,145,6
93,0.6796875,-0.51513671875,-0.2578125,1.707317073170732,12.621951219512196,3.231707317073171,145,6
94,0.67041015625,-0.5263671875,-0.25390625,1.8902439024390245,13.04878048780488,3.231707317073171,145,6
95,0.68017578125,-0.5263671875,-0.23095703125,2.3170731707317076,13.719512195121952,3.353658536585366,145,6
96,0.6826171875,-0.52294921875,-0.21923828125,2.9268292682926833,14.207317073170733,3.658536585365854,145,6
97,0.689453125,-0.52880859375,-0.208984375,4.451219512195122,14.695121951219514,3.2926829268292686,145,6
98,0.68701171875,-0.53857421875,-0.208984375,5.3048780487804885,15.000000000000002,3.048780487804878,145,6
99,0.71533203125,-0.5078125,-0.21337890625,5.7926829268292686,16.28048780487805,3.1097560975609757,145,6
100,0.71923828125,-0.5107421875,-0.203125,7.195121951219513,16.52439024390244,2.804878048780488,145,6
101,0.70458984375,-0.53515625,-0.22509765625,9.26829268292683,16.28048780487805,2.8658536585365857,145,6
102,0.6943359375,-0.533203125,-0.37451171875,11.219512195121952,17.012195121951223,2.5,145,6
103,0.70166015625,-0.5390625,-0.2177734375,11.52439024390244,19.146341463414636,2.378048780487805,145,6
104,0.703125,-0.5341796875,-0.2060546875,10.487804878048781,22.25609756097561,2.5609756097560976,145,6
105,0.68701171875,-0.5419921875,-0.18798828125,8.414634146341465,26.219512195121954,2.8658536585365857,145,6
106,0.6640625,-0.5654296875,-0.17041015625,6.52439024390244,30.243902439024392,3.5975609756097566,145,6
107,0.642578125,-0.58154296875,-0.14599609375,5.731707317073171,33.41463414634146,4.695121951219512,145,6
108,0.62109375,-0.599609375,-0.17724609375,6.402439024390245,34.08536585365854,5.609756097560976,145,6
109,0.63671875,-0.56689453125,-0.1748046875,8.170731707317074,36.03658536585366,7.439024390243903,145,6
110,0.64013671875,-0.5576171875,-0.1611328125,8.292682926829269,39.32926829268293,8.170731707317074,145,6
111,0.65087890625,-0.564453125,-0.16162109375,7.500000000000001,43.04878048780488,8.902439024390244,145,6
112,0.646484375,-0.529296875,-0.1865234375,6.158536585365854,47.804878048780495,9.695121951219512,145,6
113,0.66162109375,-0.50732421875,-0.21826171875,5.060975609756098,51.09756097560976,10.24390243902439,145,6
114,0.67236328125,-0.4873046875,-0.2578125,15.060975609756099,56.82926829268293,10.182926829268293,145,6
115,0.70068359375,-0.43994140625,-0.3037109375,-10.853658536585368,63.78048780487806,8.963414634146343,145,6
116,0.7177734375,-0.3837890625,-0.2978515625,-19.390243902439025,71.34146341463415,8.475609756097562,145,6
117,0.7255859375,-0.3916015625,-0.31103515625,-16.52439024390244,80.1829268292683,8.902439024390244,145,6
118,0.74658203125,-0.34228515625,-0.33984375,-46.58536585365854,91.21951219512196,8.231707317073171,145,6
119,0.77392578125,-0.29736328125,-0.36328125,-66.15853658536587,100.73170731707317,7.987804878048781,145,6
120,0.7705078125,-0.287109375,-0.3369140625,-75.0609756097561,104.08536585365854,10.670731707317074,145,6
121,0.74755859375,-0.36181640625,-0.2158203125,-83.47560975609757,109.20731707317074,0.1829268292682927,145,6
122,0.72216796875,-0.40087890625,-0.212890625,-93.23170731707317,113.29268292682927,17.073170731707318,145,6
123,0.7177734375,-0.3994140625,-0.18994140625,-105.67073170731709,118.65853658536587,18.414634146341466,145,6
124,0.705078125,-0.3857421875,-0.1708984375,-114.08536585365854,117.07317073170732,17.98780487804878,145,6
125,0.70947265625,-0.43359375,-0.17822265625,-112.31707317073172,112.8658536585366,18.414634146341466,145,6
126,0.6591796875,-0.3798828125,-0.2255859375,-102.37804878048782,103.96341463414635,18.414634146341466,145,6
127,0.634765625,-0.5126953125,-0.29150390625,-88.84146341463415,90.73170731707317,17.134146341463417,145,6
128,0.5048828125,-0.42822265625,-0.30224609375,-76.46341463414635,80.1219512195122,17.012195121951223,145,6
129,0.64697265625,-0.3486328125,-0.26806640625,-68.47560975609757,71.15853658536587,15.426829268292684,145,6
130,0.67724609375,-0.2861328125,-0.28125,-69.81707317073172,68.90243902439025,14.02439024390244,145,6
131,0.71484375,-0.2080078125,-0.30029296875,-73.96341463414635,68.59756097560977,11.219512195121952,145,6
132,0.75439453125,-0.14599609375,-0.31884765625,-62.6219512195122,67.5609756097561,8.719512195121952,145,6
133,0.8740234375,-0.0986328125,-0.34619140625,-78.65853658536587,64.9390243902439,5.426829268292684,145,6
134,0.7880859375,-0.05810546875,-0.39892578125,-81.34146341463415,77.8658536585366,2.5609756097560976,145,6
135,0.79443359375,-0.02734375,-0.486328125,-83.23170731707317,59.207317073170735,-2.378048780487805,145,6
136,0.818359375,-0.0146484375,-0.62255859375,-87.31707317073172,60.487804878048784,-5.487804878048781,145,6
137,0.8330078125,0.0009765625,-0.42578125,-94.32926829268294,46.89024390243903,-8.902439024390244,145,6
138,0.8251953125,-0.02783203125,-0.49365234375,-102.50000000000001,64.87804878048782,-11.52439024390244,145,6
139,0.7900390625,-0.05419921875,-0.46875,-109.08536585365854,66.28048780487805,-13.78048780487805,145,6
140,0.765625,-0.07861328125,-0.46142578125,-112.25609756097562,66.09756097560977,-16.76829268292683,145,6
141,0.77197265625,-0.0810546875,-0.498046875,-114.02439024390245,62.50000000000001,-19.634146341463417,145,6
142,0.7890625,-0.048828125,-0.5224609375,-116.58536585365854,60.426829268292686,-23.963414634146343,145,6
143,0.826171875,-0.00341796875,-0.51318359375,-121.21951219512196,58.71951219512196,-28.414634146341466,145,6
144,0.8515625,0.123046875,-0.53662109375,-126.21951219512196,59.146341463414636,-32.743902439024396,145,6
145,0.82080078125,-0.037109375,-0.53662109375,-130.97560975609758,58.963414634146346,-36.890243902439025,145,6
146,0.8017578125,-0.115234375,-0.55615234375,-133.59756097560978,57.31707317073171,-43.04878048780488,145,6
147,0.861328125,0.080078125,-0.53369140625,-140.1219512195122,60.1829268292683,-49.51219512195122,145,6
148,0.9091796875,0.1044921875,-0.52294921875,-151.15853658536588,62.50000000000001,-54.87804878048781,145,6
149,0.88330078125,0.0400390625,-0.5107421875,-160.0609756097561,63.23170731707317,-58.47560975609757,145,6
150,0.83837890625,-0.02783203125,-0.48046875,-164.02439024390245,63.17073170731708,-62.13414634146342,145,6
151,0.84765625,-0.021484375,-0.4580078125,-164.63414634146343,61.95121951219513,-66.52439024390245,145,6
152,0.86328125,-0.0009765625,-0.46240234375,-166.70731707317074,60.426829268292686,-70.97560975609757,145,6
153,0.87109375,0.02099609375,-0.47265625,-167.31707317073173,58.10975609756098,-75.3658536585366,145,6
154,0.90234375,0.0341796875,-0.50341796875,-166.09756097560978,52.86585365853659,-80.73170731707317,145,6
155,0.9638671875,0.01220703125,-0.5185546875,-169.63414634146343,52.6829268292683,-87.37804878048782,145,6
156,1.03125,0.1728515625,-0.52099609375,-179.63414634146343,57.13414634146342,-78.10975609756099,145,6
157,1.0869140625,0.16796875,-0.5126953125,-188.65853658536588,59.81707317073171,-99.39024390243904,145,6
158,1.11083984375,0.1337890625,-0.5126953125,-196.03658536585368,46.89024390243903,-104.26829268292684,145,6
159,1.1142578125,0.09521484375,-0.5078125,-200.6707317073171,64.51219512195122,-109.87804878048782,145,6
160,1.15234375,0.115234375,-0.47412109375,-187.37804878048783,65.85365853658537,-115.2439024390244,145,6
161,1.18603515625,0.24951171875,-0.43701171875,-203.78048780487808,67.25609756097562,-121.03658536585367,145,6
162,1.23779296875,0.146484375,-0.4423828125,-205.4878048780488,68.84146341463415,-126.76829268292684,145,6
163,1.2548828125,0.154296875,-0.42724609375,-206.76829268292684,69.08536585365854,-131.89024390243904,145,6
164,1.25439453125,0.1435546875,-0.44482421875,-206.15853658536588,69.02439024390245,-137.13414634146343,145,6
165,1.28369140625,0.17236328125,-0.408203125,-203.2926829268293,68.78048780487805,-143.71951219512195,145,6
166,1.35791015625,0.23583984375,-0.45458984375,-199.51219512195124,67.43902439024392,-151.46341463414635,145,6
167,1.43310546875,0.314453125,-0.45751953125,-202.9268292682927,70.91463414634147,-158.41463414634148,145,6
168,1.47021484375,0.326171875,-0.486328125,-211.82926829268294,74.08536585365854,-166.09756097560978,145,6
169,1.5244140625,0.34912109375,-0.4697265625,-203.47560975609758,80.79268292682927,-174.51219512195124,145,6
170,1.55859375,0.33154296875,-0.44091796875,-223.59756097560978,85.48780487804879,-180.6707317073171,145,6
171,1.5791015625,0.322265625,-0.416015625,-223.71951219512198,87.37804878048782,-186.09756097560978,145,6
172,1.5810546875,0.2763671875,-0.43359375,-221.46341463414637,88.29268292682927,-190.4878048780488,145,6
173,1.55712890625,0.21142578125,-0.404296875,-215.5487804878049,88.65853658536587,-194.02439024390245,145,6
174,1.568359375,0.208984375,-0.349609375,-206.76829268292684,88.84146341463415,-197.8048780487805,145,6
175,1.6015625,0.1259765625,-0.31689453125,-199.20731707317074,87.8658536585366,-202.62195121951223,145,6
176,1.67919921875,0.34033203125,-0.31201171875,-193.90243902439025,87.6219512195122,-207.07317073170734,145,6
177,1.73193359375,0.37109375,-0.3125,-192.8658536585366,88.29268292682927,-213.41463414634148,145,6
178,1.794921875,0.4287109375,-0.3447265625,-191.09756097560978,90.42682926829269,-220.4878048780488,145,6
179,1.84326171875,0.45166015625,-0.31494140625,-191.21951219512198,92.6829268292683,-226.15853658536588,145,6
180,1.75146484375,0.43408203125,-0.29833984375,-189.57317073170734,95.54878048780489,-232.68292682926833,145,6
181,1.91796875,0.4853515625,-0.373046875,-185.85365853658539,96.21951219512196,-238.90243902439028,145,6
182,1.962890625,0.48779296875,-0.2275390625,-182.31707317073173,96.70731707317074,-244.26829268292684,145,6
183,1.98681640625,0.44775390625,-0.23876953125,-178.90243902439025,96.52439024390245,-248.71951219512198,145,6
184,1.9990234375,0.453125,-0.20263671875,-173.53658536585368,99.14634146341464,-254.32926829268294,145,6
185,2.0625,0.49072265625,-0.16259765625,-168.65853658536588,99.87804878048782,-258.6585365853659,145,6
186,2.103515625,0.6201171875,-0.13818359375,-166.82926829268294,102.92682926829269,-263.109756097561,145,6
187,2.12255859375,0.47705078125,-0.142578125,-162.9878048780488,103.17073170731709,-266.70731707317077,145,6
188,2.1142578125,0.4541015625,-0.15478515625,-156.40243902439025,104.63414634146342,-271.5853658536586,145,6
189,2.12548828125,0.46337890625,-0.1259765625,-149.93902439024393,105.2439024390244,-275.8536585365854,145,6
190,2.12060546875,0.43212890625,-0.15234375,-148.96341463414635,107.56097560975611,-265.4878048780488,145,6
191,2.1142578125,0.40966796875,-0.15771484375,-147.5,109.75609756097562,-284.75609756097566,145,6
192,2.0810546875,0.3935546875,-0.10498046875,-145.7926829268293,111.70731707317074,-288.4756097560976,145,6
193,2.09912109375,0.3798828125,-0.046875,-142.8048780487805,115.2439024390244,-292.5609756097561,145,6
194,2.09814453125,0.3828125,0.01611328125,-141.28048780487805,117.50000000000001,-293.7804878048781,145,6
195,2.041015625,0.32666015625,0.0126953125,-140.3048780487805,121.09756097560977,-295.1219512195122,145,6
196,1.984375,0.29638671875,0.0537109375,-135.6707317073171,123.53658536585367,-297.37804878048786,145,6
197,1.93994140625,0.27587890625,0.1220703125,-127.8658536585366,123.84146341463416,-299.69512195121956,145,6
198,1.89501953125,0.23828125,0.111328125,-119.32926829268294,122.37804878048782,-301.0365853658537,145,6
199,1.8515625,0.2109375,0.08740234375,-112.98780487804879,122.92682926829269,-301.82926829268297,145,6
200,1.7783203125,0.14599609375,0.04638671875,-124.63414634146342,123.78048780487806,-303.719512195122,145,6
201,1.72705078125,0.0888671875,0.01708984375,-102.92682926829269,124.93902439024392,-305.1829268292683,145,6
202,1.6513671875,0.01953125,-0.04541015625,-97.8048780487805,124.81707317073172,-306.76829268292687,145,6
203,1.568359375,-0.0185546875,-0.03173828125,-90.73170731707317,124.02439024390245,-306.95121951219517,145,6
204,1.6201171875,-0.078125,-0.0224609375,-85.2439024390244,122.01219512195124,-305.4268292682927,145,6
205,1.38330078125,-0.1884765625,-0.017578125,-77.01219512195122,120.00000000000001,-303.8414634146342,145,6
206,1.30419921875,-0.28076171875,-0.0107421875,-66.34146341463415,115.12195121951221,-301.5853658536586,145,6
207,1.20849609375,-0.2646484375,0.01953125,-52.987804878048784,108.71951219512196,-312.01219512195127,145,6
208,1.0927734375,-0.455078125,0.072265625,-37.987804878048784,104.02439024390245,-290.7926829268293,145,6
209,1.119140625,-0.51220703125,0.06982421875,-23.963414634146343,99.26829268292684,-284.8780487804878,145,6
210,0.90087890625,-0.52490234375,0.052734375,-18.475609756097562,93.17073170731707,-277.19512195121956,145,6
211,0.7998046875,-0.56005859375,0.07666015625,-17.743902439024392,88.59756097560977,-269.1463414634147,145,6
212,0.6865234375,-0.5029296875,0.115234375,-19.390243902439025,88.47560975609757,-259.32926829268297,145,6
213,0.56103515625,-0.69677734375,0.14599609375,-25.975609756097562,89.75609756097562,-247.9878048780488,145,6
214,0.3896484375,-0.76123046875,0.14208984375,-35.73170731707317,92.50000000000001,-239.26829268292684,145,6
215,0.27880859375,-0.826171875,0.1640625,-42.43902439024391,96.34146341463415,-229.39024390243904,145,6
216,0.20263671875,-0.76171875,0.22119140625,-45.243902439024396,95.91463414634147,-215.97560975609758,145,6
217,0.07470703125,-1.04638671875,0.36279296875,-46.707317073170735,95.2439024390244,-203.90243902439025,145,6
218,-0.04443359375,-1.1552734375,0.19140625,-45.1829268292683,96.64634146341464,-190.91463414634148,145,6
219,-0.1572265625,-1.2080078125,0.18505859375,-45.487804878048784,97.43902439024392,-175.6707317073171,145,6
220,-0.33251953125,-1.29443359375,0.16650390625,-46.524390243902445,94.32926829268294,-157.8048780487805,145,6
221,-0.4208984375,-1.34228515625,0.1376953125,-48.47560975609756,92.50000000000001,-156.03658536585368,145,6
222,-0.51953125,-1.43115234375,0.0947265625,-51.21951219512196,91.34146341463415,-118.90243902439025,145,6
223,-0.65869140625,-1.552734375,0.12353515625,-49.69512195121952,89.81707317073172,-96.21951219512196,145,6
224,-0.74853515625,-1.64013671875,0.06201171875,-42.43902439024391,85.79268292682927,-73.04878048780489,145,6
225,-0.6259765625,-1.69873046875,0.1494140625,-34.81707317073171,78.90243902439025,-50.243902439024396,145,6
226,-0.7236328125,-1.73583984375,0.14599609375,-28.475609756097562,73.71951219512195,-26.76829268292683,145,6
227,-0.6064453125,-1.7783203125,0.1416015625,-24.451219512195124,67.8658536585366,-5.2439024390243905,145,6
228,-0.58642578125,-1.87255859375,0.0654296875,-18.658536585365855,60.1219512195122,0.6097560975609757,145,6
229,-0.59375,-1.9296875,-0.03759765625,-8.536585365853659,49.451219512195124,38.59756097560976,145,6
230,-0.51318359375,-2.04248046875,-0.0556640625,6.829268292682928,40.1829268292683,60.91463414634147,145,6
231,-0.5166015625,-2.06396484375,-0.115234375,20.79268292682927,27.926829268292686,84.32926829268294,145,6
232,-0.56689453125,-2.06396484375,-0.21435546875,30.121951219512198,16.097560975609756,94.08536585365854,145,6
233,-0.61083984375,-2.0830078125,-0.21484375,34.63414634146342,6.2804878048780495,136.21951219512195,145,6
234,-0.34521484375,-2.12646484375,-0.29638671875,37.987804878048784,-1.829268292682927,161.76829268292684,145,6
235,-0.25146484375,-2.1640625,-0.37451171875,41.82926829268293,-11.158536585365855,173.47560975609758,145,6
236,-0.18701171875,-2.23779296875,-0.41943359375,47.07317073170732,-20.0,217.07317073170734,145,6
237,-0.10888671875,-2.30859375,-0.45361328125,52.987804878048784,-28.231707317073173,245.6707317073171,145,6
238,0.00830078125,-2.37060546875,-0.4912109375,57.804878048780495,-36.21951219512196,275.609756097561,145,6
239,0.1650390625,-2.4541015625,-0.5205078125,60.243902439024396,-42.926829268292686,303.0487804878049,145,6
240,0.28466796875,-2.38623046875,-0.57373046875,65.1829268292683,-50.426829268292686,332.6219512195122,145,6
241,0.5185546875,-2.67529296875,-0.60546875,72.7439024390244,-58.65853658536586,364.0853658536586,145,6
242,0.8291015625,-2.92919921875,-0.6552734375,80.73170731707317,-65.97560975609757,396.82926829268297,145,6
243,1.0849609375,-3.14794921875,-0.626953125,89.93902439024392,-77.6219512195122,430.609756097561,145,6
244,1.2626953125,-3.43701171875,-0.96728515625,106.34146341463416,-90.73170731707317,465.5487804878049,145,6
245,1.67236328125,-3.69580078125,-1.220703125,130.5487804878049,-105.1829268292683,504.20731707317077,145,6
246,2.18359375,-3.95458984375,-1.63037109375,160.3048780487805,-118.90243902439025,545.3048780487806,145,6
247,2.83740234375,-4.158203125,-1.884765625,189.02439024390245,-132.8048780487805,582.5609756097562,145,6
248,3.43798828125,-4.2451171875,-2.2197265625,259.8780487804878,-143.1707317073171,613.4146341463415,145,6
249,4.2705078125,-4.3818359375,-2.26513671875,324.93902439024396,-143.65853658536588,645.3658536585366,145,6
250,5.14111328125,-4.51708984375,-2.03662109375,396.76829268292687,-136.76829268292684,676.7073170731708,145,6
251,5.89697265625,-4.7958984375,-1.98876953125,449.20731707317077,-121.64634146341464,714.8170731707318,145,6
252,6.9189453125,-4.84130859375,-1.869140625,476.4024390243903,-99.87804878048782,758.5365853658537,145,6
253,7.81494140625,-4.7314453125,-2.341796875,526.0975609756098,-101.40243902439025,818.2317073170732,145,6
254,8.57275390625,-4.92822265625,-3.2548828125,519.8780487804878,-101.95121951219512,842.9878048780489,145,6
255,9.54833984375,-4.4453125,-4.3125,535.2439024390244,-77.19512195121952,882.9878048780489,145,6
256,10.8583984375,-3.38427734375,-4.47509765625,537.1341463414634,-31.82926829268293,919.7560975609757,145,6
257,11.443359375,-2.6064453125,-4.5751953125,520.0609756097562,-79.26829268292684,962.3170731707318,145,6
258,11.7275390625,-1.857421875,-5.7412109375,508.9024390243903,-141.70731707317074,994.6951219512196,145,6
259,11.5224609375,-1.12060546875,-7.06103515625,548.9024390243903,-190.6707317073171,1006.9512195121952,145,6
260,10.7451171875,-1.07763671875,-8.02197265625,656.829268292683,-293.9024390243903,990.548780487805,145,6
261,9.669921875,-1.40478515625,-7.71337890625,830.1829268292684,-365.1829268292683,924.2682926829269,145,6
262,8.56640625,-2.11083984375,-6.638671875,1067.378048780488,-501.5243902439025,856.6463414634147,145,6
263,7.40576171875,-3.38720703125,-6.5390625,1252.8658536585367,-674.8170731707318,719.5121951219513,145,6
264,7.453125,-3.865234375,-12.55908203125,1041.6463414634147,-961.4024390243903,644.5731707317074,145,6
265,15.99951171875,-6.54541015625,-2.0927734375,590.9146341463415,-7.743902439024391,132.9878048780488,145,6
266,-5.95751953125,7.41259765625,-1.8134765625,1834.7560975609758,-629.4512195121952,2.7439024390243905,145,6
267,15.1904296875,-3.88427734375,-12.3505859375,1450.1219512195123,-687.6829268292684,-60.426829268292686,145,6
268,15.884765625,5.1630859375,3.26318359375,879.2682926829269,-47.19512195121952,-165.3048780487805,145,6
269,0.54345703125,-0.35546875,0.4951171875,1519.0243902439026,-222.8048780487805,-138.59756097560978,145,6
270,3.9111328125,-3.8330078125,-3.0703125,1032.6829268292684,-163.90243902439025,-408.4756097560976,145,6
271,8.09228515625,-0.076171875,-2.10986328125,914.8780487804879,-96.89024390243904,-330.4268292682927,145,6
272,4.62744140625,-2.9111328125,-1.93505859375,953.3536585365855,-96.64634146341464,-514.5731707317074,145,6
273,5.548828125,-2.53125,-1.8330078125,831.6463414634147,-133.1707317073171,-665.9146341463415,145,6
274,5.068359375,-2.21240234375,-2.537109375,666.9512195121952,-122.7439024390244,-717.7439024390244,145,6
275,3.83349609375,-2.28857421875,-2.4501953125,576.219512195122,-39.51219512195122,-754.6341463414635,145,6
276,3.537109375,-2.8564453125,-2.5283203125,427.37804878048786,-15.121951219512196,-772.0731707317074,145,6
277,2.54150390625,-3.3203125,-3.12060546875,304.20731707317077,43.29268292682927,-769.3902439024391,145,6
278,1.0712890625,-3.43310546875,-3.06494140625,250.12195121951223,72.01219512195122,-771.2804878048781,145,6
279,0.392578125,-2.95458984375,-2.6435546875,207.62195121951223,114.32926829268294,-778.9634146341464,145,6
280,0.2158203125,-2.31787109375,-1.765625,201.28048780487808,180.85365853658539,-778.7804878048781,145,6
281,0.3876953125,-1.91845703125,-0.81982421875,152.25609756097563,248.109756097561,-766.5853658536586,145,6
282,0.74169921875,-1.748046875,-0.3330078125,128.0487804878049,310.7317073170732,-747.5609756097562,145,6
283,1.24853515625,-1.0703125,-0.34228515625,89.20731707317074,345.1829268292683,-718.9024390243903,145,6
284,1.87939453125,-0.55859375,-0.728515625,37.926829268292686,384.87804878048786,-687.7439024390244,145,6
285,2.49462890625,-0.37255859375,-1.02880859375,-23.719512195121954,413.719512195122,-648.2317073170732,145,6
286,2.572265625,-0.8095703125,-1.126953125,-85.1829268292683,417.9268292682927,-617.1341463414635,145,6
287,2.42041015625,-1.41845703125,-1.47265625,-131.09756097560978,411.2804878048781,-597.8658536585366,145,6
288,2.32080078125,-1.55615234375,-1.4130859375,-153.53658536585368,392.68292682926835,-586.3414634146342,145,6
289,2.0849609375,-1.78466796875,-1.50537109375,-175.5487804878049,381.2804878048781,-568.2926829268293,145,6
290,1.884765625,-1.92333984375,-1.27294921875,-197.9268292682927,383.5975609756098,-560.9146341463415,145,6
291,1.8740234375,-1.7587890625,-1.05859375,-208.41463414634148,378.9634146341464,-528.3536585365854,145,6
292,1.47900390625,-1.5791015625,-1.19873046875,-209.57317073170734,379.26829268292687,-477.50000000000006,145,6
293,1.52685546875,-1.0400390625,-1.19189453125,-198.59756097560978,370.1829268292683,-438.4756097560976,145,6
294,1.26220703125,-0.9892578125,-1.29443359375,-200.2439024390244,364.0243902439025,-406.3414634146342,145,6
295,1.18359375,-0.83837890625,-1.41796875,-195.2439024390244,360.3658536585366,-386.0365853658537,145,6
296,1.013671875,-0.81640625,-1.65234375,-203.2926829268293,356.0975609756098,-368.6585365853659,145,6
297,0.7763671875,-0.66064453125,-1.7158203125,-247.19512195121953,351.89024390243907,-352.19512195121956,145,6
298,0.5966796875,-0.61669921875,-1.875,-269.39024390243907,349.93902439024396,-331.0975609756098,145,6
299,0.40185546875,-0.53857421875,-1.8984375,-286.95121951219517,347.19512195121956,-309.87804878048786,145,6
300,0.28076171875,-0.5029296875,-1.71875,-275.1219512195122,329.57317073170736,-289.8780487804878,145,6
301,0.02001953125,-0.5400390625,-1.19970703125,-276.1585365853659,316.0975609756098,-273.2926829268293,145,6
302,-0.4482421875,-0.6025390625,-0.8837890625,-280.3048780487805,305.6707317073171,-258.3536585365854,145,6
303,-0.62939453125,-0.53515625,-0.84814453125,-284.75609756097566,311.82926829268297,-239.39024390243904,145,6
304,-0.5771484375,-0.3935546875,-0.8330078125,-283.2317073170732,283.9634146341464,-219.02439024390245,145,6
305,-0.4384765625,-0.251953125,-0.78271484375,-235.7317073170732,248.41463414634148,-193.96341463414635,145,6
306,-0.4619140625,-0.32177734375,-0.99560546875,-260.7317073170732,243.78048780487808,-177.8658536585366,145,6
307,-0.36962890625,-0.3759765625,-1.08349609375,-253.0487804878049,223.53658536585368,-157.9878048780488,145,6
308,-0.55908203125,-0.52001953125,-0.9521484375,-249.39024390243904,199.39024390243904,-155.5487804878049,145,6
309,-0.75244140625,-0.66064453125,-0.89208984375,-221.03658536585368,181.64634146341464,-129.51219512195124,145,6
310,-0.77880859375,-0.68310546875,-0.6826171875,-217.68292682926833,172.25609756097563,-121.89024390243904,145,6
311,-0.77685546875,-0.544921875,-0.59765625,-214.93902439024393,154.51219512195124,-109.87804878048782,145,6
312,-0.7587890625,-0.45849609375,-0.77099609375,-216.46341463414635,137.07317073170734,-96.21951219512196,145,6
313,-0.71875,-0.3408203125,-0.8193359375,-207.7439024390244,129.39024390243904,-80.3048780487805,145,6
314,-0.84619140625,-0.357421875,-0.75732421875,-200.1829268292683,118.04878048780489,-64.02439024390245,145,6
315,-1.11083984375,-0.48095703125,-0.69482421875,-193.96341463414635,108.35365853658537,-48.65853658536586,145,6
316,-1.322265625,-0.5771484375,-0.71044921875,-181.46341463414635,96.28048780487806,-38.963414634146346,145,6
317,-1.29931640625,-0.4716796875,-0.828125,-164.39024390243904,81.82926829268294,-28.170731707317074,145,6
318,-1.310546875,-0.42578125,-0.9150390625,-146.58536585365854,66.28048780487805,-17.865853658536587,145,6
319,-1.23193359375,-0.3037109375,-0.8935546875,-128.41463414634148,51.524390243902445,-8.170731707317074,145,6
320,-1.15625,-0.22509765625,-0.837890625,-113.78048780487806,38.90243902439025,0.7317073170731708,145,6
321,-1.11572265625,-0.1572265625,-0.802734375,-94.63414634146342,33.23170731707317,7.500000000000001,145,6
322,-1.1005859375,-0.12060546875,-0.7822265625,-101.09756097560977,22.5609756097561,14.817073170731708,145,6
323,-1.07763671875,-0.12939453125,-0.76416015625,-92.01219512195122,13.353658536585368,20.670731707317074,145,6
324,-1.095703125,-0.12841796875,-0.7275390625,-85.3658536585366,4.146341463414634,23.53658536585366,145,6
325,-1.1064453125,-0.12353515625,-0.7421875,-93.41463414634147,-4.2682926829268295,25.000000000000004,145,6
326,-1.1044921875,-0.12158203125,-0.759765625,-70.3658536585366,-10.914634146341465,25.182926829268293,145,6
327,-1.0810546875,-0.08984375,-0.7314453125,-60.97560975609757,-17.5,26.82926829268293,145,6
328,-1.0791015625,-0.10498046875,-0.6982421875,-51.646341463414636,-24.634146341463417,29.75609756097561,145,6
329,-1.119140625,-0.1337890625,-0.669921875,-42.743902439024396,-15.670731707317074,32.19512195121951,145,6
330,-1.173828125,-0.15771484375,-0.6455078125,-34.146341463414636,-36.58536585365854,35.73170731707317,145,6
331,-1.21044921875,-0.15576171875,-0.65234375,-25.121951219512198,-41.951219512195124,40.1829268292683,145,6
332,-1.22802734375,-0.16064453125,-0.6787109375,-16.34146341463415,-47.5609756097561,45.304878048780495,145,6
333,-1.2470703125,-0.1796875,-0.6494140625,-11.158536585365855,-51.03658536585366,50.79268292682927,145,6
334,-1.24609375,-0.18017578125,-0.59228515625,-7.865853658536586,-54.87804878048781,56.21951219512196,145,6
335,-1.126953125,-0.16455078125,-0.5576171875,-3.353658536585366,-60.00000000000001,61.09756097560976,145,6
336,-1.2158203125,-0.1181640625,-0.56005859375,2.378048780487805,-67.01219512195122,65.1829268292683,145,6
337,-1.16259765625,-0.06494140625,-0.568359375,9.573170731707318,-75.3048780487805,68.59756097560977,145,6
338,-1.07275390625,0.00439453125,-0.53857421875,18.53658536585366,-83.47560975609757,70.79268292682927,145,6
339,-1.00927734375,0.0732421875,-0.47802734375,24.451219512195124,-88.71951219512196,71.52439024390245,145,6
340,-0.9521484375,0.126953125,-0.38916015625,28.04878048780488,-91.28048780487806,71.58536585365854,145,6
341,-0.93505859375,0.16650390625,-0.33740234375,30.426829268292686,-93.59756097560977,71.21951219512195,145,6
342,-0.93603515625,0.19775390625,-0.31005859375,33.84146341463415,-97.01219512195122,69.45121951219512,145,6
343,-0.93896484375,0.22216796875,-0.2802734375,38.29268292682927,-101.28048780487806,67.13414634146342,145,6
344,-0.97412109375,0.23291015625,-0.2373046875,44.024390243902445,-107.31707317073172,65.91463414634147,145,6
345,-0.87890625,0.2119140625,-0.21240234375,49.81707317073171,-111.70731707317074,64.81707317073172,145,6
346,-1.02734375,0.18603515625,-0.17724609375,53.23170731707317,-114.93902439024392,64.81707317073172,145,6
347,-1.05517578125,0.16845703125,-0.15576171875,55.91463414634147,-118.35365853658537,65.42682926829269,145,6
348,-1.0810546875,0.169921875,-0.16162109375,57.43902439024391,-118.78048780487806,65.3658536585366,145,6
349,-1.08642578125,0.20751953125,-0.16015625,57.987804878048784,-121.09756097560977,65.3048780487805,145,6
350,-1.07958984375,0.2412109375,-0.15673828125,58.59756097560976,-125.73170731707319,66.52439024390245,145,6
351,-1.0625,0.26708984375,-0.13232421875,59.024390243902445,-130.5487804878049,68.41463414634147,145,6
352,-1.06494140625,0.2822265625,-0.1044921875,58.23170731707317,-135.0,70.1219512195122,145,6
353,-1.0556640625,0.29931640625,-0.09423828125,57.560975609756106,-137.31707317073173,71.89024390243902,145,6
354,-1.04296875,0.3271484375,-0.05712890625,57.01219512195122,-124.93902439024392,74.08536585365854,145,6
355,-1.0126953125,0.34716796875,-0.0185546875,56.524390243902445,-145.7926829268293,75.97560975609757,145,6
356,-0.99609375,0.35205078125,-0.033203125,57.804878048780495,-149.81707317073173,75.42682926829269,145,6
357,-0.96923828125,0.35009765625,-0.01416015625,61.34146341463415,-153.35365853658539,75.0609756097561,145,6
358,-0.93115234375,0.376953125,0.0087890625,63.35365853658537,-157.01219512195124,75.1219512195122,145,6
359,-0.8818359375,0.41357421875,0.04150390625,63.47560975609757,-159.69512195121953,75.54878048780489,145,6
360,-0.8212890625,0.43994140625,0.07763671875,61.95121951219513,-160.97560975609758,75.73170731707317,145,6
361,-0.76708984375,0.4609375,0.10693359375,60.426829268292686,-162.13414634146343,76.28048780487805,145,6
362,-0.74267578125,0.4736328125,0.12060546875,60.365853658536594,-166.52439024390245,77.07317073170732,145,6
363,-0.73974609375,0.46630859375,0.1201171875,62.31707317073171,-169.75609756097563,77.5,145,6
364,-0.72998046875,0.44140625,0.1640625,62.560975609756106,-170.85365853658539,76.64634146341464,145,6
365,-0.69921875,0.44873046875,0.181640625,61.463414634146346,-170.7926829268293,75.48780487804879,145,6
366,-0.65673828125,0.4638671875,0.2099609375,60.243902439024396,-156.28048780487805,76.28048780487805,145,6
367,-0.61181640625,0.47021484375,0.21435546875,59.93902439024391,-175.00000000000003,77.25609756097562,145,6
368,-0.580078125,0.46728515625,0.12646484375,60.243902439024396,-175.97560975609758,77.25609756097562,145,6
369,-0.5224609375,0.46728515625,0.31005859375,61.09756097560976,-176.58536585365854,77.5,145,6
370,-0.4658203125,0.48974609375,0.33544921875,61.03658536585366,-176.03658536585368,77.01219512195122,145,6
371,-0.41552734375,0.505859375,0.37451171875,60.85365853658537,-175.7317073170732,76.70731707317074,145,6
372,-0.39111328125,0.50439453125,0.3974609375,61.28048780487806,-175.2439024390244,75.85365853658537,145,6
373,-0.39013671875,0.37841796875,0.39794921875,61.40243902439025,-175.4878048780488,75.0,145,6
374,-0.3896484375,0.47705078125,0.4013671875,63.59756097560976,-177.43902439024393,74.63414634146342,145,6
375,-0.40087890625,0.44921875,0.40478515625,66.03658536585367,-177.8048780487805,73.53658536585367,145,6
376,-0.390625,0.4443359375,0.4130859375,67.5,-177.5609756097561,72.13414634146342,145,6
377,-0.3662109375,0.45849609375,0.46875,68.23170731707317,-175.3048780487805,71.76829268292684,145,6
378,-0.33984375,0.4814453125,0.52294921875,67.25609756097562,-173.84146341463415,72.01219512195122,145,6
379,-0.32421875,0.4931640625,0.55224609375,66.76829268292684,-171.46341463414635,72.6219512195122,145,6
380,-0.31787109375,0.48046875,0.55322265625,66.82926829268293,-169.75609756097563,72.6829268292683,145,6
381,-0.30859375,0.47802734375,0.52685546875,68.23170731707317,-169.32926829268294,72.13414634146342,145,6
382,-0.28369140625,0.50341796875,0.51025390625,70.3658536585366,-169.69512195121953,71.46341463414635,145,6
383,-0.25341796875,0.533203125,0.48779296875,72.19512195121952,-170.3048780487805,70.97560975609757,145,6
384,-0.22998046875,0.54833984375,0.4853515625,72.13414634146342,-172.7439024390244,71.95121951219512,145,6
385,-0.2431640625,0.5185546875,0.4638671875,72.01219512195122,-173.71951219512198,72.92682926829269,145,6
386,-0.1279296875,0.51025390625,0.48486328125,72.37804878048782,-173.59756097560978,72.7439024390244,145,6
387,-0.2587890625,0.4912109375,0.52001953125,68.90243902439025,-168.71951219512198,71.95121951219512,145,6
388,-0.232421875,0.5244140625,0.52978515625,61.40243902439025,-162.43902439024393,71.95121951219512,145,6
389,-0.19189453125,0.56298828125,0.55029296875,54.81707317073171,-158.0487804878049,73.59756097560977,145,6
390,-0.158203125,0.56396484375,0.54638671875,51.646341463414636,-155.7317073170732,75.42682926829269,145,6
391,-0.14794921875,0.5439453125,0.578125,52.01219512195122,-155.1219512195122,77.8658536585366,145,6
392,-0.13232421875,0.50830078125,0.56591796875,55.1829268292683,-140.7317073170732,80.3658536585366,145,6
393,-0.11669921875,0.51513671875,0.5166015625,59.024390243902445,-157.37804878048783,81.15853658536587,145,6
394,-0.0751953125,0.54248046875,0.48291015625,63.17073170731708,-159.32926829268294,82.43902439024392,145,6
395,-0.044921875,0.564453125,0.47021484375,67.8658536585366,-162.9268292682927,84.39024390243902,145,6
396,-0.0400390625,0.5732421875,0.37548828125,69.75609756097562,-161.64634146341464,85.67073170731707,145,6
397,-0.05029296875,0.5390625,0.47802734375,77.6829268292683,-171.52439024390245,85.97560975609757,145,6
398,-0.01025390625,0.58935546875,0.4677734375,55.54878048780488,-151.03658536585368,86.95121951219512,145,6
399,0.02734375,0.60693359375,0.466796875,51.951219512195124,-149.08536585365854,88.47560975609757,145,6
400,0.072265625,0.6318359375,0.47607421875,51.82926829268293,-149.08536585365854,90.60975609756099,145,6
401,0.09423828125,0.60546875,0.490234375,49.024390243902445,-146.95121951219514,93.35365853658537,145,6
402,0.09619140625,0.572265625,0.517578125,43.963414634146346,-143.78048780487805,95.73170731707317,145,6
403,0.11376953125,0.5859375,0.55517578125,42.86585365853659,-141.64634146341464,96.64634146341464,145,6
404,0.140625,0.59765625,0.55224609375,44.69512195121952,-141.28048780487805,97.8048780487805,145,6
405,0.17578125,0.60595703125,0.50830078125,48.170731707317074,-143.109756097561,98.29268292682927,145,6
406,0.19384765625,0.61767578125,0.43017578125,50.304878048780495,-143.96341463414635,97.25609756097562,145,6
407,0.2421875,0.65380859375,0.40869140625,49.39024390243903,-142.9268292682927,96.82926829268294,145,6
408,0.30029296875,0.69482421875,0.4033203125,45.73170731707317,-155.97560975609758,96.28048780487806,145,6
409,0.345703125,0.73291015625,0.43017578125,40.1829268292683,-138.41463414634148,96.76829268292684,145,6
410,0.33740234375,0.72265625,0.46337890625,35.0609756097561,-136.34146341463415,97.19512195121952,145,6
411,0.3369140625,0.7001953125,0.49267578125,31.89024390243903,-133.90243902439025,97.5609756097561,145,6
412,0.31201171875,0.6845703125,0.5205078125,30.182926829268297,-131.46341463414635,97.7439024390244,145,6
413,0.3203125,0.66552734375,0.52587890625,28.84146341463415,-129.26829268292684,98.71951219512196,145,6
414,0.33154296875,0.6630859375,0.48486328125,28.170731707317074,-128.71951219512195,100.79268292682927,145,6
415,0.35546875,0.6640625,0.4677734375,28.780487804878053,-129.20731707317074,101.09756097560977,145,6
416,0.37646484375,0.673828125,0.42822265625,29.451219512195124,-131.09756097560978,102.25609756097562,145,6
417,0.3994140625,0.68115234375,0.462890625,31.158536585365855,-134.26829268292684,103.23170731707317,145,6
418,0.412109375,0.66357421875,0.48974609375,32.01219512195122,-136.03658536585368,103.35365853658537,145,6
419,0.41796875,0.666015625,0.4794921875,32.07317073170732,-134.81707317073173,103.04878048780489,145,6
420,0.44189453125,0.6669921875,0.48974609375,27.378048780487806,-131.09756097560978,102.25609756097562,145,6
421,0.48095703125,0.71435546875,0.4755859375,22.865853658536587,-128.1707317073171,102.6219512195122,145,6
422,0.51123046875,0.7255859375,0.42138671875,19.085365853658537,-126.03658536585367,103.29268292682927,145,6
423,0.53271484375,0.72119140625,0.38525390625,14.756097560975611,-125.79268292682927,103.41463414634147,145,6
424,0.52001953125,0.70556640625,0.35986328125,13.04878048780488,-126.89024390243904,104.02439024390245,145,6
425,0.525390625,0.7197265625,0.3408203125,12.74390243902439,-128.0487804878049,104.51219512195122,145,6
426,0.5419921875,0.72705078125,0.32861328125,11.829268292682928,-128.47560975609758,105.00000000000001,145,6
427,0.5693359375,0.71240234375,0.36767578125,12.317073170731708,-130.4268292682927,105.48780487804879,145,6
428,0.576171875,0.6728515625,0.39306640625,14.26829268292683,-131.58536585365854,105.3658536585366,145,6
429,0.57568359375,0.64111328125,0.40185546875,16.402439024390244,-129.57317073170734,103.29268292682927,145,6
430,0.59814453125,0.64599609375,0.447265625,17.682926829268293,-126.64634146341464,102.19512195121952,145,6
431,0.607421875,0.64794921875,0.45947265625,18.53658536585366,-122.43902439024392,99.81707317073172,145,6
432,0.62255859375,0.640625,0.44677734375,18.902439024390244,-117.31707317073172,96.95121951219512,145,6
433,0.74658203125,0.6513671875,0.3984375,20.853658536585368,-114.14634146341464,96.58536585365854,145,6
434,0.623046875,0.66064453125,0.33642578125,24.573170731707318,-112.19512195121952,95.0609756097561,145,6
435,0.6396484375,0.701171875,0.2822265625,26.82926829268293,-110.48780487804879,93.78048780487806,145,6
436,0.67578125,0.72705078125,0.2373046875,27.439024390243905,-109.02439024390245,93.71951219512196,145,6
437,0.6962890625,0.74169921875,0.2333984375,27.378048780487806,-93.96341463414635,109.08536585365854,145,6
438,0.6962890625,0.71923828125,0.220703125,26.52439024390244,-110.60975609756099,91.46341463414635,145,6
439,0.693359375,0.72607421875,0.27001953125,24.939024390243905,-107.92682926829269,89.20731707317074,145,6
440,0.67822265625,0.7099609375,0.35205078125,22.012195121951223,-105.3658536585366,87.25609756097562,145,6
441,0.71044921875,0.73193359375,0.40478515625,18.597560975609756,-100.91463414634147,84.87804878048782,145,6
442,0.6982421875,0.7109375,0.40576171875,15.670731707317074,-95.1829268292683,81.95121951219512,145,6
443,0.712890625,0.73388671875,0.4130859375,15.000000000000002,-90.91463414634147,79.08536585365854,145,6
444,0.73388671875,0.76806640625,0.41943359375,15.731707317073171,-87.01219512195122,75.97560975609757,145,6
445,0.76708984375,0.79443359375,0.3857421875,15.182926829268293,-83.23170731707317,72.98780487804879,145,6
446,0.77001953125,0.78759765625,0.32373046875,31.158536585365855,-82.07317073170732,69.93902439024392,145,6
447,0.7451171875,0.76123046875,0.27392578125,0.0,-79.75609756097562,65.67073170731707,145,6
448,0.74072265625,0.7724609375,0.2705078125,14.939024390243905,-76.82926829268294,77.92682926829269,145,6
449,0.76513671875,0.8017578125,0.28271484375,12.74390243902439,-71.70731707317074,59.268292682926834,145,6
450,0.7763671875,0.7861328125,0.296875,9.817073170731708,-68.10975609756098,57.31707317073171,145,6
451,0.734375,0.7353515625,0.25244140625,8.414634146341465,-65.79268292682927,54.207317073170735,145,6
452,0.70751953125,0.70361328125,0.24462890625,6.463414634146342,-61.15853658536586,50.36585365853659,145,6
453,0.72802734375,0.7255859375,0.2529296875,1.707317073170732,-56.40243902439025,45.91463414634147,145,6
454,0.7763671875,0.77197265625,0.30517578125,-2.1951219512195124,-51.585365853658544,41.82926829268293,145,6
455,0.75927734375,0.7373046875,0.31494140625,-5.548780487804878,-45.97560975609756,38.41463414634147,145,6
456,0.73876953125,0.70751953125,0.33251953125,-6.951219512195123,-41.646341463414636,34.57317073170732,145,6
457,0.72265625,0.67431640625,0.2841796875,-4.75609756097561,-40.60975609756098,46.524390243902445,145,6
458,0.705078125,0.6572265625,0.240234375,-3.1707317073170733,-38.29268292682927,26.463414634146343,145,6
459,0.716796875,0.6455078125,0.19580078125,-3.231707317073171,-36.09756097560976,22.926829268292686,145,6
460,0.73828125,0.67529296875,0.17138671875,-4.939024390243903,-32.743902439024396,19.26829268292683,145,6
461,0.736328125,0.65673828125,0.169921875,-7.987804878048781,-28.04878048780488,15.975609756097562,145,6
462,0.74755859375,0.654296875,0.18115234375,-9.939024390243903,-24.512195121951223,13.231707317073171,145,6
463,0.72314453125,0.63916015625,0.1591796875,-12.317073170731708,-19.939024390243905,10.060975609756099,145,6
464,0.7216796875,0.6435546875,0.18505859375,-14.329268292682928,-14.817073170731708,6.829268292682928,145,6
465,0.72900390625,0.638671875,0.1943359375,-16.76829268292683,-9.878048780487806,3.7195121951219514,145,6
466,0.7314453125,0.64794921875,0.22802734375,-18.414634146341466,-5.2439024390243905,0.853658536585366,145,6
467,0.7216796875,0.62548828125,0.2109375,-19.207317073170735,-1.2804878048780488,-2.7439024390243905,145,6
468,0.72802734375,0.6201171875,0.1767578125,-18.902439024390244,0.6097560975609757,-6.52439024390244,145,6
469,0.7275390625,0.61669921875,0.1591796875,-19.26829268292683,3.1707317073170733,-9.756097560975611,145,6
470,0.734375,0.58447265625,0.16162109375,-19.573170731707318,5.121951219512195,-12.926829268292684,145,6
471,0.87353515625,0.60986328125,0.1259765625,-21.097560975609756,7.25609756097561,-0.12195121951219513,145,6
472,0.74267578125,0.57666015625,0.11865234375,-21.402439024390247,9.390243902439025,-18.597560975609756,145,6
473,0.73486328125,0.57470703125,0.1279296875,-22.5609756097561,11.951219512195124,-20.79268292682927,145,6
474,0.7314453125,0.56494140625,0.1328125,-24.390243902439025,15.121951219512196,-21.82926829268293,145,6
475,0.69140625,0.57421875,0.13671875,-26.52439024390244,19.26829268292683,-24.878048780487806,145,6
476,0.69970703125,0.541015625,0.1513671875,-28.780487804878053,23.231707317073173,-26.219512195121954,145,6
477,0.67919921875,0.515625,0.123046875,-29.75609756097561,25.30487804878049,-26.707317073170735,145,6
478,0.6689453125,0.6142578125,0.09228515625,-29.695121951219516,26.951219512195124,-29.81707317073171,145,6
479,0.66943359375,0.61962890625,0.09423828125,-30.487804878048784,28.475609756097562,-31.52439024390244,145,6
480,0.67626953125,0.51171875,0.05810546875,-31.158536585365855,27.439024390243905,-32.5,145,6
481,0.673828125,0.48876953125,0.03662109375,-32.6219512195122,28.59756097560976,-35.243902439024396,145,6
482,0.6533203125,0.478515625,0.04443359375,-34.75609756097561,29.695121951219516,-36.09756097560976,145,6
483,0.64501953125,0.47998046875,0.0517578125,-36.646341463414636,30.30487804878049,-36.463414634146346,145,6
484,0.62744140625,0.466796875,0.05517578125,-38.65853658536586,31.219512195121954,-37.86585365853659,145,6
485,0.6318359375,0.455078125,0.07177734375,-40.73170731707317,31.951219512195124,-38.41463414634147,145,6
486,0.6162109375,0.439453125,0.06982421875,-42.13414634146342,32.37804878048781,-38.84146341463415,145,6
487,0.611328125,0.43115234375,0.07080078125,-42.25609756097561,31.89024390243903,-39.32926829268293,145,6
488,0.59619140625,0.41357421875,0.0654296875,-41.890243902439025,31.280487804878053,-40.426829268292686,145,6
489,0.60302734375,0.4140625,0.07373046875,-41.768292682926834,30.60975609756098,-40.243902439024396,145,6
490,0.60009765625,0.412109375,0.04736328125,-40.91463414634147,29.573170731707318,-42.50000000000001,145,6
491,0.5869140625,0.3818359375,0.06103515625,-40.36585365853659,28.780487804878053,-42.86585365853659,145,6
492,0.57275390625,0.369140625,0.0576171875,-39.451219512195124,28.658536585365855,-43.35365853658537,145,6
493,0.5615234375,0.36279296875,0.06396484375,-38.90243902439025,28.658536585365855,-43.29268292682927,145,6
494,0.5615234375,0.365234375,0.07568359375,-37.743902439024396,27.500000000000004,-42.926829268292686,145,6
495,0.544921875,0.3603515625,0.06640625,-35.91463414634147,27.500000000000004,-41.09756097560976,145,6
496,0.5185546875,0.2666015625,0.06787109375,-33.23170731707317,26.82926829268293,-42.25609756097561,145,6
497,0.55224609375,0.345703125,0.08056640625,-46.768292682926834,26.646341463414636,-41.768292682926834,145,6
498,0.54833984375,0.3359375,0.083984375,-29.26829268292683,26.09756097560976,-39.51219512195122,145,6
499,0.4736328125,0.34130859375,0.07470703125,-26.28048780487805,24.878048780487806,-40.36585365853659,145,6
