,Ax,Ay,Az,Gx,Gy,Gz,distance,shot_type
0,0.5849609375,-0.61328125,-0.4541015625,4.2682926829268295,3.658536585365854,-15.609756097560977,125,3
1,0.58984375,-0.61328125,-0.4609375,3.1097560975609757,3.4756097560975614,1.4634146341463417,125,3
2,0.576171875,-0.62060546875,-0.4609375,2.378048780487805,3.231707317073171,2.7439024390243905,125,3
3,0.57177734375,-0.61962890625,-0.45654296875,3.414634146341464,2.1951219512195124,3.414634146341464,125,3
4,0.58251953125,-0.60400390625,-0.4697265625,5.060975609756098,0.3658536585365854,3.658536585365854,125,3
5,0.578125,-0.59716796875,-0.48095703125,6.463414634146342,-1.3414634146341464,3.414634146341464,125,3
6,0.578125,-0.5791015625,-0.46337890625,8.109756097560977,-2.0121951219512195,3.4756097560975614,125,3
7,0.59130859375,-0.55322265625,-0.46484375,8.109756097560977,-1.7682926829268295,3.658536585365854,125,3
8,0.59912109375,-0.521484375,-0.45556640625,6.646341463414635,-1.8902439024390245,4.329268292682928,125,3
9,0.59130859375,-0.61962890625,-0.43408203125,4.207317073170732,-1.829268292682927,5.2439024390243905,125,3
10,0.58544921875,-0.48291015625,-0.41796875,1.1585365853658538,-0.6097560975609757,5.853658536585367,125,3
11,0.57861328125,-0.48974609375,-0.38427734375,-1.2804878048780488,0.426829268292683,5.975609756097562,125,3
12,0.5947265625,-0.46044921875,-0.35546875,-2.073170731707317,1.1585365853658538,5.121951219512195,125,3
13,0.5,-0.42529296875,-0.330078125,-1.7682926829268295,1.3414634146341464,4.085365853658537,125,3
14,0.650390625,-0.39599609375,-0.32861328125,-0.853658536585366,1.4634146341463417,2.804878048780488,125,3
15,0.6484375,-0.43408203125,-0.33349609375,3.048780487804878,0.30487804878048785,1.829268292682927,125,3
16,0.66796875,-0.4189453125,-0.3447265625,7.682926829268293,-1.3414634146341464,0.3658536585365854,125,3
17,0.69580078125,-0.40234375,-0.34912109375,9.329268292682928,-1.402439024390244,-0.426829268292683,125,3
18,0.69873046875,-0.3916015625,-0.3486328125,9.146341463414634,-15.609756097560977,-1.0975609756097562,125,3
19,0.712890625,-0.498046875,-0.33544921875,5.853658536585367,2.804878048780488,-0.9756097560975611,125,3
20,0.72998046875,-0.34912109375,-0.33740234375,0.06097560975609757,6.707317073170732,-1.1585365853658538,125,3
21,0.73974609375,-0.330078125,-0.3291015625,-2.1341463414634148,8.658536585365855,-0.48780487804878053,125,3
22,0.72802734375,-0.3720703125,-0.3349609375,-2.439024390243903,9.51219512195122,0.24390243902439027,125,3
23,0.74951171875,-0.40576171875,-0.333984375,-1.7682926829268295,8.963414634146343,0.12195121951219513,125,3
24,0.740234375,-0.43408203125,-0.49853515625,-1.5853658536585367,7.682926829268293,-0.1829268292682927,125,3
25,0.72802734375,-0.45068359375,-0.3623046875,-0.1829268292682927,7.073170731707318,-0.24390243902439027,125,3
26,0.72265625,-0.4599609375,-0.34033203125,0.853658536585366,7.378048780487806,-0.7926829268292683,125,3
27,0.7177734375,-0.4775390625,-0.314453125,1.829268292682927,7.926829268292684,-1.2195121951219514,125,3
28,0.70166015625,-0.4921875,-0.32666015625,3.8414634146341466,7.378048780487806,-1.3414634146341464,125,3
29,0.693359375,-0.48974609375,-0.33642578125,5.182926829268293,7.195121951219513,-2.1341463414634148,125,3
30,0.6953125,-0.46923828125,-0.34619140625,5.2439024390243905,8.109756097560977,-2.378048780487805,125,3
31,0.68896484375,-0.4541015625,-0.353515625,4.939024390243903,8.475609756097562,-2.5609756097560976,125,3
32,0.68115234375,-0.4560546875,-0.35302734375,3.9024390243902443,9.573170731707318,-2.6219512195121952,125,3
33,0.67724609375,-0.4521484375,-0.35302734375,2.1951219512195124,10.670731707317074,-2.439024390243903,125,3
34,0.66845703125,-0.46337890625,-0.36083984375,1.6463414634146343,10.853658536585368,-2.0121951219512195,125,3
35,0.65869140625,-0.486328125,-0.25341796875,2.5609756097560976,10.365853658536587,-1.6463414634146343,125,3
36,0.642578125,-0.4931640625,-0.4013671875,4.51219512195122,9.26829268292683,-1.4634146341463417,125,3
37,0.64697265625,-0.50537109375,-0.412109375,5.487804878048781,8.597560975609756,-1.1585365853658538,125,3
38,0.65576171875,-0.49658203125,-0.42822265625,4.51219512195122,8.170731707317074,-1.0365853658536586,125,3
39,0.67236328125,-0.4716796875,-0.42529296875,2.378048780487805,10.24390243902439,-0.9146341463414634,125,3
40,0.66748046875,-0.48828125,-0.458984375,-0.30487804878048785,11.76829268292683,-0.3658536585365854,125,3
41,0.65771484375,-0.51318359375,-0.44921875,-3.1707317073170733,12.987804878048781,0.48780487804878053,125,3
42,0.6484375,-0.5244140625,-0.44091796875,-5.670731707317073,13.963414634146343,1.707317073170732,125,3
43,0.62890625,-0.5322265625,-0.4228515625,-6.341463414634147,13.78048780487805,3.353658536585366,125,3
44,0.61669921875,-0.55078125,-0.392578125,-5.853658536585367,12.926829268292684,3.8414634146341466,125,3
45,0.609375,-0.54736328125,-0.38818359375,-4.634146341463415,12.134146341463415,4.024390243902439,125,3
46,0.62109375,-0.5263671875,-0.38330078125,-3.1707317073170733,11.463414634146343,3.780487804878049,125,3
47,0.62255859375,-0.6220703125,-0.38134765625,-2.378048780487805,10.853658536585368,3.658536585365854,125,3
48,0.62744140625,-0.48681640625,-0.3955078125,-2.073170731707317,10.365853658536587,3.536585365853659,125,3
49,0.6240234375,-0.4755859375,-0.3935546875,-2.439024390243903,9.51219512195122,3.536585365853659,125,3
50,0.6201171875,-0.48291015625,-0.40966796875,-2.439024390243903,8.597560975609756,3.658536585365854,125,3
51,0.6279296875,-0.4775390625,-0.439453125,-2.439024390243903,7.378048780487806,3.7195121951219514,125,3
52,0.6396484375,-0.4658203125,-0.45751953125,-2.8658536585365857,7.865853658536586,3.780487804878049,125,3
53,0.6435546875,-0.4609375,-0.44189453125,-3.5975609756097566,8.414634146341465,3.353658536585366,125,3
54,0.65478515625,-0.45751953125,-0.42431640625,-2.5,7.439024390243903,3.1707317073170733,125,3
55,0.6357421875,-0.47705078125,-0.39990234375,0.426829268292683,5.548780487804878,2.9268292682926833,125,3
56,0.6357421875,-0.45947265625,-0.39697265625,2.804878048780488,4.085365853658537,2.1341463414634148,125,3
57,0.64453125,-0.4560546875,-0.38134765625,3.780487804878049,3.048780487804878,1.5853658536585367,125,3
58,0.642578125,-0.451171875,-0.37353515625,3.414634146341464,2.7439024390243905,1.3414634146341464,125,3
59,0.6416015625,-0.42626953125,-0.49951171875,1.3414634146341464,4.024390243902439,0.7317073170731708,125,3
60,0.66064453125,-0.40771484375,-0.3642578125,-0.30487804878048785,5.2439024390243905,0.7317073170731708,125,3
61,0.65966796875,-0.40966796875,-0.35107421875,-1.2804878048780488,5.731707317073171,0.853658536585366,125,3
62,0.67138671875,-0.40380859375,-0.34912109375,-1.2195121951219514,6.219512195121951,0.6097560975609757,125,3
63,0.677734375,-0.39794921875,-0.35107421875,-1.0975609756097562,6.585365853658537,0.426829268292683,125,3
64,0.68701171875,-0.40478515625,-0.3369140625,0.6097560975609757,6.463414634146342,0.24390243902439027,125,3
65,0.6923828125,-0.408203125,-0.34423828125,1.707317073170732,5.487804878048781,-0.426829268292683,125,3
66,0.70458984375,-0.41943359375,-0.34619140625,2.378048780487805,5.426829268292684,0.06097560975609757,125,3
67,0.6923828125,-0.435546875,-0.33935546875,2.7439024390243905,5.975609756097562,-0.1829268292682927,125,3
68,0.689453125,-0.4560546875,-0.3583984375,2.5609756097560976,6.646341463414635,-0.3658536585365854,125,3
69,0.69921875,-0.45068359375,-0.3369140625,2.5,6.951219512195123,-0.6707317073170732,125,3
70,0.6943359375,-0.46435546875,-0.32275390625,2.8658536585365857,7.926829268292684,-0.426829268292683,125,3
71,0.68408203125,-0.462890625,-0.31298828125,2.1341463414634148,9.634146341463415,-1.1585365853658538,125,3
72,0.693359375,-0.4560546875,-0.31201171875,15.54878048780488,11.097560975609756,-1.0975609756097562,125,3
73,0.68505859375,-0.4482421875,-0.30615234375,-1.0975609756097562,10.731707317073171,-0.6707317073170732,125,3
74,0.69287109375,-0.4345703125,-0.29443359375,-1.829268292682927,10.670731707317074,-0.24390243902439027,125,3
75,0.68310546875,-0.46826171875,-0.2919921875,-1.9512195121951221,10.548780487804878,-0.24390243902439027,125,3
76,0.6796875,-0.48291015625,-0.30517578125,-1.8902439024390245,9.390243902439025,-0.1829268292682927,125,3
77,0.67529296875,-0.4853515625,-0.3017578125,-1.4634146341463417,8.658536585365855,-0.1829268292682927,125,3
78,0.67822265625,-0.4990234375,-0.30859375,-0.3658536585365854,7.743902439024391,-15.609756097560977,125,3
79,0.67236328125,-0.517578125,-0.31396484375,-0.24390243902439027,7.25609756097561,0.1829268292682927,125,3
80,0.68212890625,-0.61962890625,-0.35107421875,-0.7926829268292683,6.7682926829268295,-0.6707317073170732,125,3
81,0.70849609375,-0.50390625,-0.25048828125,-0.6097560975609757,8.292682926829269,0.30487804878048785,125,3
82,0.68994140625,-0.53125,-0.34814453125,-1.2804878048780488,10.121951219512196,1.2804878048780488,125,3
83,0.66015625,-0.5439453125,-0.33154296875,-2.9268292682926833,11.646341463414634,1.4634146341463417,125,3
84,0.64453125,-0.537109375,-0.31884765625,-2.0121951219512195,11.585365853658537,1.829268292682927,125,3
85,0.640625,-0.53759765625,-0.32177734375,-1.4634146341463417,11.463414634146343,2.987804878048781,125,3
86,0.61767578125,-0.56298828125,-0.31884765625,-1.2195121951219514,12.317073170731708,4.2682926829268295,125,3
87,0.61572265625,-0.5576171875,-0.3134765625,-0.6097560975609757,11.890243902439025,4.75609756097561,125,3
88,0.63623046875,-0.5546875,-0.30615234375,1.2804878048780488,11.036585365853659,5.487804878048781,125,3
89,0.634765625,-0.55224609375,-0.30908203125,3.536585365853659,10.060975609756099,5.731707317073171,125,3
90,0.64111328125,-0.5439453125,-0.3134765625,5.548780487804878,9.634146341463415,6.097560975609756,125,3
91,0.6611328125,-0.51123046875,-0.30029296875,6.707317073170732,9.817073170731708,5.853658536585367,125,3
92,0.70361328125,-0.474609375,-0.302734375,6.158536585365854,12.560975609756099,5.670731707317073,125,3
93,0.71630859375,-0.4697265625,-0.287109375,2.5609756097560976,16.402439024390244,5.853658536585367,125,3
94,0.70751953125,-0.47705078125,-0.28759765625,-0.9756097560975611,20.48780487804878,5.975609756097562,125,3
95,0.70166015625,-0.47509765625,-0.26953125,-4.146341463414634,24.390243902439025,6.341463414634147,125,3
96,0.7021484375,-0.4873046875,-0.37451171875,-6.463414634146342,27.25609756097561,6.7682926829268295,125,3
97,0.685546875,-0.50634765625,-0.22705078125,-6.463414634146342,27.987804878048784,7.743902439024391,125,3
98,0.66650390625,-0.54736328125,-0.205078125,-3.5975609756097566,27.500000000000004,9.26829268292683,125,3
99,0.625,-0.591796875,-0.19775390625,-0.426829268292683,26.58536585365854,10.487804878048781,125,3
100,0.60791015625,-0.6103515625,-0.1787109375,2.3170731707317076,27.012195121951223,11.646341463414634,125,3
101,0.6220703125,-0.60302734375,-0.1767578125,4.573170731707317,28.10975609756098,13.04878048780488,125,3
102,0.65185546875,-0.57275390625,-0.140625,5.121951219512195,30.182926829268297,14.26829268292683,125,3
103,0.68994140625,-0.55419921875,-0.14453125,4.2682926829268295,32.07317073170732,16.28048780487805,125,3
104,0.67431640625,-0.55908203125,-0.16943359375,-0.853658536585366,36.768292682926834,17.5609756097561,125,3
105,0.6640625,-0.546875,-0.1806640625,-7.926829268292684,43.65853658536586,20.30487804878049,125,3
106,0.66015625,-0.5107421875,-0.1650390625,-15.487804878048783,53.41463414634147,19.26829268292683,125,3
107,0.69091796875,-0.4189453125,-0.11181640625,-3.7195121951219514,68.10975609756098,22.98780487804878,125,3
108,0.5419921875,-0.4130859375,-0.2216796875,-45.85365853658537,65.67073170731707,18.902439024390244,125,3
109,0.78955078125,-0.3486328125,-0.3291015625,-32.6219512195122,66.70731707317074,17.743902439024392,125,3
110,0.703125,-0.4208984375,-0.32177734375,-36.09756097560976,70.91463414634147,17.804878048780488,125,3
111,0.7548828125,-0.439453125,-0.3447265625,-37.987804878048784,76.70731707317074,16.82926829268293,125,3
112,0.76904296875,-0.46240234375,-0.2685546875,-43.71951219512196,80.54878048780489,16.70731707317073,125,3
113,0.71435546875,-0.51904296875,-0.23876953125,-46.09756097560976,79.45121951219512,17.195121951219512,125,3
114,0.67724609375,-0.5439453125,-0.2646484375,-50.97560975609756,81.40243902439025,17.5609756097561,125,3
115,0.67626953125,-0.474609375,-0.2294921875,-54.146341463414636,79.57317073170732,17.804878048780488,125,3
116,0.64306640625,-0.46630859375,-0.17626953125,-52.926829268292686,73.04878048780489,19.81707317073171,125,3
117,0.74609375,-0.48486328125,-0.18505859375,-49.93902439024391,64.45121951219512,22.012195121951223,125,3
118,0.630859375,-0.45751953125,-0.25,-48.90243902439025,58.59756097560976,20.914634146341466,125,3
119,0.64111328125,-0.40771484375,-0.29736328125,-45.243902439024396,52.13414634146342,19.207317073170735,125,3
120,0.6845703125,-0.32666015625,-0.36279296875,-41.890243902439025,47.804878048780495,16.097560975609756,125,3
121,0.7705078125,-0.37060546875,-0.44140625,-42.31707317073171,45.243902439024396,12.073170731707318,125,3
122,0.82177734375,-0.1650390625,-0.47607421875,-44.63414634146342,42.25609756097561,9.390243902439025,125,3
123,0.8388671875,-0.1259765625,-0.5087890625,-46.58536585365854,41.890243902439025,5.914634146341464,125,3
124,0.83349609375,-0.0625,-0.48388671875,-52.987804878048784,44.57317073170732,4.51219512195122,125,3
125,0.77978515625,-0.109375,-0.3759765625,-58.78048780487806,45.97560975609756,4.390243902439025,125,3
126,0.74267578125,-0.1220703125,-0.49267578125,-63.59756097560976,47.07317073170732,3.7195121951219514,125,3
127,0.74365234375,-0.07568359375,-0.49169921875,-69.57317073170732,48.29268292682927,2.5609756097560976,125,3
128,0.76416015625,-0.0400390625,-0.52783203125,-62.50000000000001,49.81707317073171,1.402439024390244,125,3
129,0.72900390625,-0.05908203125,-0.501953125,-84.26829268292684,49.81707317073171,0.48780487804878053,125,3
130,0.69580078125,-0.0859375,-0.48974609375,-87.6219512195122,48.04878048780488,0.0,125,3
131,0.68505859375,-0.0810546875,-0.5068359375,-90.42682926829269,47.31707317073171,-2.987804878048781,125,3
132,0.7119140625,-0.03759765625,-0.50537109375,-93.47560975609757,46.09756097560976,-6.219512195121951,125,3
133,0.7314453125,-0.01318359375,-0.52685546875,-95.79268292682927,43.84146341463415,-9.573170731707318,125,3
134,0.73486328125,-0.001953125,-0.53125,-98.59756097560977,42.19512195121951,-12.01219512195122,125,3
135,0.7080078125,-0.0087890625,-0.57177734375,-103.47560975609757,40.85365853658537,-0.12195121951219513,125,3
136,0.71337890625,0.0283203125,-0.59130859375,-109.93902439024392,40.426829268292686,-19.26829268292683,125,3
137,0.72216796875,0.04736328125,-0.576171875,-118.96341463414635,41.21951219512196,-23.170731707317074,125,3
138,0.744140625,0.0283203125,-0.56103515625,-125.91463414634147,41.951219512195124,-25.853658536585368,125,3
139,0.7255859375,-0.001953125,-0.54541015625,-130.0609756097561,40.91463414634147,-27.743902439024392,125,3
140,0.72412109375,-0.0263671875,-0.52197265625,-132.31707317073173,39.024390243902445,-31.09756097560976,125,3
141,0.73779296875,-0.01318359375,-0.55615234375,-133.2317073170732,37.25609756097561,-34.451219512195124,125,3
142,0.77880859375,0.029296875,-0.568359375,-136.70731707317074,37.01219512195122,-37.926829268292686,125,3
143,0.8232421875,0.0537109375,-0.576171875,-141.95121951219514,37.13414634146342,-40.91463414634147,125,3
144,0.84228515625,0.05419921875,-0.58544921875,-148.53658536585368,38.04878048780488,-43.59756097560976,125,3
145,0.84423828125,0.0400390625,-0.61376953125,-157.31707317073173,39.93902439024391,-31.34146341463415,125,3
146,0.86083984375,0.05859375,-0.6005859375,-165.00000000000003,42.07317073170732,-50.1829268292683,125,3
147,0.8720703125,0.044921875,-0.55712890625,-170.6707317073171,42.987804878048784,-52.13414634146342,125,3
148,0.861328125,-0.00537109375,-0.56005859375,-174.26829268292684,42.19512195121951,-55.73170731707317,125,3
149,0.86669921875,0.01171875,-0.57275390625,-175.1219512195122,41.34146341463415,-59.51219512195122,125,3
150,0.89794921875,0.0390625,-0.5634765625,-176.58536585365854,40.487804878048784,-63.41463414634147,125,3
151,0.919921875,0.0693359375,-0.5615234375,-180.06097560975613,41.34146341463415,-68.10975609756098,125,3
152,0.98193359375,0.09765625,-0.62255859375,-182.50000000000003,42.19512195121951,-73.84146341463415,125,3
153,1.01806640625,0.17626953125,-0.6142578125,-189.02439024390245,45.1829268292683,-79.14634146341464,125,3
154,1.05810546875,0.17431640625,-0.62744140625,-197.37804878048783,48.90243902439025,-85.42682926829269,125,3
155,1.10498046875,0.18701171875,-0.57275390625,-206.52439024390245,53.71951219512196,-90.2439024390244,125,3
156,1.1337890625,0.1474609375,-0.595703125,-214.26829268292684,55.79268292682927,-78.17073170731707,125,3
157,1.12060546875,0.09912109375,-0.58447265625,-216.09756097560978,57.560975609756106,-98.47560975609757,125,3
158,1.14794921875,0.08984375,-0.56201171875,-214.26829268292684,58.10975609756098,-103.59756097560977,125,3
159,1.17236328125,0.107421875,-0.533203125,-212.25609756097563,58.78048780487806,-93.78048780487806,125,3
160,1.228515625,0.119140625,-0.548828125,-210.5487804878049,59.268292682926834,-114.57317073170732,125,3
161,1.2255859375,0.109375,-0.58349609375,-209.02439024390245,59.146341463414636,-118.84146341463416,125,3
162,1.228515625,0.10693359375,-0.56787109375,-209.57317073170734,63.10975609756098,-124.08536585365854,125,3
163,1.2900390625,0.1630859375,-0.5703125,-210.85365853658539,66.09756097560977,-128.47560975609758,125,3
164,1.32177734375,0.1611328125,-0.5615234375,-211.64634146341464,67.5609756097561,-132.9878048780488,125,3
165,1.25146484375,0.197265625,-0.58447265625,-213.59756097560978,70.3048780487805,-138.109756097561,125,3
166,1.40185546875,0.2568359375,-0.54736328125,-218.109756097561,73.71951219512195,-143.84146341463415,125,3
167,1.4482421875,0.24072265625,-0.55322265625,-220.3658536585366,75.97560975609757,-148.96341463414635,125,3
168,1.4521484375,0.17333984375,-0.57470703125,-220.06097560975613,77.98780487804879,-153.47560975609758,125,3
169,1.44677734375,0.16796875,-0.556640625,-216.70731707317074,78.47560975609757,-158.2317073170732,125,3
170,1.4619140625,0.21484375,-0.52978515625,-212.25609756097563,78.71951219512196,-162.6219512195122,125,3
171,1.48388671875,0.22265625,-0.53125,-208.2317073170732,77.7439024390244,-166.52439024390245,125,3
172,1.4970703125,0.263671875,-0.48876953125,-206.89024390243904,79.39024390243902,-170.4878048780488,125,3
173,1.52783203125,0.2978515625,-0.4462890625,-206.82926829268294,82.13414634146342,-174.93902439024393,125,3
174,1.53271484375,0.306640625,-0.3779296875,-205.85365853658539,83.23170731707317,-179.08536585365854,125,3
175,1.5703125,0.34326171875,-0.2587890625,-218.109756097561,82.01219512195122,-183.71951219512198,125,3
176,1.638671875,0.44677734375,-0.49609375,-197.25609756097563,81.52439024390245,-190.7926829268293,125,3
177,1.720703125,0.517578125,-0.365234375,-195.609756097561,81.09756097560977,-199.81707317073173,125,3
178,1.78173828125,0.62109375,-0.41796875,-193.47560975609758,81.21951219512196,-208.78048780487808,125,3
179,1.82861328125,0.4931640625,-0.380859375,-190.91463414634148,81.40243902439025,-214.57317073170734,125,3
180,1.8642578125,0.5048828125,-0.34033203125,-190.4268292682927,82.13414634146342,-217.8658536585366,125,3
181,1.87109375,0.54833984375,-0.37353515625,-187.56097560975613,83.71951219512196,-220.18292682926833,125,3
182,1.857421875,0.58544921875,-0.0869140625,-186.52439024390245,86.70731707317074,-224.20731707317074,125,3
183,1.8408203125,0.6103515625,-0.01513671875,-185.3658536585366,89.45121951219512,-227.19512195121953,125,3
184,1.796875,0.60595703125,0.0712890625,-182.01219512195124,96.40243902439025,-231.40243902439028,125,3
185,1.8193359375,0.65478515625,0.0810546875,-177.01219512195124,101.34146341463415,-236.03658536585368,125,3
186,1.84619140625,0.74462890625,0.087890625,-173.109756097561,108.04878048780489,-240.4268292682927,125,3
187,1.89990234375,0.6083984375,0.0703125,-168.84146341463415,115.2439024390244,-244.08536585365854,125,3
188,1.9228515625,0.55810546875,0.02783203125,-162.01219512195124,122.50000000000001,-247.74390243902442,125,3
189,1.9697265625,0.552734375,-0.03173828125,-159.87804878048783,130.1219512195122,-250.18292682926833,125,3
190,1.958984375,0.5029296875,-0.10498046875,-162.6219512195122,139.32926829268294,-253.84146341463418,125,3
191,1.93896484375,0.4541015625,-0.107421875,-163.0487804878049,145.97560975609758,-255.4878048780488,125,3
192,1.90185546875,0.3828125,-0.095703125,-161.03658536585368,150.609756097561,-256.4634146341464,125,3
193,1.8486328125,0.28515625,-0.119140625,-156.34146341463415,155.0,-257.6829268292683,125,3
194,1.79150390625,0.37451171875,-0.1328125,-147.6219512195122,155.97560975609758,-260.1829268292683,125,3
195,1.73291015625,0.2353515625,-0.2431640625,-139.39024390243904,156.52439024390245,-260.0,125,3
196,1.6669921875,0.1982421875,-0.10009765625,-132.9268292682927,158.109756097561,-260.7317073170732,125,3
197,1.5615234375,0.16552734375,-0.11279296875,-128.109756097561,156.52439024390245,-259.45121951219517,125,3
198,1.46142578125,0.1005859375,-0.193359375,-122.50000000000001,157.43902439024393,-259.51219512195127,125,3
199,1.36083984375,0.044921875,-0.22802734375,-115.91463414634147,157.13414634146343,-258.5365853658537,125,3
200,1.23486328125,-0.02294921875,-0.244140625,-106.34146341463416,154.57317073170734,-255.4268292682927,125,3
201,1.09375,-0.06591796875,-0.2255859375,-98.17073170731709,150.5487804878049,-251.95121951219514,125,3
202,1.11962890625,-0.0771484375,-0.19189453125,-91.76829268292684,146.21951219512195,-246.70731707317074,125,3
203,0.90673828125,-0.1025390625,-0.22021484375,-85.00000000000001,144.02439024390245,-240.3658536585366,125,3
204,0.81396484375,-0.1171875,-0.158203125,-80.0,142.8658536585366,-235.7317073170732,125,3
205,0.75244140625,-0.12646484375,-0.0751953125,-75.3658536585366,140.7317073170732,-232.31707317073173,125,3
206,0.7236328125,-0.173828125,-0.0458984375,-72.25609756097562,137.7439024390244,-228.84146341463418,125,3
207,0.69921875,-0.169921875,-0.05029296875,-69.51219512195122,135.91463414634148,-224.32926829268294,125,3
208,0.599609375,-0.240234375,-0.017578125,-68.41463414634147,133.2317073170732,-220.5487804878049,125,3
209,0.568359375,-0.30859375,-0.0283203125,-66.46341463414635,129.20731707317074,-215.6707317073171,125,3
210,0.4892578125,-0.36962890625,-0.03125,-60.79268292682927,140.1829268292683,-210.1829268292683,125,3
211,0.4326171875,-0.439453125,-0.05322265625,-51.89024390243903,116.89024390243904,-218.2317073170732,125,3
212,0.29052734375,-0.54296875,-0.01708984375,-41.40243902439025,109.81707317073172,-194.69512195121953,125,3
213,0.1875,-0.74169921875,-0.03466796875,-31.34146341463415,99.08536585365854,-187.6219512195122,125,3
214,0.10986328125,-0.666015625,0.0244140625,-19.878048780487806,85.91463414634147,-179.45121951219514,125,3
215,0.01513671875,-0.7255859375,0.08056640625,-11.219512195121952,76.34146341463415,-187.13414634146343,125,3
216,0.03857421875,-0.751953125,0.05322265625,-6.52439024390244,68.23170731707317,-159.32926829268294,125,3
217,-0.01611328125,-0.85546875,-0.0009765625,-4.207317073170732,60.00000000000001,-146.03658536585368,125,3
218,-0.2041015625,-0.99658203125,-0.05029296875,-15.426829268292684,53.78048780487806,-131.21951219512195,125,3
219,-0.22607421875,-1.10009765625,-0.10595703125,4.024390243902439,62.25609756097562,-111.76829268292684,125,3
220,-0.423828125,-1.1669921875,0.03857421875,5.914634146341464,42.19512195121951,-108.96341463414635,125,3
221,-0.501953125,-1.294921875,0.041015625,6.829268292682928,38.10975609756098,-74.45121951219512,125,3
222,-0.5205078125,-1.36279296875,0.017578125,5.121951219512195,33.65853658536586,-55.0609756097561,125,3
223,-0.51025390625,-1.45361328125,0.0830078125,4.939024390243903,29.39024390243903,-35.670731707317074,125,3
224,-0.6748046875,-1.57861328125,0.08203125,9.939024390243903,22.926829268292686,-16.402439024390244,125,3
225,-0.71435546875,-1.6796875,0.1123046875,19.573170731707318,30.975609756097565,2.0121951219512195,125,3
226,-0.6884765625,-1.76611328125,0.0615234375,30.121951219512198,9.085365853658537,21.402439024390247,125,3
227,-0.66650390625,-1.7724609375,0.00927734375,40.85365853658537,2.25609756097561,39.75609756097561,125,3
228,-0.6025390625,-1.79248046875,-0.0380859375,50.304878048780495,-2.9268292682926833,58.84146341463415,125,3
229,-0.55078125,-1.8173828125,-0.017578125,59.207317073170735,-6.707317073170732,77.92682926829269,125,3
230,-0.4892578125,-1.85205078125,-0.03369140625,66.40243902439025,-10.30487804878049,99.26829268292684,125,3
231,-0.431640625,-1.8818359375,-0.0830078125,74.14634146341464,-16.219512195121954,120.00000000000001,125,3
232,-0.3486328125,-1.93017578125,-0.11181640625,82.5609756097561,-21.219512195121954,144.9390243902439,125,3
233,-0.28076171875,-1.8876953125,-0.1240234375,88.41463414634147,-26.34146341463415,157.6829268292683,125,3
234,-0.236328125,-2.0126953125,-0.1767578125,95.1219512195122,-30.975609756097565,202.8048780487805,125,3
235,-0.1484375,-2.19775390625,-0.2099609375,100.3048780487805,-35.487804878048784,232.25609756097563,125,3
236,-0.01953125,-2.24951171875,-0.154296875,104.57317073170732,-40.36585365853659,258.2926829268293,125,3
237,0.17333984375,-2.3017578125,-0.1748046875,110.1219512195122,-45.426829268292686,266.5243902439025,125,3
238,0.4169921875,-2.3310546875,-0.1923828125,119.20731707317074,-49.51219512195122,304.51219512195127,125,3
239,0.67529296875,-2.34619140625,-0.275390625,128.1707317073171,-54.39024390243903,327.6219512195122,125,3
240,0.7578125,-2.45703125,-0.39697265625,141.58536585365854,-59.39024390243903,354.26829268292687,125,3
241,1.0947265625,-2.5810546875,-0.51904296875,140.7926829268293,-64.02439024390245,384.51219512195127,125,3
242,1.33251953125,-2.74365234375,-0.57177734375,157.07317073170734,-66.28048780487805,415.9756097560976,125,3
243,1.58251953125,-2.7744140625,-0.74462890625,192.6219512195122,-70.42682926829269,450.06097560975616,125,3
244,1.90625,-3.07470703125,-0.9931640625,215.2439024390244,-75.0,468.4146341463415,125,3
245,2.30517578125,-3.2001953125,-1.35302734375,244.75609756097563,-81.21951219512196,519.0853658536586,125,3
246,2.740234375,-3.3935546875,-1.62060546875,277.6829268292683,-85.91463414634147,532.3170731707318,125,3
247,3.16015625,-3.41357421875,-1.7998046875,297.4390243902439,-90.91463414634147,568.9634146341464,125,3
248,3.85107421875,-3.443359375,-1.8837890625,345.00000000000006,-94.69512195121952,589.6341463414635,125,3
249,4.48583984375,-3.53857421875,-2.201171875,405.7317073170732,-81.46341463414635,607.1951219512196,125,3
250,5.06201171875,-3.75,-2.412109375,430.18292682926835,-48.170731707317074,623.4146341463415,125,3
251,5.40087890625,-3.95458984375,-2.55029296875,449.39024390243907,-11.036585365853659,643.109756097561,125,3
252,5.63720703125,-3.953125,-2.87646484375,462.07317073170736,1.3414634146341464,656.2804878048781,125,3
253,6.158203125,-3.642578125,-3.62255859375,473.04878048780495,43.963414634146346,715.6707317073171,125,3
254,6.95947265625,-3.466796875,-3.9638671875,485.18292682926835,18.719512195121954,751.8902439024391,125,3
255,7.595703125,-3.54931640625,-4.2275390625,539.8780487804878,-27.25609756097561,823.1707317073171,125,3
256,8.349609375,-3.408203125,-4.50048828125,563.9634146341464,-87.25609756097562,859.2682926829269,125,3
257,8.6982421875,-2.9208984375,-5.2158203125,627.5609756097562,-154.08536585365854,891.2804878048781,125,3
258,8.91748046875,-2.533203125,-6.2841796875,733.1707317073171,-233.71951219512198,900.7926829268293,125,3
259,9.32080078125,-1.986328125,-6.96728515625,832.8048780487806,-285.9756097560976,848.5365853658537,125,3
260,8.7099609375,-2.0224609375,-6.919921875,978.048780487805,-367.8048780487805,789.2073170731708,125,3
261,8.025390625,-2.353515625,-7.177734375,1062.5,-495.60975609756105,677.5609756097562,125,3
262,7.8056640625,-2.2158203125,-7.962890625,1206.6463414634147,-612.3170731707318,512.9878048780488,125,3
263,8.1787109375,-1.08154296875,-12.75048828125,1113.048780487805,-867.439024390244,496.70731707317077,125,3
264,6.50537109375,-8.9462890625,-1.79736328125,1377.6219512195123,49.69512195121952,-209.75609756097563,125,3
265,12.45556640625,5.369140625,-2.57958984375,767.5609756097562,2.987804878048781,-404.20731707317077,125,3
266,15.98388671875,1.6005859375,-5.39990234375,1248.2926829268295,-662.8048780487806,-122.6829268292683,125,3
267,6.22216796875,5.4404296875,-1.6181640625,1062.5609756097563,-190.7926829268293,-180.85365853658539,125,3
268,3.525390625,1.0498046875,-0.1552734375,1062.5,-81.03658536585367,-264.51219512195127,125,3
269,2.38037109375,-2.48388671875,-3.849609375,720.8536585365854,-198.90243902439025,-478.109756097561,125,3
270,4.34521484375,0.9716796875,-2.3798828125,770.8536585365854,-96.70731707317074,-443.4146341463415,125,3
271,3.69775390625,-1.08203125,-1.76806640625,764.939024390244,-123.41463414634147,-534.8780487804878,125,3
272,3.53662109375,-0.74951171875,-1.7421875,600.4268292682927,-56.707317073170735,-610.9756097560976,125,3
273,2.42333984375,-1.00244140625,-1.4951171875,524.8170731707318,-12.865853658536587,-595.3048780487806,125,3
274,2.037109375,-1.2490234375,-1.5126953125,454.87804878048786,58.47560975609757,-600.6707317073171,125,3
275,1.873046875,-1.4228515625,-1.30712890625,420.8536585365854,93.17073170731707,-600.8536585365854,125,3
276,1.6064453125,-1.52001953125,-0.87939453125,353.1707317073171,132.13414634146343,-614.6951219512196,125,3
277,1.95947265625,-1.1318359375,-0.98779296875,309.75609756097566,161.70731707317074,-632.439024390244,125,3
278,2.55712890625,-0.65234375,-1.5859375,228.0487804878049,195.7317073170732,-651.6463414634147,125,3
279,3.3330078125,-0.349609375,-1.40869140625,126.89024390243904,229.08536585365854,-617.6219512195122,125,3
280,2.794921875,-1.0888671875,-0.8369140625,67.5,234.20731707317074,-595.1829268292684,125,3
281,2.34521484375,-1.5546875,-0.525390625,27.073170731707318,280.3658536585366,-592.2560975609757,125,3
282,2.0810546875,-1.62158203125,-0.8212890625,1.707317073170732,274.8170731707317,-549.2073170731708,125,3
283,1.923828125,-1.361328125,-1.119140625,-26.951219512195124,280.7317073170732,-528.2317073170732,125,3
284,1.7978515625,-1.24462890625,-0.83349609375,-53.17073170731708,282.19512195121956,-529.7560975609756,125,3
285,1.8671875,-1.0234375,-0.58740234375,-71.09756097560977,284.81707317073176,-493.3536585365854,125,3
286,1.55224609375,-0.9853515625,-0.46484375,-79.57317073170732,292.8658536585366,-477.01219512195127,125,3
287,1.35888671875,-0.92626953125,-0.39453125,-113.53658536585367,305.9756097560976,-457.19512195121956,125,3
288,1.3115234375,-0.85595703125,-0.34375,-137.8658536585366,307.6219512195122,-433.719512195122,125,3
289,1.3984375,-0.77783203125,-0.57470703125,-150.3658536585366,308.0487804878049,-400.609756097561,125,3
290,1.22021484375,-0.734375,-0.91064453125,-159.93902439024393,303.1707317073171,-374.87804878048786,125,3
291,1.23291015625,-0.669921875,-1.08740234375,-174.14634146341464,304.32926829268297,-352.31707317073176,125,3
292,0.89111328125,-0.76025390625,-1.00244140625,-186.76829268292684,297.37804878048786,-330.4268292682927,125,3
293,0.775390625,-0.765625,-0.7001953125,-207.9268292682927,325.9146341463415,-302.9878048780488,125,3
294,0.6455078125,-0.8896484375,-0.583984375,-201.76829268292684,319.51219512195127,-278.2317073170732,125,3
295,0.40625,-0.71630859375,-0.79052734375,-183.96341463414635,307.9268292682927,-253.53658536585368,125,3
296,0.4921875,-0.46044921875,-0.9541015625,-181.21951219512198,311.1585365853659,-227.13414634146343,125,3
297,0.328125,-0.36083984375,-0.9775390625,-178.90243902439025,287.01219512195127,-208.2926829268293,125,3
298,0.21240234375,-0.29638671875,-0.869140625,-179.69512195121953,285.4878048780488,-197.19512195121953,125,3
299,0.0888671875,-0.2900390625,-0.5302734375,-172.07317073170734,284.20731707317077,-188.84146341463418,125,3
300,0.04443359375,-0.22412109375,-0.603515625,-194.02439024390245,276.1585365853659,-176.95121951219514,125,3
301,0.12744140625,-0.05224609375,-0.74365234375,-196.09756097560978,279.45121951219517,-165.00000000000003,125,3
302,0.17236328125,0.052734375,-0.79541015625,-188.53658536585368,264.26829268292687,-154.20731707317074,125,3
303,0.07958984375,0.0625,-0.75390625,-183.35365853658539,232.43902439024393,-143.96341463414635,125,3
304,-0.10009765625,0.0322265625,-0.64697265625,-175.7926829268293,219.93902439024393,-135.609756097561,125,3
305,-0.30712890625,-0.03076171875,-0.60205078125,-168.84146341463415,209.51219512195124,-140.3658536585366,125,3
306,-0.52783203125,-0.08984375,-0.5732421875,-165.7926829268293,202.37804878048783,-116.15853658536587,125,3
307,-0.61572265625,-0.04248046875,-0.57275390625,-167.13414634146343,193.35365853658539,-108.35365853658537,125,3
308,-0.619140625,0.04296875,-0.61767578125,-168.41463414634148,184.02439024390245,-102.92682926829269,125,3
309,-0.52978515625,0.16943359375,-0.576171875,-162.25609756097563,187.19512195121953,-97.8658536585366,125,3
310,-0.5302734375,0.18798828125,-0.572265625,-153.65853658536588,156.58536585365854,-89.02439024390245,125,3
311,-0.734375,0.126953125,-0.5234375,-151.09756097560978,146.89024390243904,-80.1829268292683,125,3
312,-0.77685546875,0.05517578125,-0.50146484375,-145.0,135.91463414634148,-69.63414634146342,125,3
313,-0.94677734375,-0.0732421875,-0.5,-137.8658536585366,128.109756097561,-63.35365853658537,125,3
314,-1.0419921875,-0.0810546875,-0.4833984375,-130.609756097561,123.84146341463416,-57.50000000000001,125,3
315,-1.01708984375,-0.08447265625,-0.4052734375,-121.52439024390245,118.47560975609757,-53.59756097560976,125,3
316,-0.9140625,-0.05029296875,-0.32421875,-113.71951219512196,112.98780487804879,-51.524390243902445,125,3
317,-0.8408203125,-0.00341796875,-0.3056640625,-109.39024390243904,105.79268292682927,-49.75609756097561,125,3
318,-0.83251953125,-0.0068359375,-0.380859375,-101.64634146341464,99.02439024390245,-45.1829268292683,125,3
319,-0.88818359375,-0.060546875,-0.40576171875,-91.76829268292684,90.97560975609757,-39.451219512195124,125,3
320,-0.98828125,-0.10888671875,-0.4091796875,-82.07317073170732,83.35365853658537,-32.86585365853659,125,3
321,-1.107421875,-0.12255859375,-0.3623046875,-76.40243902439025,93.29268292682927,-25.0609756097561,125,3
322,-1.19921875,-0.10888671875,-0.357421875,-69.08536585365854,70.79268292682927,-30.853658536585368,125,3
323,-1.2646484375,-0.2470703125,-0.3681640625,-77.5,62.50000000000001,-9.51219512195122,125,3
324,-1.2734375,-0.06689453125,-0.49072265625,-57.31707317073171,55.426829268292686,-5.975609756097562,125,3
325,-1.236328125,-0.02783203125,-0.34228515625,-55.426829268292686,48.41463414634147,-2.8658536585365857,125,3
326,-1.20263671875,0.00390625,-0.29345703125,-54.81707317073171,40.304878048780495,0.426829268292683,125,3
327,-1.19287109375,0.02099609375,-0.3017578125,-52.43902439024391,30.182926829268297,3.1097560975609757,125,3
328,-1.19921875,-0.001953125,-0.33837890625,-48.29268292682927,19.634146341463417,7.195121951219513,125,3
329,-1.20263671875,-0.02734375,-0.2734375,-41.03658536585366,11.463414634146343,11.52439024390244,125,3
330,-1.20361328125,-0.0380859375,-0.2099609375,-36.15853658536586,4.390243902439025,17.012195121951223,125,3
331,-1.22607421875,-0.033203125,-0.20947265625,-31.82926829268293,-2.378048780487805,20.0609756097561,125,3
332,-1.20166015625,0.0224609375,-0.24169921875,-25.731707317073173,-8.048780487804878,20.426829268292686,125,3
333,-1.14501953125,0.0859375,-0.2763671875,-20.0,-11.341463414634147,20.121951219512198,125,3
334,-1.099609375,0.146484375,-0.2607421875,-14.02439024390244,-16.097560975609756,20.48780487804878,125,3
335,-1.1005859375,0.16552734375,-0.2177734375,-10.792682926829269,-23.719512195121954,20.60975609756098,125,3
336,-1.12060546875,0.1689453125,-0.19677734375,-8.475609756097562,-29.32926829268293,20.79268292682927,125,3
337,-1.13525390625,0.17138671875,-0.16455078125,-6.2804878048780495,-36.707317073170735,21.219512195121954,125,3
338,-1.1474609375,0.17138671875,-0.16259765625,-3.8414634146341466,-41.28048780487805,22.134146341463417,125,3
339,-1.1767578125,0.1669921875,-0.13330078125,-2.0121951219512195,-49.085365853658544,23.170731707317074,125,3
340,-1.1806640625,0.16357421875,-0.1015625,1.1585365853658538,-56.40243902439025,24.81707317073171,125,3
341,-1.1728515625,0.14990234375,-0.04541015625,4.329268292682928,-47.25609756097561,25.670731707317074,125,3
342,-1.16845703125,0.15380859375,-0.0234375,7.01219512195122,-68.90243902439025,26.158536585365855,125,3
343,-1.15576171875,0.1767578125,-0.041015625,8.902439024390244,-73.10975609756098,25.792682926829272,125,3
344,-1.00146484375,0.20068359375,-0.0263671875,12.317073170731708,-77.5,24.878048780487806,125,3
345,-1.09716796875,0.20947265625,-0.0322265625,16.097560975609756,-84.08536585365854,24.512195121951223,125,3
346,-1.05908203125,0.22705078125,0.00390625,18.231707317073173,-90.0609756097561,24.75609756097561,125,3
347,-1.03515625,0.220703125,0.046875,18.78048780487805,-94.75609756097562,25.792682926829272,125,3
348,-1.02099609375,0.21826171875,0.08984375,17.5,-98.59756097560977,26.463414634146343,125,3
349,-1.01611328125,0.21240234375,0.14990234375,16.34146341463415,-101.09756097560977,27.012195121951223,125,3
350,-0.99169921875,0.20068359375,0.16259765625,17.012195121951223,-102.8658536585366,27.195121951219516,125,3
351,-0.97021484375,0.212890625,0.16064453125,20.426829268292686,-106.46341463414635,26.707317073170735,125,3
352,-0.95556640625,0.236328125,0.15283203125,25.48780487804878,-110.79268292682927,26.158536585365855,125,3
353,-0.91015625,0.263671875,0.1630859375,15.79268292682927,-117.13414634146342,25.121951219512198,125,3
354,-0.91064453125,0.251953125,0.20703125,36.28048780487805,-121.58536585365854,24.512195121951223,125,3
355,-0.88671875,0.27783203125,0.23388671875,38.170731707317074,-122.8048780487805,23.719512195121954,125,3
356,-0.84912109375,0.30419921875,0.2734375,37.5609756097561,-123.71951219512196,24.32926829268293,125,3
357,-0.83251953125,0.326171875,0.30126953125,36.646341463414636,-123.96341463414635,25.54878048780488,125,3
358,-0.82373046875,0.322265625,0.31103515625,35.85365853658537,-125.60975609756099,26.28048780487805,125,3
359,-0.82275390625,0.322265625,0.30517578125,37.07317073170732,-129.45121951219514,26.52439024390244,125,3
360,-0.80224609375,0.3271484375,0.30029296875,39.08536585365854,-132.7439024390244,25.853658536585368,125,3
361,-0.78515625,0.31396484375,0.31103515625,40.85365853658537,-136.09756097560978,25.54878048780488,125,3
362,-0.7763671875,0.302734375,0.3623046875,44.451219512195124,-138.90243902439025,26.28048780487805,125,3
363,-0.7705078125,0.2646484375,0.40869140625,49.268292682926834,-141.28048780487805,27.012195121951223,125,3
364,-0.7666015625,0.2529296875,0.4375,53.59756097560976,-142.37804878048783,27.621951219512198,125,3
365,-0.73486328125,0.2666015625,0.451171875,55.67073170731708,-143.59756097560978,27.682926829268297,125,3
366,-0.70263671875,0.29248046875,0.48828125,56.768292682926834,-144.87804878048783,28.53658536585366,125,3
367,-0.6640625,0.30126953125,0.49462890625,56.09756097560976,-145.7926829268293,30.30487804878049,125,3
368,-0.6357421875,0.31787109375,0.52490234375,54.207317073170735,-146.34146341463415,32.31707317073171,125,3
369,-0.61767578125,0.32470703125,0.52587890625,52.43902439024391,-146.34146341463415,34.146341463414636,125,3
370,-0.60400390625,0.33251953125,0.55419921875,51.524390243902445,-146.15853658536588,35.243902439024396,125,3
371,-0.5673828125,0.3359375,0.556640625,52.86585365853659,-148.41463414634148,36.58536585365854,125,3
372,-0.5283203125,0.3330078125,0.55078125,56.40243902439025,-149.93902439024393,36.951219512195124,125,3
373,-0.5087890625,0.33447265625,0.57958984375,60.1829268292683,-151.15853658536588,37.43902439024391,125,3
374,-0.46142578125,0.3359375,0.5908203125,62.987804878048784,-151.95121951219514,37.5609756097561,125,3
375,-0.42138671875,0.3369140625,0.50146484375,62.01219512195122,-151.15853658536588,37.43902439024391,125,3
376,-0.390625,0.3564453125,0.63427734375,60.243902439024396,-150.5487804878049,38.35365853658537,125,3
377,-0.37109375,0.35400390625,0.6494140625,58.23170731707317,-151.03658536585368,39.69512195121951,125,3
378,-0.3505859375,0.35009765625,0.63427734375,59.207317073170735,-152.9878048780488,41.34146341463415,125,3
379,-0.33544921875,0.31640625,0.65576171875,61.585365853658544,-153.90243902439025,42.50000000000001,125,3
380,-0.3271484375,0.31103515625,0.6826171875,65.0,-153.84146341463415,43.65853658536586,125,3
381,-0.29931640625,0.310546875,0.68994140625,62.865853658536594,-150.7926829268293,43.78048780487805,125,3
382,-0.26220703125,0.333984375,0.69482421875,59.75609756097562,-147.8048780487805,45.36585365853659,125,3
383,-0.24267578125,0.33984375,0.7080078125,58.90243902439025,-145.97560975609758,47.25609756097561,125,3
384,-0.22900390625,0.3515625,0.70361328125,57.560975609756106,-144.75609756097563,49.024390243902445,125,3
385,-0.21337890625,0.36181640625,0.68603515625,56.34146341463415,-143.59756097560978,50.487804878048784,125,3
386,-0.18603515625,0.36376953125,0.68994140625,53.04878048780488,-141.89024390243904,50.79268292682927,125,3
387,-0.1650390625,0.3828125,0.67822265625,52.01219512195122,-140.3658536585366,51.585365853658544,125,3
388,-0.1298828125,0.3876953125,0.65625,54.39024390243903,-141.95121951219514,53.29268292682927,125,3
389,-0.11474609375,0.392578125,0.6416015625,57.6829268292683,-144.02439024390245,54.87804878048781,125,3
390,-0.10888671875,0.384765625,0.64892578125,60.00000000000001,-145.7317073170732,56.463414634146346,125,3
391,-0.1044921875,0.400390625,0.68505859375,60.79268292682927,-145.4268292682927,57.43902439024391,125,3
392,-0.09130859375,0.4208984375,0.712890625,55.67073170731708,-140.6707317073171,57.37804878048781,125,3
393,-0.0625,0.435546875,0.7294921875,49.69512195121952,-137.31707317073173,59.024390243902445,125,3
394,-0.06640625,0.43408203125,0.7392578125,46.34146341463415,-134.9390243902439,61.21951219512196,125,3
395,-0.0693359375,0.42236328125,0.73876953125,47.50000000000001,-135.3048780487805,63.29268292682927,125,3
396,-0.06640625,0.39697265625,0.72021484375,51.34146341463415,-135.97560975609758,64.45121951219512,125,3
397,-0.0322265625,0.41015625,0.6943359375,58.04878048780488,-139.57317073170734,65.2439024390244,125,3
398,0.0068359375,0.41748046875,0.66552734375,63.90243902439025,-141.58536585365854,64.87804878048782,125,3
399,0.0517578125,0.462890625,0.66455078125,66.82926829268293,-142.5609756097561,65.3048780487805,125,3
400,0.06982421875,0.47705078125,0.62939453125,63.41463414634147,-156.03658536585368,65.79268292682927,125,3
401,0.107421875,0.5283203125,0.626953125,56.89024390243903,-137.6829268292683,66.89024390243902,125,3
402,0.12548828125,0.55029296875,0.67041015625,51.89024390243903,-134.57317073170734,68.96341463414635,125,3
403,0.12890625,0.53076171875,0.7119140625,47.13414634146342,-131.70731707317074,70.67073170731707,125,3
404,0.13134765625,0.5078125,0.71923828125,45.670731707317074,-128.47560975609758,71.82926829268294,125,3
405,0.14013671875,0.4921875,0.67626953125,47.86585365853659,-127.13414634146342,71.70731707317074,125,3
406,0.16015625,0.38037109375,0.62890625,53.47560975609757,-127.8658536585366,70.54878048780489,125,3
407,0.21728515625,0.53662109375,0.57275390625,57.804878048780495,-129.69512195121953,68.96341463414635,125,3
408,0.23779296875,0.55126953125,0.50830078125,58.963414634146346,-131.46341463414635,66.46341463414635,125,3
409,0.26953125,0.5654296875,0.45068359375,56.40243902439025,-131.58536585365854,77.92682926829269,125,3
410,0.32177734375,0.6064453125,0.46142578125,51.89024390243903,-130.0609756097561,58.90243902439025,125,3
411,0.34765625,0.748046875,0.46337890625,47.6829268292683,-129.9390243902439,57.19512195121952,125,3
412,0.36474609375,0.62255859375,0.44287109375,46.21951219512196,-130.4268292682927,55.79268292682927,125,3
413,0.37451171875,0.61328125,0.4580078125,46.463414634146346,-129.63414634146343,53.59756097560976,125,3
414,0.4140625,0.61328125,0.4873046875,49.69512195121952,-130.6707317073171,52.926829268292686,125,3
415,0.42578125,0.5986328125,0.5283203125,53.17073170731708,-129.02439024390245,53.17073170731708,125,3
416,0.412109375,0.57177734375,0.51708984375,53.17073170731708,-129.8780487804878,54.451219512195124,125,3
417,0.34619140625,0.533203125,0.50732421875,56.28048780487806,-128.1707317073171,55.365853658536594,125,3
418,0.32177734375,0.52978515625,0.52880859375,59.451219512195124,-126.40243902439026,57.01219512195122,125,3
419,0.306640625,0.53857421875,0.51220703125,58.65853658536586,-124.32926829268294,59.207317073170735,125,3
420,0.31201171875,0.53662109375,0.48583984375,58.04878048780488,-122.37804878048782,62.804878048780495,125,3
421,0.2939453125,0.5458984375,0.48486328125,57.987804878048784,-121.40243902439025,67.01219512195122,125,3
422,0.31103515625,0.5498046875,0.43603515625,58.29268292682927,-121.34146341463416,71.58536585365854,125,3
423,0.32861328125,0.54345703125,0.38916015625,54.268292682926834,-119.39024390243904,73.59756097560977,125,3
424,0.251953125,0.5634765625,0.3837890625,52.43902439024391,-118.65853658536587,77.07317073170732,125,3
425,0.40673828125,0.56640625,0.36474609375,52.6219512195122,-121.46341463414635,81.15853658536587,125,3
426,0.42236328125,0.5380859375,0.30419921875,54.69512195121952,-123.17073170731709,84.81707317073172,125,3
427,0.43701171875,0.54296875,0.3173828125,57.01219512195122,-122.98780487804879,87.50000000000001,125,3
428,0.48388671875,0.56298828125,0.34619140625,56.28048780487806,-120.85365853658537,88.84146341463415,125,3
429,0.5439453125,0.59521484375,0.3623046875,53.53658536585366,-118.10975609756099,91.34146341463415,125,3
430,0.57666015625,0.60693359375,0.3837890625,49.32926829268293,-115.79268292682927,94.08536585365854,125,3
431,0.5810546875,0.5888671875,0.3486328125,48.10975609756098,-114.81707317073172,96.15853658536587,125,3
432,0.5927734375,0.57177734375,0.3427734375,47.31707317073171,-113.78048780487806,97.37804878048782,125,3
433,0.60791015625,0.578125,0.318359375,46.463414634146346,-113.17073170731709,97.7439024390244,125,3
434,0.6396484375,0.5771484375,0.25390625,46.28048780487805,-115.12195121951221,99.51219512195122,125,3
435,0.5009765625,0.533203125,0.1953125,43.47560975609756,-113.59756097560977,99.26829268292684,125,3
436,0.666015625,0.5625,0.1826171875,40.91463414634147,-111.09756097560977,99.02439024390245,125,3
437,0.724609375,0.59814453125,0.2099609375,37.01219512195122,-109.81707317073172,99.93902439024392,125,3
438,0.73486328125,0.61376953125,0.2265625,33.04878048780488,-108.41463414634147,101.21951219512196,125,3
439,0.7138671875,0.57666015625,0.26806640625,28.10975609756098,-106.21951219512196,101.70731707317074,125,3
440,0.69677734375,0.5478515625,0.2900390625,26.34146341463415,-104.51219512195122,102.07317073170732,125,3
441,0.70703125,0.5244140625,0.30126953125,28.04878048780488,-104.57317073170732,101.40243902439025,125,3
442,0.71240234375,0.61474609375,0.28662109375,29.451219512195124,-103.59756097560977,99.45121951219512,125,3
443,0.7021484375,0.455078125,0.20068359375,32.07317073170732,-105.73170731707317,99.57317073170732,125,3
444,0.71240234375,0.427734375,0.14208984375,35.426829268292686,-105.06097560975611,98.65853658536587,125,3
445,0.62841796875,0.45751953125,0.13720703125,37.37804878048781,-105.00000000000001,97.37804878048782,125,3
446,0.77685546875,0.4658203125,0.13232421875,35.79268292682927,-102.25609756097562,97.31707317073172,125,3
447,0.7802734375,0.45068359375,0.09228515625,46.34146341463415,-96.34146341463415,96.21951219512196,125,3
448,0.7880859375,0.45361328125,0.05615234375,25.121951219512198,-90.3658536585366,95.3658536585366,125,3
449,0.8271484375,0.47021484375,0.06201171875,22.31707317073171,-87.07317073170732,94.32926829268294,125,3
450,0.8369140625,0.4482421875,0.0703125,22.5609756097561,-84.93902439024392,93.78048780487806,125,3
451,0.8388671875,0.42333984375,0.05908203125,23.902439024390247,-84.51219512195122,92.8658536585366,125,3
452,0.84375,0.40869140625,0.0634765625,27.134146341463417,-83.53658536585367,90.0609756097561,125,3
453,0.869140625,0.44091796875,0.05908203125,31.58536585365854,-84.02439024390245,87.13414634146342,125,3
454,0.900390625,0.482421875,0.05029296875,33.84146341463415,-83.71951219512196,84.08536585365854,125,3
455,0.89306640625,0.49169921875,0.0361328125,34.024390243902445,-83.23170731707317,81.89024390243902,125,3
456,0.88671875,0.48974609375,-0.00927734375,33.90243902439025,-82.01219512195122,79.20731707317074,125,3
457,0.88134765625,0.48583984375,-0.00732421875,31.951219512195124,-79.32926829268294,75.54878048780489,125,3
458,0.89794921875,0.3759765625,0.01123046875,26.76829268292683,-73.35365853658537,70.79268292682927,125,3
459,0.9248046875,0.51416015625,0.06396484375,19.085365853658537,-67.31707317073172,66.34146341463415,125,3
460,0.94091796875,0.50341796875,0.052734375,15.121951219512196,-63.78048780487806,63.78048780487806,125,3
461,0.904296875,0.4697265625,0.0341796875,16.219512195121954,-62.13414634146342,60.54878048780488,125,3
462,0.888671875,0.4365234375,0.02734375,20.48780487804878,-62.743902439024396,56.524390243902445,125,3
463,0.890625,0.42822265625,0.0126953125,24.32926829268293,-63.17073170731708,52.31707317073171,125,3
464,0.8828125,0.4326171875,0.0263671875,26.89024390243903,-62.6829268292683,49.085365853658544,125,3
465,0.87109375,0.4208984375,0.02294921875,25.000000000000004,-59.87804878048781,46.15853658536586,125,3
466,0.85302734375,0.421875,-0.00830078125,20.121951219512198,-55.1219512195122,44.207317073170735,125,3
467,0.83544921875,0.3984375,-0.0517578125,13.658536585365855,-49.69512195121952,41.707317073170735,125,3
468,0.85693359375,0.4296875,-0.0576171875,7.682926829268293,-45.487804878048784,39.93902439024391,125,3
469,0.86767578125,0.4140625,-0.05078125,3.4756097560975614,-41.890243902439025,38.59756097560976,125,3
470,0.84375,0.39306640625,-0.06396484375,0.12195121951219513,-39.75609756097561,38.47560975609756,125,3
471,0.81640625,0.3544921875,-0.0888671875,-2.6219512195121952,-36.951219512195124,37.07317073170732,125,3
472,0.80322265625,0.34326171875,-0.10009765625,-3.658536585365854,-34.69512195121951,34.93902439024391,125,3
473,0.82080078125,0.34814453125,-0.0830078125,-4.75609756097561,-32.13414634146342,32.80487804878049,125,3
474,0.82958984375,0.3564453125,-0.10009765625,-8.719512195121952,-30.792682926829272,31.03658536585366,125,3
475,0.80419921875,0.32421875,-0.14892578125,-10.24390243902439,-28.475609756097562,29.451219512195124,125,3
476,0.8037109375,0.30712890625,-0.15625,-10.060975609756099,-28.53658536585366,27.926829268292686,125,3
477,0.79541015625,0.30322265625,-0.14404296875,-10.060975609756099,-27.31707317073171,27.012195121951223,125,3
478,0.7939453125,0.3037109375,-0.00048828125,-11.219512195121952,-26.52439024390244,26.28048780487805,125,3
479,0.77099609375,0.267578125,-0.13916015625,-14.634146341463415,-23.78048780487805,25.426829268292686,125,3
480,0.77001953125,0.25146484375,-0.15966796875,-21.097560975609756,-19.02439024390244,22.926829268292686,125,3
481,0.80078125,0.27001953125,-0.16845703125,-26.76829268292683,-30.914634146341466,20.731707317073173,125,3
482,0.82958984375,0.28271484375,-0.158203125,-31.402439024390247,-11.951219512195124,19.512195121951223,125,3
483,0.80712890625,0.2548828125,-0.1513671875,-35.670731707317074,-9.817073170731708,18.53658536585366,125,3
484,0.7822265625,0.2158203125,-0.14404296875,-36.646341463414636,-8.292682926829269,17.743902439024392,125,3
485,0.75537109375,0.1826171875,-0.13134765625,-34.024390243902445,-9.817073170731708,16.585365853658537,125,3
486,0.74951171875,0.1484375,-0.14453125,-29.87804878048781,-12.073170731707318,14.939024390243905,125,3
487,0.72607421875,0.14013671875,-0.169921875,-25.60975609756098,-13.414634146341465,13.841463414634148,125,3
488,0.73583984375,0.1513671875,-0.17822265625,-23.658536585365855,-13.29268292682927,13.170731707317074,125,3
489,0.748046875,0.1572265625,-0.19189453125,-26.28048780487805,-10.670731707317074,12.439024390243903,125,3
490,0.75537109375,0.16552734375,-0.201171875,-30.975609756097565,-7.317073170731708,11.646341463414634,125,3
491,0.75048828125,0.169921875,-0.2099609375,-35.609756097560975,-3.7195121951219514,10.792682926829269,125,3
492,0.76611328125,0.1630859375,-0.1943359375,-38.65853658536586,-0.426829268292683,9.329268292682928,125,3
493,0.7705078125,0.17236328125,-0.1728515625,-39.51219512195122,1.7682926829268295,6.890243902439025,125,3
494,0.791015625,0.1787109375,-0.1572265625,-37.987804878048784,2.1951219512195124,4.390243902439025,125,3
495,0.79150390625,0.1806640625,-0.14794921875,-33.35365853658537,-0.9146341463414634,1.8902439024390245,125,3
496,0.7724609375,0.13818359375,-0.2041015625,-27.012195121951223,-4.390243902439025,-1.4634146341463417,125,3
497,0.763671875,0.1240234375,-0.234375,-21.82926829268293,-5.060975609756098,-4.329268292682928,125,3
498,0.77734375,0.1337890625,-0.2412109375,-17.5609756097561,-5.2439024390243905,-6.341463414634147,125,3
499,0.794921875,0.1376953125,-0.24365234375,-17.25609756097561,-3.2926829268292686,-8.292682926829269,125,3
