,Ax,Ay,Az,Gx,Gy,Gz,distance,shot_type
0,0.65869140625,-0.4931640625,-0.2265625,4.878048780487806,2.1341463414634148,-0.7317073170731708,120,0
1,0.662109375,-0.50146484375,-0.232421875,3.658536585365854,2.804878048780488,-0.7926829268292683,120,0
2,0.65771484375,-0.50830078125,-0.240234375,2.5609756097560976,3.1707317073170733,-0.7317073170731708,120,0
3,0.6572265625,-0.5107421875,-0.21875,1.829268292682927,3.353658536585366,-0.853658536585366,120,0
4,0.66015625,-0.517578125,-0.2373046875,1.7682926829268295,3.1097560975609757,-0.9146341463414634,120,0
5,0.66064453125,-0.51416015625,-0.24462890625,1.402439024390244,2.378048780487805,-1.2195121951219514,120,0
6,0.6787109375,-0.5234375,-0.24609375,0.853658536585366,2.0121951219512195,-1.8902439024390245,120,0
7,0.6845703125,-0.513671875,-0.3681640625,-0.1829268292682927,2.0121951219512195,-2.7439024390243905,120,0
8,0.68212890625,-0.5029296875,-0.24365234375,-2.5,2.9268292682926833,-3.4756097560975614,120,0
9,0.6826171875,-0.52099609375,-0.2294921875,-3.048780487804878,3.4756097560975614,-3.4756097560975614,120,0
10,0.6904296875,-0.5224609375,-0.2314453125,-3.5975609756097566,3.658536585365854,-3.4756097560975614,120,0
11,0.68359375,-0.50732421875,-0.23486328125,-4.207317073170732,3.780487804878049,-2.7439024390243905,120,0
12,0.689453125,-0.51171875,-0.24658203125,-4.329268292682928,3.536585365853659,-1.829268292682927,120,0
13,0.68310546875,-0.5205078125,-0.23388671875,-3.4756097560975614,3.2926829268292686,-1.4634146341463417,120,0
14,0.68505859375,-0.50341796875,-0.220703125,-4.146341463414634,3.8414634146341466,-0.9756097560975611,120,0
15,0.69677734375,-0.470703125,-0.2041015625,-5.548780487804878,5.182926829268293,-0.5487804878048781,120,0
16,0.67822265625,-0.46875,-0.18896484375,-6.585365853658537,6.402439024390245,0.12195121951219513,120,0
17,0.66845703125,-0.4794921875,-0.20166015625,-5.914634146341464,5.670731707317073,0.24390243902439027,120,0
18,0.6689453125,-0.47802734375,-0.2158203125,-4.146341463414634,5.3048780487804885,-0.12195121951219513,120,0
19,0.67822265625,-0.48046875,-0.2197265625,-2.7439024390243905,5.2439024390243905,0.0,120,0
20,0.68310546875,-0.4619140625,-0.1943359375,-2.7439024390243905,5.365853658536586,-0.1829268292682927,120,0
21,0.6650390625,-0.4619140625,-0.20556640625,-2.9268292682926833,6.219512195121951,-0.3658536585365854,120,0
22,0.6650390625,-0.470703125,-0.201171875,-2.8658536585365857,4.634146341463415,0.0,120,0
23,0.65283203125,-0.4833984375,-0.23681640625,-0.853658536585366,3.1707317073170733,-0.24390243902439027,120,0
24,0.67333984375,-0.48779296875,-0.220703125,0.9146341463414634,2.439024390243903,-0.426829268292683,120,0
25,0.70068359375,-0.4658203125,-0.212890625,0.6707317073170732,3.231707317073171,-0.6707317073170732,120,0
26,0.697265625,-0.46533203125,-0.2236328125,0.0,4.2682926829268295,-0.48780487804878053,120,0
27,0.6826171875,-0.48779296875,-0.19921875,-1.3414634146341464,4.573170731707317,-0.9146341463414634,120,0
28,0.69873046875,-0.47900390625,-0.21728515625,-2.073170731707317,5.670731707317073,-1.2195121951219514,120,0
29,0.70068359375,-0.46728515625,-0.19091796875,-2.5609756097560976,6.402439024390245,-1.2195121951219514,120,0
30,0.69677734375,-0.490234375,-0.1923828125,-3.7195121951219514,6.951219512195123,-1.4634146341463417,120,0
31,0.7041015625,-0.48779296875,-0.21875,-4.146341463414634,8.231707317073171,-1.402439024390244,120,0
32,0.7001953125,-0.4833984375,-0.2177734375,-3.5975609756097566,8.658536585365855,-1.2804878048780488,120,0
33,0.71435546875,-0.48828125,-0.2333984375,-1.524390243902439,8.475609756097562,-1.2195121951219514,120,0
34,0.7109375,-0.482421875,-0.224609375,-0.12195121951219513,8.475609756097562,-1.6463414634146343,120,0
35,0.70263671875,-0.4873046875,-0.24169921875,1.402439024390244,7.865853658536586,-1.707317073170732,120,0
36,0.71142578125,-0.482421875,-0.2353515625,2.3170731707317076,8.048780487804878,-1.707317073170732,120,0
37,0.71337890625,-0.4853515625,-0.2119140625,2.25609756097561,8.475609756097562,-1.4634146341463417,120,0
38,0.68798828125,-0.4931640625,-0.20947265625,2.1951219512195124,8.658536585365855,-0.7317073170731708,120,0
39,0.6689453125,-0.52294921875,-0.208984375,4.451219512195122,6.951219512195123,-0.3658536585365854,120,0
40,0.6640625,-0.54833984375,-0.21533203125,7.134146341463415,4.939024390243903,0.5487804878048781,120,0
41,0.66455078125,-0.5732421875,-0.2412109375,7.134146341463415,4.329268292682928,2.1951219512195124,120,0
42,0.63671875,-0.57666015625,-0.2119140625,5.426829268292684,6.341463414634147,2.682926829268293,120,0
43,0.6318359375,-0.5576171875,-0.13720703125,5.3048780487804885,8.536585365853659,1.4634146341463417,120,0
44,0.6767578125,-0.5087890625,-0.080078125,8.658536585365855,7.378048780487806,0.9146341463414634,120,0
45,0.68115234375,-0.52490234375,-0.119140625,10.975609756097562,6.707317073170732,1.6463414634146343,120,0
46,0.6708984375,-0.54052734375,-0.15380859375,13.170731707317074,5.487804878048781,1.829268292682927,120,0
47,0.69482421875,-0.51708984375,-0.169921875,14.207317073170733,5.731707317073171,1.829268292682927,120,0
48,0.740234375,-0.6162109375,-0.15380859375,13.719512195121952,6.341463414634147,2.439024390243903,120,0
49,0.72265625,-0.52880859375,-0.15234375,11.52439024390244,9.451219512195122,2.987804878048781,120,0
50,0.72216796875,-0.52978515625,-0.1416015625,8.536585365853659,12.621951219512196,2.9268292682926833,120,0
51,0.69970703125,-0.51953125,-0.12255859375,7.195121951219513,13.231707317073171,2.804878048780488,120,0
52,0.71630859375,-0.50390625,-0.13330078125,8.78048780487805,12.926829268292684,2.804878048780488,120,0
53,0.72998046875,-0.517578125,-0.1259765625,9.695121951219512,13.597560975609758,2.804878048780488,120,0
54,0.72607421875,-0.494140625,-0.10693359375,8.78048780487805,15.365853658536587,2.3170731707317076,120,0
55,0.71875,-0.494140625,-0.1025390625,8.78048780487805,15.79268292682927,2.1951219512195124,120,0
56,0.69921875,-0.50830078125,-0.0888671875,11.829268292682928,13.414634146341465,2.3170731707317076,120,0
57,0.68115234375,-0.51953125,-0.0830078125,16.097560975609756,11.463414634146343,2.0121951219512195,120,0
58,0.6982421875,-0.51025390625,-0.08837890625,17.621951219512198,10.914634146341465,1.8902439024390245,120,0
59,0.70849609375,-0.51953125,-0.0869140625,18.170731707317074,11.28048780487805,2.25609756097561,120,0
60,0.705078125,-0.5234375,-0.10107421875,19.207317073170735,12.500000000000002,2.5,120,0
61,0.72216796875,-0.5185546875,-0.0908203125,18.04878048780488,15.121951219512196,2.682926829268293,120,0
62,0.7353515625,-0.51220703125,-0.09375,15.243902439024392,17.98780487804878,2.682926829268293,120,0
63,0.7197265625,-0.5078125,-0.09765625,13.170731707317074,21.646341463414636,2.682926829268293,120,0
64,0.71875,-0.513671875,-0.06689453125,11.951219512195124,25.853658536585368,2.5609756097560976,120,0
65,0.740234375,-0.625,-0.03759765625,10.182926829268293,30.121951219512198,1.9512195121951221,120,0
66,0.75048828125,-0.4765625,-0.02587890625,8.841463414634147,33.41463414634146,1.524390243902439,120,0
67,0.7392578125,-0.47607421875,-0.02099609375,8.597560975609756,33.963414634146346,1.524390243902439,120,0
68,0.7001953125,-0.49658203125,-0.0517578125,9.695121951219512,32.5609756097561,2.5609756097560976,120,0
69,0.6572265625,-0.521484375,-0.0654296875,12.987804878048781,30.853658536585368,3.5975609756097566,120,0
70,0.64013671875,-0.55712890625,-0.09423828125,12.195121951219512,29.207317073170735,5.2439024390243905,120,0
71,0.669921875,-0.505859375,-0.12744140625,13.597560975609758,31.58536585365854,5.731707317073171,120,0
72,0.712890625,-0.4814453125,-0.14453125,12.74390243902439,34.75609756097561,6.951219512195123,120,0
73,0.72412109375,-0.5205078125,-0.158203125,7.317073170731708,43.23170731707317,8.78048780487805,120,0
74,0.7685546875,-0.53125,-0.0888671875,-2.0121951219512195,53.10975609756098,9.878048780487806,120,0
75,0.728515625,-0.5634765625,-0.10888671875,-13.170731707317074,62.01219512195122,9.573170731707318,120,0
76,0.7421875,-0.54296875,-0.005859375,-19.451219512195124,64.75609756097562,10.609756097560977,120,0
77,0.6865234375,-0.572265625,-0.1513671875,-19.146341463414636,64.87804878048782,10.853658536585368,120,0
78,0.67236328125,-0.587890625,-0.1181640625,-13.719512195121952,61.646341463414636,11.585365853658537,120,0
79,0.6728515625,-0.56787109375,-0.0751953125,-5.487804878048781,57.13414634146342,12.317073170731708,120,0
80,0.6650390625,-0.5322265625,-0.09375,-0.06097560975609757,53.65853658536586,13.536585365853659,120,0
81,0.62890625,-0.48095703125,-0.119140625,2.0121951219512195,53.29268292682927,13.719512195121952,120,0
82,0.64208984375,-0.43896484375,-0.14453125,2.5609756097560976,51.21951219512196,13.963414634146343,120,0
83,0.69189453125,-0.376953125,-0.15771484375,2.1341463414634148,49.81707317073171,13.719512195121952,120,0
84,0.72216796875,-0.36376953125,-0.22021484375,15.487804878048783,48.23170731707317,13.597560975609758,120,0
85,0.72802734375,-0.3681640625,-0.294921875,-4.2682926829268295,48.10975609756098,11.829268292682928,120,0
86,0.74853515625,-0.35205078125,-0.306640625,-10.731707317073171,50.00000000000001,8.841463414634147,120,0
87,0.76806640625,-0.345703125,-0.29833984375,-17.012195121951223,50.79268292682927,7.560975609756098,120,0
88,0.7578125,-0.3564453125,-0.28955078125,-22.621951219512198,51.951219512195124,5.487804878048781,120,0
89,0.748046875,-0.36083984375,-0.27099609375,-27.500000000000004,51.82926829268293,3.5975609756097566,120,0
90,0.71630859375,-0.37451171875,-0.26611328125,-29.146341463414636,49.87804878048781,3.048780487804878,120,0
91,0.68798828125,-0.40869140625,-0.22216796875,-29.08536585365854,47.6219512195122,2.1341463414634148,120,0
92,0.6630859375,-0.41748046875,-0.216796875,-25.914634146341466,42.13414634146342,1.9512195121951221,120,0
93,0.65185546875,-0.4033203125,-0.23876953125,-20.54878048780488,36.03658536585366,0.5487804878048781,120,0
94,0.6767578125,-0.38671875,-0.24951171875,-17.073170731707318,31.951219512195124,-0.6707317073170732,120,0
95,0.685546875,-0.36669921875,-0.26171875,-15.365853658536587,28.658536585365855,-1.7682926829268295,120,0
96,0.70458984375,-0.35302734375,-0.26123046875,-16.03658536585366,26.09756097560976,-3.5975609756097566,120,0
97,0.728515625,-0.3271484375,-0.27294921875,-18.78048780487805,23.719512195121954,-5.0,120,0
98,0.73388671875,-0.30859375,-0.29931640625,-22.621951219512198,22.98780487804878,-7.25609756097561,120,0
99,0.74560546875,-0.287109375,-0.279296875,-27.987804878048784,24.32926829268293,-9.390243902439025,120,0
100,0.75244140625,-0.27880859375,-0.2451171875,-34.268292682926834,26.707317073170735,-11.219512195121952,120,0
101,0.75390625,-0.306640625,-0.2421875,-39.75609756097561,27.621951219512198,-12.439024390243903,120,0
102,0.7333984375,-0.33642578125,-0.23828125,-41.15853658536586,25.243902439024392,-13.170731707317074,120,0
103,0.697265625,-0.36181640625,-0.228515625,-39.32926829268293,21.646341463414636,-13.719512195121952,120,0
104,0.69580078125,-0.36962890625,-0.220703125,-36.15853658536586,17.865853658536587,-14.390243902439027,120,0
105,0.71240234375,-0.34375,-0.2119140625,-35.0609756097561,16.646341463414636,-14.573170731707318,120,0
106,0.7294921875,-0.32177734375,-0.19482421875,-37.5,17.195121951219512,-15.853658536585368,120,0
107,0.73193359375,-0.3046875,-0.20361328125,-41.463414634146346,17.31707317073171,-16.76829268292683,120,0
108,0.73681640625,-0.29296875,-0.21435546875,-45.670731707317074,17.682926829268293,-17.98780487804878,120,0
109,0.74267578125,-0.28955078125,-0.20263671875,-49.75609756097561,18.231707317073173,-19.695121951219512,120,0
110,0.7568359375,-0.30126953125,-0.20458984375,-53.78048780487806,18.597560975609756,-21.463414634146343,120,0
111,0.77685546875,-0.294921875,-0.21240234375,-56.82926829268293,19.32926829268293,-23.719512195121954,120,0
112,0.78271484375,-0.31103515625,-0.2060546875,-59.451219512195124,19.451219512195124,-25.426829268292686,120,0
113,0.77978515625,-0.333984375,-0.1943359375,-60.243902439024396,18.475609756097562,-26.646341463414636,120,0
114,0.7685546875,-0.34375,-0.18359375,-60.1829268292683,17.865853658536587,-27.743902439024392,120,0
115,0.76953125,-0.33642578125,-0.173828125,-60.1219512195122,17.439024390243905,-28.292682926829272,120,0
116,0.77294921875,-0.32080078125,-0.1513671875,-47.01219512195122,17.5,-29.451219512195124,120,0
117,0.7900390625,-0.28564453125,-0.13330078125,-66.21951219512195,18.658536585365855,-30.182926829268297,120,0
118,0.77197265625,-0.30810546875,-0.1650390625,-69.93902439024392,19.939024390243905,-31.463414634146343,120,0
119,0.76025390625,-0.2978515625,-0.16650390625,-73.53658536585367,20.426829268292686,-33.170731707317074,120,0
120,0.76171875,-0.30615234375,-0.17138671875,-75.85365853658537,21.646341463414636,-34.75609756097561,120,0
121,0.78515625,-0.302734375,-0.1806640625,-77.92682926829269,22.682926829268293,-36.58536585365854,120,0
122,0.783203125,-0.302734375,-0.18310546875,-80.48780487804879,23.78048780487805,-37.987804878048784,120,0
123,0.76025390625,-0.3310546875,-0.19140625,-80.97560975609757,24.451219512195124,-38.41463414634147,120,0
124,0.75439453125,-0.35498046875,-0.1806640625,-80.3658536585366,23.902439024390247,-39.32926829268293,120,0
125,0.77734375,-0.31298828125,-0.17919921875,-81.03658536585367,24.512195121951223,-39.87804878048781,120,0
126,0.791015625,-0.30712890625,-0.2099609375,-83.41463414634147,24.146341463414636,-40.36585365853659,120,0
127,0.787109375,-0.279296875,-0.20703125,-86.28048780487805,24.207317073170735,-41.03658536585366,120,0
128,0.791015625,-0.27880859375,-0.23388671875,-89.08536585365854,24.75609756097561,-42.43902439024391,120,0
129,0.8095703125,-0.271484375,-0.37158203125,-92.19512195121952,24.939024390243905,-43.90243902439025,120,0
130,0.82177734375,-0.26220703125,-0.26220703125,-95.3048780487805,26.707317073170735,-45.85365853658537,120,0
131,0.84716796875,-0.248046875,-0.26416015625,-99.39024390243904,27.439024390243905,-47.6829268292683,120,0
132,0.84912109375,-0.24072265625,-0.275390625,-103.29268292682927,28.719512195121954,-49.39024390243903,120,0
133,0.84716796875,-0.12841796875,-0.29541015625,-106.82926829268294,29.451219512195124,-50.85365853658537,120,0
134,0.85205078125,-0.25,-0.31591796875,-109.87804878048782,29.634146341463417,-52.86585365853659,120,0
135,0.85302734375,-0.23681640625,-0.31103515625,-113.17073170731709,29.939024390243905,-54.75609756097561,120,0
136,0.859375,-0.2197265625,-0.32373046875,-116.09756097560977,29.81707317073171,-56.82926829268293,120,0
137,0.8955078125,-0.18017578125,-0.34619140625,-117.98780487804879,29.08536585365854,-60.1829268292683,120,0
138,0.91748046875,-0.16064453125,-0.3466796875,-121.21951219512196,29.451219512195124,-62.987804878048784,120,0
139,0.88134765625,-0.2109375,-0.33642578125,-123.29268292682927,29.451219512195124,-65.54878048780489,120,0
140,0.8740234375,-0.236328125,-0.34423828125,-123.59756097560977,28.475609756097562,-67.98780487804879,120,0
141,0.8896484375,-0.21533203125,-0.35205078125,-123.90243902439026,28.231707317073173,-70.91463414634147,120,0
142,0.92138671875,-0.17724609375,-0.35498046875,-126.46341463414635,27.926829268292686,-73.41463414634147,120,0
143,0.9345703125,-0.14990234375,-0.390625,-131.09756097560978,28.59756097560976,-76.34146341463415,120,0
144,0.931640625,-0.1455078125,-0.3955078125,-136.89024390243904,30.487804878048784,-79.63414634146342,120,0
145,0.93603515625,-0.15673828125,-0.4140625,-141.34146341463415,46.768292682926834,-82.6829268292683,120,0
146,0.94580078125,-0.1474609375,-0.41650390625,-143.71951219512195,31.219512195121954,-86.03658536585367,120,0
147,0.95458984375,-0.142578125,-0.4130859375,-144.87804878048783,30.426829268292686,-88.90243902439025,120,0
148,0.96630859375,-0.12744140625,-0.41552734375,-146.58536585365854,29.146341463414636,-92.13414634146342,120,0
149,0.99169921875,-0.09912109375,-0.41796875,-148.96341463414635,28.84146341463415,-94.57317073170732,120,0
150,0.99658203125,-0.099609375,-0.423828125,-152.13414634146343,28.84146341463415,-96.76829268292684,120,0
151,0.9990234375,-0.1015625,-0.43994140625,-154.69512195121953,28.658536585365855,-99.02439024390245,120,0
152,1.01025390625,-0.08154296875,-0.43505859375,-155.2439024390244,28.04878048780488,-101.58536585365854,120,0
153,1.03564453125,-0.06201171875,-0.43359375,-140.5487804878049,28.353658536585368,-104.87804878048782,120,0
154,1.05078125,-0.0341796875,-0.42626953125,-157.9268292682927,28.04878048780488,-107.98780487804879,120,0
155,1.06640625,-0.02294921875,-0.44921875,-159.81707317073173,26.951219512195124,-111.03658536585367,120,0
156,1.07080078125,-0.001953125,-0.474609375,-161.21951219512198,25.365853658536587,-115.3658536585366,120,0
157,1.1044921875,0.01806640625,-0.46875,-161.15853658536588,24.75609756097561,-119.69512195121952,120,0
158,1.14404296875,0.0546875,-0.4423828125,-161.82926829268294,24.146341463414636,-123.53658536585367,120,0
159,1.17138671875,0.0439453125,-0.46435546875,-163.53658536585368,24.390243902439025,-128.0487804878049,120,0
160,1.1904296875,0.0732421875,-0.47998046875,-165.609756097561,24.32926829268293,-132.9268292682927,120,0
161,1.2119140625,0.0869140625,-0.47802734375,-166.28048780487805,23.231707317073173,-137.6829268292683,120,0
162,1.22802734375,0.0859375,-0.4384765625,-165.3658536585366,22.621951219512198,-141.09756097560978,120,0
163,1.236328125,0.080078125,-0.43359375,-163.0487804878049,21.097560975609756,-142.9878048780488,120,0
164,1.24609375,0.068359375,-0.44677734375,-160.5487804878049,18.29268292682927,-145.1219512195122,120,0
165,1.25244140625,0.060546875,-0.48828125,-160.1219512195122,17.195121951219512,-148.47560975609758,120,0
166,1.2626953125,0.119140625,-0.47119140625,-160.609756097561,19.32926829268293,-153.35365853658539,120,0
167,1.29833984375,0.146484375,-0.4521484375,-163.53658536585368,21.82926829268293,-156.46341463414635,120,0
168,1.3095703125,0.24951171875,-0.44970703125,-168.65853658536588,24.390243902439025,-160.3658536585366,120,0
169,1.31103515625,0.14208984375,-0.46728515625,-169.39024390243904,21.707317073170735,-164.75609756097563,120,0
170,1.3134765625,0.17919921875,-0.484375,-169.32926829268294,19.146341463414636,-168.71951219512198,120,0
171,1.32861328125,0.14013671875,-0.43017578125,-169.45121951219514,20.0,-173.71951219512198,120,0
172,1.3505859375,0.0908203125,-0.48388671875,-165.2439024390244,20.30487804878049,-176.52439024390245,120,0
173,1.38720703125,0.1162109375,-0.30859375,-160.0,19.085365853658537,-178.96341463414635,120,0
174,1.40771484375,0.14892578125,-0.298828125,-159.26829268292684,19.75609756097561,-181.64634146341464,120,0
175,1.39453125,0.1689453125,-0.32421875,-162.07317073170734,26.463414634146343,-185.4268292682927,120,0
176,1.41552734375,0.1953125,-0.2666015625,-162.6219512195122,24.695121951219516,-186.34146341463415,120,0
177,1.408203125,0.166015625,-0.23291015625,-163.2926829268293,26.89024390243903,-189.20731707317074,120,0
178,1.4228515625,0.14404296875,-0.2060546875,-161.46341463414635,27.682926829268297,-191.70731707317074,120,0
179,1.408203125,0.10546875,-0.17724609375,-156.95121951219514,26.82926829268293,-194.20731707317074,120,0
180,1.4228515625,0.09619140625,-0.1845703125,-151.70731707317074,26.52439024390244,-198.35365853658539,120,0
181,1.44287109375,0.24462890625,-0.1484375,-147.8658536585366,27.25609756097561,-201.64634146341464,120,0
182,1.45703125,0.0,-0.14208984375,-146.09756097560978,29.26829268292683,-205.3048780487805,120,0
183,1.50048828125,0.15185546875,-0.119140625,-145.85365853658539,31.280487804878053,-208.71951219512198,120,0
184,1.48876953125,0.15380859375,-0.15966796875,-145.3048780487805,29.695121951219516,-211.46341463414635,120,0
185,1.4541015625,0.15283203125,-0.1484375,-142.5609756097561,30.792682926829272,-215.6707317073171,120,0
186,1.46875,0.166015625,-0.12158203125,-140.0609756097561,32.37804878048781,-220.609756097561,120,0
187,1.455078125,0.18212890625,-0.11767578125,-136.21951219512195,31.89024390243903,-223.2317073170732,120,0
188,1.42333984375,0.1962890625,-0.0537109375,-131.82926829268294,32.19512195121951,-226.09756097560978,120,0
189,1.49462890625,0.21875,-0.02734375,-127.98780487804879,33.35365853658537,-227.37804878048783,120,0
190,1.34521484375,0.23828125,-0.00048828125,-125.67073170731709,34.146341463414636,-228.84146341463418,120,0
191,1.3251953125,0.28076171875,-0.001953125,-125.3658536585366,34.08536585365854,-229.26829268292684,120,0
192,1.26904296875,0.2998046875,0.04443359375,-123.53658536585367,33.59756097560976,-229.26829268292684,120,0
193,1.232421875,0.28271484375,0.07275390625,-119.32926829268294,31.280487804878053,-229.57317073170734,120,0
194,1.18896484375,0.287109375,0.1162109375,-115.1829268292683,27.012195121951223,-228.59756097560978,120,0
195,1.150390625,0.3232421875,0.203125,-105.2439024390244,27.31707317073171,-228.71951219512198,120,0
196,1.14306640625,0.3828125,0.255859375,-108.90243902439025,25.853658536585368,-230.7926829268293,120,0
197,1.17724609375,0.46337890625,0.27978515625,-86.58536585365854,26.707317073170735,-233.1707317073171,120,0
198,1.19970703125,0.4990234375,0.28759765625,-84.63414634146342,28.658536585365855,-234.63414634146343,120,0
199,1.18310546875,0.51953125,0.322265625,-84.75609756097562,32.6829268292683,-238.109756097561,120,0
200,1.1884765625,0.529296875,0.345703125,-85.1829268292683,37.80487804878049,-241.70731707317074,120,0
201,1.15234375,0.62353515625,0.35693359375,-85.00000000000001,41.09756097560976,-241.82926829268294,120,0
202,1.103515625,0.4296875,0.39794921875,-81.15853658536587,43.65853658536586,-244.39024390243904,120,0
203,1.07763671875,0.41064453125,0.353515625,-73.17073170731707,42.19512195121951,-246.34146341463418,120,0
204,1.03857421875,0.37109375,0.35400390625,-64.81707317073172,40.1829268292683,-245.24390243902442,120,0
205,0.9697265625,0.34521484375,0.35986328125,-56.34146341463415,39.268292682926834,-244.51219512195124,120,0
206,0.92236328125,0.3359375,0.3505859375,-51.524390243902445,38.78048780487805,-243.90243902439028,120,0
207,0.8486328125,0.298828125,0.404296875,-49.451219512195124,41.768292682926834,-242.43902439024393,120,0
208,0.7783203125,0.201171875,0.38037109375,-51.524390243902445,46.646341463414636,-240.4878048780488,120,0
209,0.7021484375,0.10791015625,0.3359375,-53.41463414634147,51.89024390243903,-239.51219512195124,120,0
210,0.6552734375,0.05078125,0.35009765625,-50.60975609756098,53.29268292682927,-236.03658536585368,120,0
211,0.59814453125,-0.0419921875,0.34130859375,-44.268292682926834,54.32926829268293,-231.52439024390245,120,0
212,0.50927734375,-0.00634765625,0.333984375,-37.19512195121951,53.90243902439025,-225.4268292682927,120,0
213,0.44091796875,-0.19384765625,0.2998046875,-29.87804878048781,50.36585365853659,-233.90243902439028,120,0
214,0.3935546875,-0.27197265625,0.28515625,-24.634146341463417,47.743902439024396,-212.13414634146343,120,0
215,0.36328125,-0.32275390625,0.244140625,-22.98780487804878,46.463414634146346,-204.81707317073173,120,0
216,0.29296875,-0.42626953125,0.271484375,-19.81707317073171,45.1829268292683,-195.3048780487805,120,0
217,0.1796875,-0.38134765625,0.3623046875,-31.03658536585366,45.487804878048784,-182.8658536585366,120,0
218,0.08447265625,-0.548828125,0.46923828125,-8.475609756097562,47.43902439024391,-169.81707317073173,120,0
219,-0.0283203125,-0.64404296875,0.47509765625,-7.621951219512196,48.71951219512196,-154.63414634146343,120,0
220,-0.15576171875,-0.7451171875,0.45361328125,-7.865853658536586,50.670731707317074,-142.13414634146343,120,0
221,-0.2646484375,-0.798828125,0.4423828125,-9.634146341463415,52.5609756097561,-128.59756097560978,120,0
222,-0.4345703125,-0.76611328125,0.43603515625,-12.500000000000002,55.1219512195122,-113.65853658536587,120,0
223,-0.37548828125,-0.87646484375,0.56982421875,-10.609756097560977,57.743902439024396,-100.85365853658537,120,0
224,-0.58642578125,-0.94580078125,0.57958984375,-11.585365853658537,59.87804878048781,-85.97560975609757,120,0
225,-0.6337890625,-1.01513671875,0.60009765625,-7.439024390243903,58.84146341463415,-71.28048780487805,120,0
226,-0.6328125,-1.12109375,0.5146484375,-1.4634146341463417,54.75609756097561,-55.0609756097561,120,0
227,-0.662109375,-1.23876953125,0.6181640625,7.134146341463415,49.87804878048781,-34.451219512195124,120,0
228,-0.7314453125,-1.404296875,0.455078125,18.414634146341466,62.19512195121952,-11.341463414634147,120,0
229,-0.76416015625,-1.46337890625,0.4736328125,15.731707317073171,41.707317073170735,13.231707317073171,120,0
230,-0.73974609375,-1.49755859375,0.4296875,41.524390243902445,39.451219512195124,37.86585365853659,120,0
231,-0.6796875,-1.47802734375,0.44482421875,42.6829268292683,44.75609756097561,61.40243902439025,120,0
232,-0.65283203125,-1.5126953125,0.50390625,36.951219512195124,52.5609756097561,84.14634146341464,120,0
233,-0.5986328125,-1.61865234375,0.42919921875,33.65853658536586,58.65853658536586,104.75609756097562,120,0
234,-0.52783203125,-1.630859375,0.400390625,34.451219512195124,62.13414634146342,110.42682926829269,120,0
235,-0.43798828125,-1.92041015625,0.39208984375,41.646341463414636,60.97560975609757,147.13414634146343,120,0
236,-0.28955078125,-2.078125,0.3955078125,55.73170731707317,57.43902439024391,167.25609756097563,120,0
237,-0.05712890625,-2.1884765625,0.39111328125,70.79268292682927,54.268292682926834,173.2926829268293,120,0
238,0.09326171875,-2.34912109375,0.341796875,82.37804878048782,50.73170731707317,212.62195121951223,120,0
239,0.31298828125,-2.4794921875,0.21484375,93.35365853658537,49.268292682926834,220.12195121951223,120,0
240,0.490234375,-2.5888671875,0.1591796875,101.52439024390245,52.86585365853659,265.2439024390244,120,0
241,0.5576171875,-2.82763671875,0.13916015625,106.40243902439025,58.10975609756098,303.7804878048781,120,0
242,0.58154296875,-3.15478515625,-0.0537109375,93.90243902439025,64.63414634146342,348.7804878048781,120,0
243,0.69775390625,-3.4892578125,-0.060546875,113.84146341463416,69.87804878048782,394.69512195121956,120,0
244,0.94970703125,-3.82373046875,-0.08154296875,121.21951219512196,69.45121951219512,442.43902439024396,120,0
245,1.173828125,-4.20068359375,-0.21826171875,129.57317073170734,64.75609756097562,471.5243902439025,120,0
246,1.783203125,-4.59130859375,-0.400390625,142.8048780487805,50.0609756097561,530.0,120,0
247,2.3935546875,-4.984375,-0.67041015625,177.9268292682927,26.219512195121954,575.3048780487806,120,0
248,3.17626953125,-5.3798828125,-1.06689453125,225.7926829268293,-8.78048780487805,608.9634146341464,120,0
249,4.001953125,-5.806640625,-1.43896484375,290.7317073170732,-17.134146341463417,667.0731707317074,120,0
250,5.111328125,-6.06103515625,-1.51953125,354.57317073170736,-51.03658536585366,687.0731707317074,120,0
251,6.166015625,-6.27099609375,-1.8388671875,392.56097560975616,-59.146341463414636,718.9024390243903,120,0
252,7.41552734375,-6.23779296875,-2.3134765625,468.109756097561,-38.47560975609756,769.1463414634147,120,0
253,8.73388671875,-6.1689453125,-3.36865234375,508.719512195122,-13.719512195121952,801.2804878048781,120,0
254,9.59765625,-5.8056640625,-4.35498046875,551.219512195122,55.243902439024396,831.829268292683,120,0
255,11.11865234375,-4.8740234375,-5.59521484375,604.0243902439025,114.02439024390245,852.7439024390245,120,0
256,12.60107421875,-3.279296875,-6.595703125,639.939024390244,134.63414634146343,878.5975609756098,120,0
257,12.01318359375,-2.55859375,-6.93212890625,646.7682926829269,111.34146341463416,881.5853658536586,120,0
258,12.50732421875,-1.26513671875,-7.5546875,635.7926829268293,74.20731707317074,860.2439024390245,120,0
259,12.810546875,0.08544921875,-7.82373046875,670.1219512195122,-42.804878048780495,825.1219512195123,120,0
260,11.36181640625,0.0947265625,-7.70849609375,767.9268292682927,-127.07317073170732,762.6829268292684,120,0
261,10.0166015625,-0.326171875,-6.88330078125,947.7439024390245,-280.9756097560976,684.2682926829269,120,0
262,7.505859375,-1.7421875,-6.9287109375,1263.5365853658539,-539.7560975609756,569.6341463414635,120,0
263,6.78125,-4.5908203125,-12.93896484375,1579.7560975609758,-909.5731707317074,284.69512195121956,120,0
264,-5.2724609375,-4.85009765625,2.2705078125,873.7804878048781,-307.5,78.59756097560977,120,0
265,-9.841796875,-6.349609375,-11.88037109375,911.2804878048781,-923.7804878048781,-137.31707317073173,120,0
266,-0.58837890625,-8.875,-8.41015625,1206.768292682927,715.4878048780488,48.41463414634147,120,0
267,15.99951171875,11.76318359375,5.646484375,533.109756097561,178.35365853658539,-28.10975609756098,120,0
268,-6.08837890625,-8.69921875,-8.107421875,1380.0000000000002,238.2317073170732,-167.01219512195124,120,0
269,7.59375,1.46337890625,2.91650390625,914.329268292683,-181.76829268292684,-337.9878048780488,120,0
270,4.3076171875,1.2734375,-3.34716796875,932.3780487804879,-122.43902439024392,-425.36585365853665,120,0
271,2.68359375,1.47265625,-3.86083984375,902.439024390244,-137.37804878048783,-458.4146341463415,120,0
272,3.8935546875,0.98974609375,-1.181640625,764.0243902439025,-148.65853658536588,-531.7073170731708,120,0
273,2.36328125,-0.392578125,-2.099609375,657.7439024390244,-125.73170731707319,-605.0,120,0
274,1.94482421875,-0.14453125,-1.8056640625,548.2317073170732,-121.46341463414635,-640.3658536585366,120,0
275,1.74560546875,-0.8037109375,-1.703125,472.56097560975616,-82.6829268292683,-661.5853658536586,120,0
276,1.5537109375,-1.65234375,-0.453125,390.00000000000006,-8.231707317073171,-679.8170731707318,120,0
277,1.82568359375,-1.6005859375,0.3857421875,285.8536585365854,40.304878048780495,-710.548780487805,120,0
278,2.15771484375,-0.96142578125,-0.0703125,220.7926829268293,86.95121951219512,-711.0975609756098,120,0
279,3.23828125,-0.15576171875,-0.1171875,140.609756097561,137.9268292682927,-700.609756097561,120,0
280,3.09375,-0.4375,-0.09423828125,80.85365853658537,165.2439024390244,-669.7560975609757,120,0
281,3.12841796875,-0.712890625,0.35791015625,21.03658536585366,194.63414634146343,-648.048780487805,120,0
282,2.93603515625,-0.89111328125,0.5869140625,-21.158536585365855,207.37804878048783,-631.6463414634147,120,0
283,2.80322265625,-1.1494140625,0.09423828125,-100.48780487804879,223.71951219512198,-622.5,120,0
284,2.99755859375,-0.837890625,0.0869140625,-141.95121951219514,252.56097560975613,-601.7073170731708,120,0
285,2.86865234375,-1.06103515625,-0.0439453125,-210.4268292682927,270.5487804878049,-572.3780487804878,120,0
286,2.6123046875,-1.060546875,-0.45556640625,-243.90243902439028,288.109756097561,-552.1951219512196,120,0
287,2.34130859375,-1.32373046875,-0.6083984375,-250.30487804878052,301.5853658536586,-528.048780487805,120,0
288,2.08642578125,-1.13330078125,-0.634765625,-234.75609756097563,309.39024390243907,-508.9024390243903,120,0
289,1.9658203125,-0.8779296875,-0.7197265625,-211.76829268292684,299.32926829268297,-491.76829268292687,120,0
290,2.0146484375,-0.89501953125,-1.09326171875,-202.9268292682927,288.2317073170732,-468.3536585365854,120,0
291,1.92626953125,-0.9814453125,-1.34130859375,-204.75609756097563,289.75609756097566,-432.01219512195127,120,0
292,1.63916015625,-1.08447265625,-1.1201171875,-203.59756097560978,281.2804878048781,-395.9146341463415,120,0
293,1.1650390625,-1.11181640625,-1.11328125,-229.75609756097563,299.26829268292687,-360.7926829268293,120,0
294,0.8125,-0.93896484375,-1.1611328125,-229.26829268292684,287.6219512195122,-335.609756097561,120,0
295,0.64990234375,-0.79638671875,-1.31982421875,-223.96341463414637,276.6463414634147,-319.20731707317077,120,0
296,0.54248046875,-0.72412109375,-1.34423828125,-217.43902439024393,266.4634146341464,-301.76829268292687,120,0
297,0.51025390625,-0.7314453125,-1.33056640625,-202.9878048780488,257.3780487804878,-277.9878048780488,120,0
298,0.3203125,-0.849609375,-1.3701171875,-235.7317073170732,245.12195121951223,-245.30487804878052,120,0
299,0.12841796875,-0.919921875,-1.23193359375,-223.71951219512198,248.78048780487808,-213.2317073170732,120,0
300,-0.17529296875,-0.9619140625,-0.8896484375,-250.5487804878049,232.01219512195124,-181.70731707317074,120,0
301,-0.48681640625,-0.64892578125,-0.68603515625,-281.1585365853659,237.43902439024393,-161.64634146341464,120,0
302,-0.48974609375,-0.66064453125,-0.73388671875,-290.7317073170732,218.84146341463418,-156.15853658536588,120,0
303,-0.59033203125,-0.1328125,-0.92578125,-268.8414634146342,218.47560975609758,-152.37804878048783,120,0
304,-0.39794921875,0.09765625,-1.02099609375,-247.50000000000003,186.21951219512198,-142.4390243902439,120,0
305,-0.37060546875,-0.0361328125,-0.91357421875,-265.0,166.70731707317074,-132.7439024390244,120,0
306,-0.5322265625,0.07763671875,-0.97216796875,-241.52439024390247,161.89024390243904,-120.3048780487805,120,0
307,-0.80810546875,-0.27783203125,-0.82470703125,-229.75609756097563,151.58536585365854,-107.43902439024392,120,0
308,-0.93212890625,-0.35009765625,-0.87109375,-233.109756097561,141.28048780487805,-94.75609756097562,120,0
309,-0.9638671875,-0.3916015625,-0.763671875,-201.89024390243904,129.81707317073173,-86.95121951219512,120,0
310,-0.91845703125,-0.25732421875,-0.70947265625,-193.1707317073171,123.65853658536587,-76.52439024390245,120,0
311,-0.97412109375,-0.158203125,-0.5908203125,-187.9268292682927,120.3658536585366,-64.87804878048782,120,0
312,-1.09228515625,-0.1591796875,-0.61865234375,-202.9268292682927,112.92682926829269,-51.585365853658544,120,0
313,-1.17236328125,-0.185546875,-0.73583984375,-175.85365853658539,106.89024390243904,-39.207317073170735,120,0
314,-1.3115234375,-0.24853515625,-0.74267578125,-157.5609756097561,95.97560975609757,-26.707317073170735,120,0
315,-1.38330078125,-0.3271484375,-0.74560546875,-141.52439024390245,87.7439024390244,-30.792682926829272,120,0
316,-1.38525390625,-0.34033203125,-0.58154296875,-128.65853658536585,79.75609756097562,-4.085365853658537,120,0
317,-1.28125,-0.30810546875,-0.5224609375,-119.02439024390245,70.1219512195122,5.0,120,0
318,-1.17578125,-0.19189453125,-0.55908203125,-110.06097560975611,61.34146341463415,11.28048780487805,120,0
319,-1.13232421875,-0.1259765625,-0.47119140625,-102.8048780487805,55.1219512195122,15.731707317073171,120,0
320,-1.162109375,-0.0771484375,-0.38232421875,-101.28048780487806,47.926829268292686,17.439024390243905,120,0
321,-1.1689453125,-0.056640625,-0.35302734375,-97.13414634146342,43.29268292682927,19.207317073170735,120,0
322,-1.17919921875,-0.0966796875,-0.2607421875,-95.0609756097561,34.81707317073171,20.365853658536587,120,0
323,-1.1708984375,-0.0400390625,-0.42724609375,-86.70731707317074,27.073170731707318,21.463414634146343,120,0
324,-1.2041015625,-0.06591796875,-0.52587890625,-82.8048780487805,18.414634146341466,23.04878048780488,120,0
325,-1.181640625,-0.076171875,-0.56689453125,-72.25609756097562,10.121951219512196,24.512195121951223,120,0
326,-1.14453125,-0.072265625,-0.525390625,-60.54878048780488,0.3658536585365854,27.134146341463417,120,0
327,-1.1533203125,-0.04736328125,-0.48583984375,-52.13414634146342,-3.9024390243902443,29.81707317073171,120,0
328,-1.19384765625,-0.052734375,-0.40966796875,-46.03658536585366,-6.646341463414635,32.13414634146342,120,0
329,-1.19091796875,-0.05322265625,-0.38330078125,-39.32926829268293,-8.414634146341465,34.32926829268293,120,0
330,-1.185546875,-0.0478515625,-0.39697265625,-31.52439024390244,-12.439024390243903,37.31707317073171,120,0
331,-1.1953125,-0.01611328125,-0.404296875,-22.134146341463417,-17.31707317073171,40.79268292682927,120,0
332,-1.19580078125,0.00048828125,-0.38232421875,-12.80487804878049,-21.463414634146343,44.63414634146342,120,0
333,-1.21728515625,0.03759765625,-0.35888671875,-4.878048780487806,-26.158536585365855,47.5609756097561,120,0
334,-1.21142578125,0.05615234375,-0.36669921875,2.25609756097561,-31.707317073170735,49.51219512195122,120,0
335,-1.19482421875,0.0791015625,-0.37548828125,9.26829268292683,-37.6219512195122,50.1219512195122,120,0
336,-1.173828125,0.12158203125,-0.2607421875,15.426829268292684,-43.47560975609756,50.73170731707317,120,0
337,-1.138671875,0.1357421875,-0.35693359375,18.963414634146343,-49.451219512195124,51.21951219512196,120,0
338,-1.1259765625,0.12646484375,-0.31494140625,20.975609756097562,-54.57317073170732,51.40243902439025,120,0
339,-1.1171875,0.130859375,-0.27099609375,21.463414634146343,-58.29268292682927,51.03658536585366,120,0
340,-1.103515625,0.14013671875,-0.3681640625,21.158536585365855,-47.13414634146342,52.19512195121952,120,0
341,-1.09716796875,0.12841796875,-0.2314453125,21.402439024390247,-67.92682926829269,52.804878048780495,120,0
342,-1.068359375,0.14013671875,-0.23828125,23.475609756097562,-74.02439024390245,54.32926829268293,120,0
343,-1.05712890625,0.00146484375,-0.22998046875,27.865853658536587,-80.1219512195122,55.60975609756098,120,0
344,-1.05224609375,0.12548828125,-0.22216796875,32.5609756097561,-86.03658536585367,57.07317073170732,120,0
345,-1.03515625,0.138671875,-0.19873046875,38.04878048780488,-90.91463414634147,58.10975609756098,120,0
346,-1.00146484375,0.154296875,-0.1689453125,40.304878048780495,-94.63414634146342,59.451219512195124,120,0
347,-0.98193359375,0.16455078125,-0.1298828125,39.81707317073171,-97.6829268292683,61.28048780487806,120,0
348,-0.970703125,0.17431640625,-0.10791015625,37.6829268292683,-99.93902439024392,46.89024390243903,120,0
349,-0.9609375,0.15869140625,-0.0849609375,36.03658536585366,-102.8048780487805,63.59756097560976,120,0
350,-0.95703125,0.15576171875,-0.0595703125,37.37804878048781,-106.82926829268294,65.3048780487805,120,0
351,-0.9384765625,0.1474609375,-0.02685546875,40.1219512195122,-110.3658536585366,67.31707317073172,120,0
352,-0.92138671875,0.14111328125,-0.0126953125,43.84146341463415,-114.20731707317074,68.47560975609757,120,0
353,-0.904296875,0.16796875,-0.02490234375,47.13414634146342,-117.92682926829269,69.51219512195122,120,0
354,-0.90478515625,0.20458984375,-0.00244140625,50.00000000000001,-122.01219512195124,70.3658536585366,120,0
355,-0.89208984375,0.24609375,0.01708984375,51.646341463414636,-124.51219512195124,71.58536585365854,120,0
356,-0.86376953125,0.25927734375,0.03271484375,50.487804878048784,-125.97560975609757,72.07317073170732,120,0
357,-0.837890625,0.30224609375,0.05029296875,45.79268292682927,-125.79268292682927,71.95121951219512,120,0
358,-0.7939453125,0.34228515625,0.05126953125,42.25609756097561,-127.8658536585366,72.01219512195122,120,0
359,-0.77294921875,0.3701171875,0.08203125,39.57317073170732,-130.91463414634148,72.13414634146342,120,0
360,-0.75390625,0.35400390625,0.1162109375,39.390243902439025,-135.0,72.01219512195122,120,0
361,-0.736328125,0.337890625,0.1552734375,41.82926829268293,-140.97560975609758,72.8658536585366,120,0
362,-0.7333984375,0.3154296875,0.16455078125,46.15853658536586,-145.85365853658539,72.5609756097561,120,0
363,-0.732421875,0.30615234375,0.19677734375,48.71951219512196,-147.5609756097561,72.01219512195122,120,0
364,-0.71728515625,0.3310546875,0.2412109375,51.34146341463415,-149.08536585365854,73.35365853658537,120,0
365,-0.71142578125,0.3447265625,0.12548828125,51.951219512195124,-149.32926829268294,74.87804878048782,120,0
366,-0.69140625,0.37060546875,0.369140625,52.19512195121952,-149.63414634146343,75.73170731707317,120,0
367,-0.646484375,0.400390625,0.2734375,52.86585365853659,-150.0609756097561,76.28048780487805,120,0
368,-0.60986328125,0.40771484375,0.31298828125,51.15853658536586,-148.41463414634148,76.76829268292684,120,0
369,-0.56298828125,0.4228515625,0.32861328125,48.04878048780488,-145.7317073170732,77.6219512195122,120,0
370,-0.54833984375,0.4404296875,0.32080078125,46.15853658536586,-146.89024390243904,78.47560975609757,120,0
371,-0.544921875,0.43017578125,0.30126953125,46.21951219512196,-148.53658536585368,79.45121951219512,120,0
372,-0.53173828125,0.42626953125,0.345703125,50.304878048780495,-150.7926829268293,80.3048780487805,120,0
373,-0.52001953125,0.40576171875,0.373046875,54.75609756097561,-152.13414634146343,82.37804878048782,120,0
374,-0.49462890625,0.408203125,0.3994140625,57.804878048780495,-151.03658536585368,84.81707317073172,120,0
375,-0.47900390625,0.4169921875,0.4990234375,58.29268292682927,-150.609756097561,86.34146341463415,120,0
376,-0.4609375,0.45458984375,0.3662109375,58.29268292682927,-149.75609756097563,87.6829268292683,120,0
377,-0.4228515625,0.50732421875,0.3896484375,58.17073170731708,-150.1219512195122,89.57317073170732,120,0
378,-0.4892578125,0.5107421875,0.431640625,58.90243902439025,-150.97560975609758,92.43902439024392,120,0
379,-0.353515625,0.47607421875,0.44970703125,59.39024390243903,-150.0609756097561,94.08536585365854,120,0
380,-0.32861328125,0.47314453125,0.44140625,60.54878048780488,-149.69512195121953,94.26829268292684,120,0
381,-0.29736328125,0.48095703125,0.42529296875,62.25609756097562,-149.26829268292684,95.00000000000001,120,0
382,-0.2529296875,0.50048828125,0.41064453125,63.04878048780488,-150.0609756097561,95.3658536585366,120,0
383,-0.2138671875,0.515625,0.44677734375,62.19512195121952,-150.0,97.31707317073172,120,0
384,-0.17529296875,0.53271484375,0.4501953125,61.707317073170735,-149.87804878048783,97.43902439024392,120,0
385,-0.1455078125,0.51416015625,0.45703125,61.524390243902445,-150.1219512195122,99.32926829268294,120,0
386,-0.103515625,0.53271484375,0.45166015625,62.560975609756106,-150.7926829268293,99.63414634146342,120,0
387,-0.0869140625,0.52978515625,0.44091796875,64.20731707317074,-151.34146341463415,101.70731707317074,120,0
388,-0.0654296875,0.54541015625,0.4140625,62.804878048780495,-150.0609756097561,101.76829268292684,120,0
389,-0.02978515625,0.5888671875,0.4384765625,60.67073170731708,-149.57317073170734,102.19512195121952,120,0
390,-0.12451171875,0.61376953125,0.44580078125,58.84146341463415,-150.0,103.29268292682927,120,0
391,0.00390625,0.630859375,0.44677734375,57.804878048780495,-150.5487804878049,104.14634146341464,120,0
392,0.01904296875,0.62255859375,0.47021484375,57.43902439024391,-151.28048780487805,105.3658536585366,120,0
393,0.02783203125,0.61962890625,0.4482421875,58.71951219512196,-153.2317073170732,106.70731707317074,120,0
394,0.0380859375,0.642578125,0.46533203125,60.304878048780495,-153.78048780487805,107.19512195121952,120,0
395,0.06689453125,0.654296875,0.46826171875,60.85365853658537,-153.59756097560978,108.47560975609757,120,0
396,0.10986328125,0.685546875,0.4638671875,61.09756097560976,-154.69512195121953,110.1219512195122,120,0
397,0.13037109375,0.69384765625,0.47314453125,61.707317073170735,-155.1829268292683,111.15853658536587,120,0
398,0.1689453125,0.70361328125,0.45361328125,62.43902439024391,-154.57317073170734,110.79268292682927,120,0
399,0.21630859375,0.72607421875,0.44189453125,62.19512195121952,-153.2317073170732,110.3658536585366,120,0
400,0.2607421875,0.74853515625,0.41796875,61.03658536585366,-151.15853658536588,109.57317073170732,120,0
401,0.314453125,0.7900390625,0.42041015625,60.91463414634147,-149.81707317073173,107.6829268292683,120,0
402,0.35205078125,0.7939453125,0.392578125,60.91463414634147,-149.69512195121953,106.76829268292684,120,0
403,0.390625,0.80224609375,0.36962890625,62.19512195121952,-149.20731707317074,104.45121951219514,120,0
404,0.408203125,0.791015625,0.35693359375,62.6829268292683,-147.9878048780488,102.6829268292683,120,0
405,0.423828125,0.7841796875,0.34521484375,62.13414634146342,-146.28048780487805,101.21951219512196,120,0
406,0.443359375,0.796875,0.36279296875,59.57317073170732,-144.26829268292684,100.60975609756099,120,0
407,0.45166015625,0.80078125,0.39453125,56.951219512195124,-142.9268292682927,100.79268292682927,120,0
408,0.44970703125,0.7861328125,0.431640625,56.34146341463415,-141.52439024390245,102.01219512195122,120,0
409,0.43212890625,0.7451171875,0.44921875,56.15853658536586,-140.609756097561,102.6219512195122,120,0
410,0.4287109375,0.69189453125,0.40478515625,55.1829268292683,-138.35365853658539,102.8658536585366,120,0
411,0.4482421875,0.6904296875,0.359375,52.804878048780495,-135.5487804878049,101.76829268292684,120,0
412,0.46630859375,0.72021484375,0.33349609375,52.07317073170732,-133.53658536585368,102.37804878048782,120,0
413,0.5068359375,0.6298828125,0.314453125,51.21951219512196,-132.9268292682927,104.39024390243904,120,0
414,0.51513671875,0.75439453125,0.314453125,50.1219512195122,-131.52439024390245,106.52439024390245,120,0
415,0.50048828125,0.69091796875,0.29345703125,48.47560975609756,-129.57317073170734,108.59756097560977,120,0
416,0.4990234375,0.66845703125,0.279296875,47.25609756097561,-126.40243902439026,109.75609756097562,120,0
417,0.52783203125,0.67236328125,0.28369140625,31.219512195121954,-124.69512195121952,110.73170731707319,120,0
418,0.5673828125,0.66455078125,0.259765625,46.03658536585366,-140.3658536585366,111.95121951219514,120,0
419,0.576171875,0.64697265625,0.12890625,42.743902439024396,-120.60975609756099,110.97560975609757,120,0
420,0.62255859375,0.646484375,0.23974609375,36.40243902439025,-114.75609756097562,109.26829268292684,120,0
421,0.67822265625,0.6962890625,0.22509765625,31.463414634146343,-111.21951219512196,109.75609756097562,120,0
422,0.70703125,0.70068359375,0.2021484375,27.195121951219516,-110.06097560975611,111.64634146341464,120,0
423,0.68017578125,0.66796875,0.181640625,25.853658536585368,-110.06097560975611,113.90243902439025,120,0
424,0.66357421875,0.740234375,0.208984375,28.475609756097562,-111.58536585365854,113.96341463414635,120,0
425,0.63818359375,0.57763671875,0.21044921875,31.58536585365854,-110.42682926829269,113.59756097560977,120,0
426,0.66259765625,0.572265625,0.19140625,34.69512195121951,-111.09756097560977,114.20731707317074,120,0
427,0.6884765625,0.5791015625,0.17626953125,36.768292682926834,-110.54878048780489,114.69512195121952,120,0
428,0.71142578125,0.5693359375,0.17041015625,35.670731707317074,-107.56097560975611,113.78048780487806,120,0
429,0.75634765625,0.5888671875,0.15869140625,33.78048780487805,-104.08536585365854,112.56097560975611,120,0
430,0.80322265625,0.619140625,0.14453125,46.524390243902445,-101.76829268292684,112.19512195121952,120,0
431,0.80712890625,0.609375,0.12255859375,26.158536585365855,-98.53658536585367,111.28048780487806,120,0
432,0.81396484375,0.60888671875,0.00146484375,20.60975609756098,-94.32926829268294,110.3048780487805,120,0
433,0.822265625,0.6083984375,0.14453125,17.682926829268293,-91.15853658536587,109.32926829268294,120,0
434,0.81640625,0.6044921875,0.1396484375,16.402439024390244,-90.1219512195122,109.08536585365854,120,0
435,0.7744140625,0.5693359375,0.14794921875,16.951219512195124,-90.42682926829269,109.45121951219514,120,0
436,0.74267578125,0.53759765625,0.12109375,17.5609756097561,-88.41463414634147,107.8658536585366,120,0
437,0.76708984375,0.537109375,0.07763671875,16.951219512195124,-86.46341463414635,106.09756097560977,120,0
438,0.81640625,0.53857421875,0.04345703125,16.52439024390244,-86.70731707317074,106.28048780487806,120,0
439,0.822265625,0.51806640625,0.00537109375,14.695121951219514,-86.21951219512196,106.28048780487806,120,0
440,0.83154296875,0.47607421875,-0.00341796875,9.085365853658537,-83.47560975609757,105.48780487804879,120,0
441,0.828125,0.46142578125,0.0048828125,3.353658536585366,-79.81707317073172,104.08536585365854,120,0
442,0.8466796875,0.50244140625,0.0498046875,1.1585365853658538,-78.29268292682927,103.53658536585367,120,0
443,0.83935546875,0.5029296875,0.056640625,1.524390243902439,-77.7439024390244,103.78048780487806,120,0
444,0.81640625,0.4462890625,0.0556640625,5.914634146341464,-78.96341463414635,102.56097560975611,120,0
445,0.8076171875,0.4091796875,0.02734375,11.402439024390246,-78.84146341463415,100.42682926829269,120,0
446,0.806640625,0.39306640625,-0.1220703125,15.365853658536587,-77.7439024390244,97.8658536585366,120,0
447,0.82568359375,0.38623046875,-0.0537109375,31.158536585365855,-76.03658536585367,95.79268292682927,120,0
448,0.8466796875,0.3779296875,-0.10107421875,13.29268292682927,-71.58536585365854,93.10975609756099,120,0
449,0.814453125,0.35302734375,-0.130859375,6.951219512195123,-66.28048780487805,92.8658536585366,120,0
450,0.830078125,0.34375,-0.15478515625,0.9756097560975611,-62.01219512195122,109.14634146341464,120,0
451,0.8154296875,0.318359375,-0.14990234375,-2.5,-59.57317073170732,93.23170731707317,120,0
452,0.8095703125,0.31298828125,-0.1357421875,-4.207317073170732,-57.07317073170732,91.76829268292684,120,0
453,0.80322265625,0.322265625,-0.1171875,-6.585365853658537,-53.84146341463415,89.08536585365854,120,0
454,0.8515625,0.33544921875,-0.11279296875,-8.475609756097562,-49.39024390243903,85.54878048780489,120,0
455,0.86669921875,0.34033203125,-0.12158203125,-10.0,-45.0609756097561,81.70731707317074,120,0
456,0.89697265625,0.365234375,-0.10107421875,-10.121951219512196,-42.01219512195122,78.17073170731707,120,0
457,0.88623046875,0.3173828125,-0.115234375,-9.634146341463415,-39.93902439024391,75.48780487804879,120,0
458,0.84228515625,0.28515625,-0.14453125,-7.987804878048781,-38.65853658536586,73.17073170731707,120,0
459,0.79833984375,0.1259765625,-0.15771484375,-5.0,-38.35365853658537,71.70731707317074,120,0
460,0.7802734375,0.26220703125,-0.16015625,-2.073170731707317,-38.170731707317074,71.03658536585367,120,0
461,0.7841796875,0.27880859375,-0.126953125,-0.1829268292682927,-37.5,69.20731707317074,120,0
462,0.81591796875,0.294921875,-0.1357421875,2.073170731707317,-35.670731707317074,66.82926829268293,120,0
463,0.81494140625,0.2880859375,-0.142578125,1.3414634146341464,-33.41463414634146,63.41463414634147,120,0
464,0.82177734375,0.31494140625,-0.15380859375,-1.0365853658536586,-29.81707317073171,59.451219512195124,120,0
465,0.873046875,0.345703125,-0.15576171875,-4.75609756097561,-26.219512195121954,55.0609756097561,120,0
466,0.8974609375,0.34375,-0.15869140625,-8.536585365853659,-23.10975609756098,50.60975609756098,120,0
467,0.8857421875,0.33447265625,-0.1630859375,-10.548780487804878,-21.158536585365855,47.01219512195122,120,0
468,0.75146484375,0.33056640625,-0.15625,-10.975609756097562,-19.32926829268293,43.41463414634147,120,0
469,0.84326171875,0.30224609375,-0.166015625,-10.731707317073171,-17.804878048780488,40.79268292682927,120,0
470,0.82568359375,0.2880859375,-0.15771484375,-9.02439024390244,-17.439024390243905,38.59756097560976,120,0
471,0.81640625,0.27392578125,-0.18505859375,-8.963414634146343,-31.158536585365855,35.79268292682927,120,0
472,0.81494140625,0.27587890625,-0.1650390625,-10.121951219512196,-12.74390243902439,33.23170731707317,120,0
473,0.83154296875,0.2763671875,-0.162109375,-11.52439024390244,-10.121951219512196,30.670731707317074,120,0
474,0.81591796875,0.125,-0.1552734375,-11.76829268292683,-8.292682926829269,28.475609756097562,120,0
475,0.81103515625,0.2421875,-0.14501953125,-11.76829268292683,-6.890243902439025,26.34146341463415,120,0
476,0.8115234375,0.24853515625,-0.1474609375,-11.76829268292683,-5.853658536585367,23.963414634146343,120,0
477,0.83251953125,0.2578125,-0.1484375,-12.317073170731708,-4.329268292682928,21.646341463414636,120,0
478,0.83642578125,0.2548828125,-0.1650390625,-15.487804878048783,-1.1585365853658538,19.02439024390244,120,0
479,0.83203125,0.25732421875,-0.169921875,-18.597560975609756,1.524390243902439,16.76829268292683,120,0
480,0.83154296875,0.23828125,-0.1708984375,-20.975609756097562,3.536585365853659,14.390243902439027,120,0
481,0.82666015625,0.232421875,-0.17578125,-22.195121951219512,5.182926829268293,11.890243902439025,120,0
482,0.828125,0.2109375,-0.16943359375,-23.04878048780488,7.01219512195122,9.817073170731708,120,0
483,0.81298828125,0.189453125,-0.1650390625,-23.04878048780488,8.353658536585366,7.378048780487806,120,0
484,0.80908203125,0.1796875,-0.16455078125,-22.31707317073171,9.634146341463415,4.878048780487806,120,0
485,0.8193359375,0.173828125,-0.1435546875,-21.463414634146343,10.609756097560977,2.439024390243903,120,0
486,0.81298828125,0.166015625,-0.16064453125,-19.939024390243905,10.30487804878049,15.487804878048783,120,0
487,0.7978515625,0.1533203125,-0.18212890625,-19.26829268292683,11.036585365853659,-2.378048780487805,120,0
488,0.80419921875,0.1552734375,-0.1875,-18.84146341463415,11.402439024390246,-4.451219512195122,120,0
489,0.814453125,0.1552734375,-0.1904296875,-19.512195121951223,12.500000000000002,-6.707317073170732,120,0
490,0.81494140625,0.1416015625,-0.1767578125,-20.60975609756098,13.963414634146343,-8.414634146341465,120,0
491,0.8017578125,0.12646484375,-0.171875,-22.80487804878049,16.219512195121954,-10.426829268292684,120,0
492,0.78564453125,0.1083984375,-0.2197265625,-23.902439024390247,14.878048780487806,-10.792682926829269,120,0
493,0.755859375,0.0771484375,-0.2197265625,-23.29268292682927,15.365853658536587,-12.317073170731708,120,0
494,0.75537109375,0.087890625,-0.224609375,-22.743902439024392,31.158536585365855,-12.560975609756099,120,0
495,0.78271484375,0.107421875,-0.18994140625,-22.98780487804878,16.097560975609756,-12.256097560975611,120,0
496,0.755859375,0.08349609375,-0.2021484375,-23.170731707317074,16.76829268292683,-11.463414634146343,120,0
497,0.734375,0.0634765625,-0.203125,-21.28048780487805,16.402439024390244,-11.097560975609756,120,0
498,0.72900390625,0.0517578125,-0.18994140625,-18.902439024390244,16.402439024390244,-11.219512195121952,120,0
499,0.72314453125,0.05712890625,-0.1982421875,-17.743902439024392,16.82926829268293,-10.853658536585368,120,0
