,Ax,Ay,Az,Gx,Gy,Gz,distance,shot_type
0,0.69677734375,-0.58447265625,-0.16455078125,6.341463414634147,7.987804878048781,-8.109756097560977,10,4
1,0.66796875,-0.5888671875,-0.162109375,9.756097560975611,5.121951219512195,-7.560975609756098,10,4
2,0.66796875,-0.5830078125,-0.16015625,11.76829268292683,2.8658536585365857,-7.195121951219513,10,4
3,0.65869140625,-0.59228515625,-0.16064453125,12.134146341463415,1.829268292682927,-6.829268292682928,10,4
4,0.654296875,-0.587890625,-0.16259765625,12.682926829268293,1.7682926829268295,-6.2804878048780495,10,4
5,0.634765625,-0.61474609375,-0.1796875,12.621951219512196,1.707317073170732,-5.182926829268293,10,4
6,0.638671875,-0.619140625,-0.20849609375,12.74390243902439,1.402439024390244,-4.2682926829268295,10,4
7,0.65625,-0.609375,-0.23779296875,12.439024390243903,2.378048780487805,-3.231707317073171,10,4
8,0.65771484375,-0.6103515625,-0.24560546875,10.853658536585368,4.085365853658537,-2.987804878048781,10,4
9,0.68115234375,-0.5859375,-0.27392578125,9.085365853658537,5.7926829268292686,-2.682926829268293,10,4
10,0.6796875,-0.572265625,-0.26123046875,7.073170731707318,7.378048780487806,-2.5609756097560976,10,4
11,0.6689453125,-0.5693359375,-0.240234375,5.182926829268293,8.658536585365855,-2.5,10,4
12,0.6611328125,-0.55810546875,-0.216796875,4.390243902439025,9.085365853658537,-2.073170731707317,10,4
13,0.64404296875,-0.54443359375,-0.18115234375,5.2439024390243905,8.414634146341465,-1.7682926829268295,10,4
14,0.64990234375,-0.537109375,-0.171875,6.585365853658537,8.231707317073171,-1.524390243902439,10,4
15,0.64013671875,-0.5234375,-0.17041015625,8.658536585365855,6.646341463414635,-0.5487804878048781,10,4
16,0.62841796875,-0.5302734375,-0.1767578125,10.914634146341465,4.573170731707317,0.7926829268292683,10,4
17,0.6259765625,-0.533203125,-0.20166015625,13.231707317073171,2.1341463414634148,1.0365853658536586,10,4
18,0.6708984375,-0.50537109375,-0.2265625,14.634146341463415,1.7682926829268295,0.6097560975609757,10,4
19,0.71337890625,-0.4873046875,-0.23046875,13.902439024390246,4.329268292682928,0.426829268292683,10,4
20,0.7275390625,-0.62158203125,-0.22802734375,10.121951219512196,7.682926829268293,-0.48780487804878053,10,4
21,0.728515625,-0.49609375,-0.23828125,4.573170731707317,11.158536585365855,-1.8902439024390245,10,4
22,0.728515625,-0.4951171875,-0.2265625,-0.7926829268292683,13.353658536585368,-2.0121951219512195,10,4
23,0.6796875,-0.53515625,-0.20458984375,-2.1951219512195124,12.74390243902439,-1.8902439024390245,10,4
24,0.63330078125,-0.57373046875,-0.16796875,0.30487804878048785,9.329268292682928,-1.9512195121951221,10,4
25,0.62109375,-0.60791015625,-0.13671875,3.780487804878049,6.646341463414635,-2.073170731707317,10,4
26,0.611328125,-0.59228515625,-0.1103515625,6.890243902439025,4.878048780487806,-2.073170731707317,10,4
27,0.63330078125,-0.57568359375,-0.08984375,8.353658536585366,5.975609756097562,-1.8902439024390245,10,4
28,0.634765625,-0.580078125,-0.06201171875,8.414634146341465,8.109756097560977,-1.7682926829268295,10,4
29,0.50244140625,-0.572265625,-0.0693359375,8.841463414634147,10.0,-0.7317073170731708,10,4
30,0.62451171875,-0.56591796875,-0.08642578125,9.878048780487806,9.207317073170733,-15.609756097560977,10,4
31,0.67431640625,-0.5185546875,-0.14208984375,11.28048780487805,8.597560975609756,0.7926829268292683,10,4
32,0.7041015625,-0.51123046875,-0.1611328125,10.731707317073171,9.756097560975611,0.7317073170731708,10,4
33,0.70751953125,-0.49853515625,-0.1845703125,10.182926829268293,10.609756097560977,0.24390243902439027,10,4
34,0.69775390625,-0.51904296875,-0.1865234375,10.365853658536587,11.585365853658537,-0.30487804878048785,10,4
35,0.72021484375,-0.5029296875,-0.1826171875,9.939024390243903,12.80487804878049,-0.7926829268292683,10,4
36,0.71875,-0.4970703125,-0.1865234375,8.475609756097562,14.146341463414636,-1.3414634146341464,10,4
37,0.71923828125,-0.48046875,-0.1826171875,10.30487804878049,13.78048780487805,-0.853658536585366,10,4
38,0.68603515625,-0.52685546875,-0.14990234375,13.04878048780488,13.475609756097562,-0.9146341463414634,10,4
39,0.6943359375,-0.53369140625,-0.16357421875,15.365853658536587,13.109756097560977,-1.2195121951219514,10,4
40,0.7080078125,-0.5283203125,-0.15966796875,17.682926829268293,12.560975609756099,-1.4634146341463417,10,4
41,0.70166015625,-0.51953125,-0.162109375,19.26829268292683,12.317073170731708,-1.2195121951219514,10,4
42,0.7060546875,-0.53125,-0.15771484375,19.573170731707318,13.536585365853659,-0.24390243902439027,10,4
43,0.7001953125,-0.533203125,-0.14794921875,17.865853658536587,16.402439024390244,0.7317073170731708,10,4
44,0.689453125,-0.53515625,-0.14501953125,14.26829268292683,18.719512195121954,1.402439024390244,10,4
45,0.68798828125,-0.51513671875,-0.14306640625,12.74390243902439,20.365853658536587,1.8902439024390245,10,4
46,0.68017578125,-0.521484375,-0.13330078125,12.621951219512196,20.60975609756098,1.8902439024390245,10,4
47,0.6884765625,-0.52001953125,-0.001953125,12.987804878048781,20.731707317073173,1.9512195121951221,10,4
48,0.70947265625,-0.49853515625,-0.00146484375,14.390243902439027,19.451219512195124,1.4634146341463417,10,4
49,0.70849609375,-0.49462890625,-0.13671875,15.487804878048783,18.719512195121954,1.2804878048780488,10,4
50,0.69189453125,-0.49267578125,-0.1474609375,16.70731707317073,17.98780487804878,0.48780487804878053,10,4
51,0.6943359375,-0.4873046875,-0.1796875,16.646341463414636,18.04878048780488,-0.30487804878048785,10,4
52,0.72021484375,-0.4697265625,-0.16796875,15.182926829268293,19.878048780487806,-0.9756097560975611,10,4
53,0.72265625,-0.48291015625,-0.14990234375,12.134146341463415,22.865853658536587,-1.402439024390244,10,4
54,0.70703125,-0.48681640625,-0.11962890625,9.451219512195122,26.219512195121954,-1.8902439024390245,10,4
55,0.69921875,-0.49853515625,-0.0693359375,8.109756097560977,28.53658536585366,-2.439024390243903,10,4
56,0.68408203125,-0.515625,-0.05224609375,7.987804878048781,29.634146341463417,-2.6219512195121952,10,4
57,0.66845703125,-0.53271484375,-0.0537109375,9.146341463414634,29.39024390243903,-2.0121951219512195,10,4
58,0.65625,-0.5615234375,-0.0537109375,11.28048780487805,28.658536585365855,-1.2804878048780488,10,4
59,0.6572265625,-0.560546875,-0.05517578125,14.817073170731708,27.865853658536587,-0.7926829268292683,10,4
60,0.6728515625,-0.55859375,-0.0556640625,17.743902439024392,27.743902439024392,-0.7926829268292683,10,4
61,0.68798828125,-0.541015625,-0.087890625,19.390243902439025,27.926829268292686,-0.9146341463414634,10,4
62,0.6982421875,-0.52685546875,-0.1171875,18.231707317073173,28.292682926829272,-0.6097560975609757,10,4
63,0.72216796875,-0.51025390625,-0.13232421875,15.853658536585368,30.121951219512198,-0.7926829268292683,10,4
64,0.73193359375,-0.46923828125,-0.1640625,12.560975609756099,32.07317073170732,-1.7682926829268295,10,4
65,0.7373046875,-0.45849609375,-0.18896484375,7.500000000000001,36.40243902439025,-3.4756097560975614,10,4
66,0.73779296875,-0.458984375,-0.19287109375,2.439024390243903,37.926829268292686,-5.121951219512195,10,4
67,0.736328125,-0.44775390625,-0.19580078125,-4.51219512195122,39.69512195121951,-5.487804878048781,10,4
68,0.7294921875,-0.4521484375,-0.20068359375,-8.841463414634147,39.63414634146342,-6.52439024390244,10,4
69,0.70751953125,-0.48681640625,-0.20361328125,-10.365853658536587,37.31707317073171,-6.829268292682928,10,4
70,0.6845703125,-0.517578125,-0.17919921875,-8.841463414634147,35.1829268292683,-7.439024390243903,10,4
71,0.71875,-0.5205078125,-0.10546875,-8.353658536585366,36.768292682926834,-5.365853658536586,10,4
72,0.6865234375,-0.5576171875,-0.05078125,-12.865853658536587,41.28048780487805,-3.5975609756097566,10,4
73,0.66015625,-0.55419921875,-0.04638671875,-16.70731707317073,44.207317073170735,-1.8902439024390245,10,4
74,0.599609375,-0.5810546875,-0.02734375,-15.975609756097562,43.59756097560976,0.48780487804878053,10,4
75,0.57470703125,-0.607421875,-0.00048828125,-12.500000000000002,41.890243902439025,3.4756097560975614,10,4
76,0.57861328125,-0.6083984375,0.02783203125,-7.500000000000001,38.170731707317074,7.195121951219513,10,4
77,0.587890625,-0.60595703125,-0.0009765625,-4.146341463414634,34.87804878048781,10.24390243902439,10,4
78,0.5908203125,-0.56982421875,-0.01416015625,-1.2195121951219514,32.86585365853659,12.621951219512196,10,4
79,0.6181640625,-0.537109375,-0.033203125,1.0365853658536586,31.82926829268293,15.060975609756099,10,4
80,0.64013671875,-0.50927734375,-0.0322265625,1.1585365853658538,31.463414634146343,16.34146341463415,10,4
81,0.66064453125,-0.48974609375,-0.0732421875,-2.8658536585365857,31.402439024390247,16.03658536585366,10,4
82,0.66845703125,-0.47705078125,-0.14599609375,-9.26829268292683,33.71951219512196,14.329268292682928,10,4
83,0.693359375,-0.4375,-0.1845703125,-13.719512195121952,37.5609756097561,13.719512195121952,10,4
84,0.7275390625,-0.40869140625,-0.16748046875,-22.80487804878049,41.524390243902445,12.256097560975611,10,4
85,0.76953125,-0.38427734375,-0.1552734375,-37.31707317073171,46.524390243902445,11.52439024390244,10,4
86,0.77685546875,-0.36181640625,-0.2197265625,-50.1829268292683,53.10975609756098,10.30487804878049,10,4
87,0.81884765625,-0.30615234375,-0.197265625,-59.207317073170735,59.024390243902445,5.609756097560976,10,4
88,0.83203125,-0.3154296875,-0.1416015625,-65.0,62.926829268292686,1.3414634146341464,10,4
89,0.810546875,-0.3623046875,-0.10693359375,-66.95121951219512,65.73170731707317,-1.4634146341463417,10,4
90,0.79052734375,-0.43310546875,-0.0908203125,-68.41463414634147,66.15853658536587,-1.707317073170732,10,4
91,0.75341796875,-0.47900390625,-0.09326171875,-67.7439024390244,65.42682926829269,-1.2804878048780488,10,4
92,0.7060546875,-0.37744140625,-0.0029296875,-65.0609756097561,62.07317073170732,-0.853658536585366,10,4
93,0.67578125,-0.50732421875,-0.1435546875,-59.024390243902445,57.50000000000001,-1.2195121951219514,10,4
94,0.67822265625,-0.494140625,-0.1220703125,-52.50000000000001,53.17073170731708,-0.7926829268292683,10,4
95,0.68212890625,-0.50537109375,-0.1083984375,-45.54878048780488,47.31707317073171,0.6707317073170732,10,4
96,0.68017578125,-0.46826171875,-0.125,-39.93902439024391,43.04878048780488,15.54878048780488,10,4
97,0.6796875,-0.41064453125,-0.146484375,-35.73170731707317,38.47560975609756,-1.2804878048780488,10,4
98,0.67626953125,-0.3916015625,-0.15576171875,-33.170731707317074,33.71951219512196,-2.682926829268293,10,4
99,0.69189453125,-0.36474609375,-0.18505859375,-32.37804878048781,30.731707317073173,-3.536585365853659,10,4
100,0.69189453125,-0.34375,-0.1494140625,-32.6219512195122,29.87804878048781,-6.158536585365854,10,4
101,0.73291015625,-0.34619140625,-0.1435546875,-35.36585365853659,29.02439024390244,-6.463414634146342,10,4
102,0.7197265625,-0.322265625,-0.18505859375,-38.59756097560976,28.170731707317074,-8.719512195121952,10,4
103,0.69970703125,-0.31591796875,-0.201171875,-42.86585365853659,29.32926829268293,-10.975609756097562,10,4
104,0.6875,-0.32177734375,-0.21044921875,-45.36585365853659,28.963414634146343,-12.865853658536587,10,4
105,0.69873046875,-0.33056640625,-0.19287109375,-45.73170731707317,27.134146341463417,-14.573170731707318,10,4
106,0.70751953125,-0.3310546875,-0.1748046875,-46.09756097560976,24.634146341463417,-15.609756097560977,10,4
107,0.708984375,-0.32763671875,-0.177734375,-46.89024390243903,22.378048780487806,-16.52439024390244,10,4
108,0.67529296875,-0.33349609375,-0.1748046875,-62.43902439024391,20.121951219512198,-17.5,10,4
109,0.693359375,-0.33251953125,-0.17822265625,-31.34146341463415,18.29268292682927,-19.085365853658537,10,4
110,0.70263671875,-0.32568359375,-0.22412109375,-48.47560975609756,16.76829268292683,-21.28048780487805,10,4
111,0.73193359375,-0.29443359375,-0.2431640625,-50.304878048780495,15.243902439024392,-23.658536585365855,10,4
112,0.75732421875,-0.26611328125,-0.2734375,-54.024390243902445,15.060975609756099,-25.975609756097562,10,4
113,0.75,-0.27880859375,-0.26953125,-58.65853658536586,15.30487804878049,-28.292682926829272,10,4
114,0.759765625,-0.2626953125,-0.27587890625,-64.32926829268293,16.585365853658537,-31.707317073170735,10,4
115,0.787109375,-0.25390625,-0.28076171875,-70.85365853658537,18.719512195121954,-34.390243902439025,10,4
116,0.779296875,-0.26025390625,-0.28955078125,-76.40243902439025,19.573170731707318,-36.463414634146346,10,4
117,0.78466796875,-0.25732421875,-0.28466796875,-79.69512195121952,20.0,-37.926829268292686,10,4
118,0.7890625,-0.2705078125,-0.27587890625,-82.43902439024392,19.939024390243905,-39.08536585365854,10,4
119,0.76953125,-0.2919921875,-0.24609375,-83.90243902439025,19.26829268292683,-39.08536585365854,10,4
120,0.76025390625,-0.296875,-0.26318359375,-83.47560975609757,17.865853658536587,-40.54878048780488,10,4
121,0.765625,-0.26904296875,-0.27294921875,-83.96341463414635,16.097560975609756,-42.50000000000001,10,4
122,0.79736328125,-0.26171875,-0.27880859375,-86.40243902439025,15.243902439024392,-44.390243902439025,10,4
123,0.8125,-0.25146484375,-0.294921875,-89.87804878048782,14.939024390243905,-46.58536585365854,10,4
124,0.8193359375,-0.25390625,-0.306640625,-92.7439024390244,14.207317073170733,-49.451219512195124,10,4
125,0.82275390625,-0.27001953125,-0.322265625,-96.09756097560977,13.78048780487805,-53.04878048780488,10,4
126,0.837890625,-0.27294921875,-0.32958984375,-98.96341463414635,14.26829268292683,-55.00000000000001,10,4
127,0.84130859375,-0.27294921875,-0.32177734375,-101.52439024390245,14.085365853658537,-57.43902439024391,10,4
128,0.8564453125,-0.25341796875,-0.32275390625,-104.20731707317074,13.536585365853659,-60.304878048780495,10,4
129,0.8623046875,-0.25390625,-0.32275390625,-106.89024390243904,12.865853658536587,-62.43902439024391,10,4
130,0.8583984375,-0.26904296875,-0.318359375,-107.6829268292683,11.402439024390246,-63.90243902439025,10,4
131,0.86376953125,-0.27197265625,-0.31201171875,-109.02439024390245,10.731707317073171,-66.15853658536587,10,4
132,0.89697265625,-0.12939453125,-0.3203125,-111.64634146341464,11.585365853658537,-69.32926829268293,10,4
133,0.89306640625,-0.2607421875,-0.32080078125,-115.79268292682927,12.865853658536587,-71.28048780487805,10,4
134,0.888671875,-0.25341796875,-0.31640625,-117.13414634146342,13.29268292682927,-73.53658536585367,10,4
135,0.89599609375,-0.2529296875,-0.32373046875,-118.90243902439025,13.353658536585368,-75.85365853658537,10,4
136,0.91552734375,-0.24462890625,-0.33544921875,-121.64634146341464,13.29268292682927,-62.6219512195122,10,4
137,0.923828125,-0.224609375,-0.35009765625,-124.75609756097562,13.719512195121952,-81.46341463414635,10,4
138,0.92431640625,-0.2197265625,-0.33349609375,-125.91463414634147,13.475609756097562,-83.84146341463415,10,4
139,0.94287109375,-0.2041015625,-0.33447265625,-127.62195121951221,12.926829268292684,-85.42682926829269,10,4
140,0.9326171875,-0.2138671875,-0.3427734375,-127.92682926829269,12.073170731707318,-87.8658536585366,10,4
141,0.9228515625,-0.24169921875,-0.34375,-127.13414634146342,10.0,-89.57317073170732,10,4
142,0.904296875,-0.2529296875,-0.349609375,-140.4268292682927,7.01219512195122,-90.79268292682927,10,4
143,0.9091796875,-0.259765625,-0.39306640625,-123.78048780487806,4.878048780487806,-92.92682926829269,10,4
144,0.94775390625,-0.224609375,-0.423828125,-120.91463414634147,0.6097560975609757,-96.46341463414635,10,4
145,1.01611328125,-0.12158203125,-0.412109375,-118.96341463414635,-1.707317073170732,-99.81707317073172,10,4
146,1.11181640625,-0.05029296875,-0.42431640625,-122.13414634146342,-0.12195121951219513,-104.69512195121952,10,4
147,1.138671875,-0.017578125,-0.45654296875,-131.34146341463415,3.2926829268292686,-108.84146341463416,10,4
148,1.1337890625,-0.03076171875,-0.48681640625,-141.76829268292684,7.621951219512196,-112.98780487804879,10,4
149,1.130859375,-0.04638671875,-0.47998046875,-147.9268292682927,10.792682926829269,-116.58536585365854,10,4
150,1.1494140625,-0.03076171875,-0.4453125,-151.64634146341464,14.085365853658537,-120.73170731707319,10,4
151,1.1796875,-0.02001953125,-0.45703125,-156.70731707317074,15.30487804878049,-124.02439024390245,10,4
152,1.16064453125,-0.05322265625,-0.44921875,-160.4268292682927,17.134146341463417,-127.8048780487805,10,4
153,1.17333984375,-0.0634765625,-0.43212890625,-160.85365853658539,17.25609756097561,-130.3658536585366,10,4
154,1.1796875,-0.048828125,-0.36572265625,-158.84146341463415,17.621951219512198,-132.8048780487805,10,4
155,1.2216796875,-0.0283203125,-0.38427734375,-157.6829268292683,17.439024390243905,-134.81707317073173,10,4
156,1.2412109375,0.025390625,-0.39794921875,-156.64634146341464,16.402439024390244,-139.26829268292684,10,4
157,1.27587890625,0.09423828125,-0.40234375,-156.15853658536588,14.573170731707318,-142.6219512195122,10,4
158,1.318359375,0.107421875,-0.37646484375,-155.97560975609758,14.02439024390244,-147.5,10,4
159,1.3798828125,0.14501953125,-0.42822265625,-156.76829268292684,13.475609756097562,-152.37804878048783,10,4
160,1.4072265625,0.18505859375,-0.39208984375,-160.0,16.158536585365855,-158.0487804878049,10,4
161,1.4443359375,0.17333984375,-0.4033203125,-165.3048780487805,18.78048780487805,-163.59756097560978,10,4
162,1.4423828125,0.1875,-0.49560546875,-166.58536585365854,22.25609756097561,-169.69512195121953,10,4
163,1.455078125,0.19287109375,-0.31982421875,-165.3658536585366,22.80487804878049,-173.78048780487808,10,4
164,1.4736328125,0.1923828125,-0.28759765625,-161.52439024390245,21.76829268292683,-176.40243902439025,10,4
165,1.4794921875,0.1611328125,-0.3115234375,-158.65853658536588,20.243902439024392,-179.81707317073173,10,4
166,1.4892578125,0.20947265625,-0.2744140625,-153.71951219512195,20.60975609756098,-184.20731707317074,10,4
167,1.52587890625,0.24267578125,-0.27197265625,-149.26829268292684,20.60975609756098,-187.8048780487805,10,4
168,1.54638671875,0.26318359375,-0.27685546875,-147.8048780487805,21.34146341463415,-192.07317073170734,10,4
169,1.55224609375,0.26953125,-0.31982421875,-149.14634146341464,23.414634146341466,-197.25609756097563,10,4
170,1.5556640625,0.283203125,-0.30908203125,-151.09756097560978,25.975609756097562,-202.8658536585366,10,4
171,1.57373046875,0.31494140625,-0.326171875,-150.7926829268293,25.914634146341466,-207.31707317073173,10,4
172,1.5927734375,0.31396484375,-0.31103515625,-152.25609756097563,27.987804878048784,-211.89024390243904,10,4
173,1.5673828125,0.26953125,-0.33056640625,-152.5,29.08536585365854,-217.25609756097563,10,4
174,1.55029296875,0.25146484375,-0.32861328125,-148.59756097560978,30.792682926829272,-222.50000000000003,10,4
175,1.55810546875,0.30029296875,-0.2744140625,-144.57317073170734,15.670731707317074,-226.28048780487808,10,4
176,1.53955078125,0.31884765625,-0.26904296875,-142.13414634146343,31.89024390243903,-229.81707317073173,10,4
177,1.49853515625,0.3046875,-0.29443359375,-139.9390243902439,31.89024390243903,-232.25609756097563,10,4
178,1.46240234375,0.30712890625,-0.2666015625,-135.85365853658539,31.03658536585366,-234.69512195121953,10,4
179,1.4541015625,0.3251953125,-0.25732421875,-129.14634146341464,30.487804878048784,-237.31707317073173,10,4
180,1.46875,0.35986328125,-0.25,-124.20731707317074,29.02439024390244,-239.26829268292684,10,4
181,1.46533203125,0.3544921875,-0.26171875,-120.48780487804879,29.39024390243903,-241.34146341463418,10,4
182,1.478515625,0.36962890625,-0.271484375,-117.62195121951221,30.670731707317074,-243.2926829268293,10,4
183,1.5419921875,0.43408203125,-0.24755859375,-121.34146341463416,33.109756097560975,-247.31707317073173,10,4
184,1.5810546875,0.49169921875,-0.2294921875,-127.98780487804879,36.646341463414636,-250.5487804878049,10,4
185,1.57958984375,0.4921875,-0.2333984375,-136.70731707317074,42.926829268292686,-252.9878048780488,10,4
186,1.5595703125,0.451171875,-0.1640625,-141.34146341463415,47.86585365853659,-254.14634146341464,10,4
187,1.49365234375,0.36083984375,-0.13134765625,-140.7926829268293,50.1829268292683,-254.02439024390247,10,4
188,1.4140625,0.27978515625,-0.07958984375,-135.2439024390244,50.487804878048784,-253.71951219512198,10,4
189,1.28955078125,0.23876953125,-0.013671875,-127.56097560975611,49.57317073170732,-252.68292682926833,10,4
190,1.20166015625,0.24462890625,0.046875,-117.62195121951221,49.024390243902445,-251.70731707317074,10,4
191,1.15478515625,0.23828125,0.095703125,-109.45121951219514,48.47560975609756,-251.82926829268294,10,4
192,1.09619140625,0.22314453125,0.13623046875,-101.52439024390245,47.50000000000001,-252.25609756097563,10,4
193,1.06982421875,0.21826171875,0.18603515625,-94.75609756097562,47.50000000000001,-252.25609756097563,10,4
194,1.05322265625,0.17431640625,0.23388671875,-90.48780487804879,49.268292682926834,-250.85365853658539,10,4
195,1.01953125,0.1318359375,0.28125,-86.82926829268294,52.6219512195122,-265.3658536585366,10,4
196,0.9619140625,0.08642578125,0.32958984375,-83.96341463414635,56.15853658536586,-248.35365853658539,10,4
197,0.9931640625,0.04248046875,0.3828125,-93.65853658536587,59.024390243902445,-245.85365853658539,10,4
198,0.77685546875,-0.0224609375,0.375,-68.84146341463415,58.41463414634147,-241.64634146341464,10,4
199,0.72412109375,-0.06396484375,0.4267578125,-57.01219512195122,57.07317073170732,-237.43902439024393,10,4
200,0.634765625,-0.146484375,0.37646484375,-61.646341463414636,51.951219512195124,-232.25609756097563,10,4
201,0.55419921875,-0.18310546875,0.34326171875,-34.69512195121951,46.34146341463415,-229.51219512195124,10,4
202,0.54150390625,-0.16162109375,0.31689453125,-26.707317073170735,41.890243902439025,-225.12195121951223,10,4
203,0.5,-0.15087890625,0.3154296875,-24.32926829268293,43.10975609756098,-220.91463414634148,10,4
204,0.466796875,-0.16357421875,0.337890625,-24.146341463414636,46.646341463414636,-216.21951219512198,10,4
205,0.39501953125,-0.21337890625,0.31884765625,-23.353658536585368,47.804878048780495,-208.71951219512198,10,4
206,0.26513671875,-0.30712890625,0.24072265625,-21.03658536585366,48.170731707317074,-201.34146341463418,10,4
207,0.22509765625,-0.35791015625,0.2109375,-16.646341463414636,45.304878048780495,-192.43902439024393,10,4
208,0.1376953125,-0.39599609375,0.193359375,-10.792682926829269,43.23170731707317,-182.37804878048783,10,4
209,0.06298828125,-0.38818359375,0.2021484375,-7.317073170731708,40.97560975609756,-172.25609756097563,10,4
210,0.009765625,-0.40234375,0.1982421875,-5.914634146341464,41.28048780487805,-161.21951219512198,10,4
211,-0.07080078125,-0.45263671875,0.189453125,-6.890243902439025,40.487804878048784,-150.0,10,4
212,-0.11181640625,-0.49169921875,0.1572265625,-10.182926829268293,42.5609756097561,-155.4268292682927,10,4
213,-0.1953125,-0.53369140625,0.2177734375,-15.54878048780488,31.219512195121954,-127.31707317073172,10,4
214,-0.31494140625,-0.59814453125,0.30029296875,-20.243902439024392,49.085365853658544,-111.03658536585367,10,4
215,-0.443359375,-0.70068359375,0.41845703125,-17.439024390243905,50.487804878048784,-97.31707317073172,10,4
216,-0.54541015625,-0.7392578125,0.51904296875,-13.04878048780488,47.50000000000001,-84.32926829268294,10,4
217,-0.3994140625,-0.70947265625,0.56005859375,-7.500000000000001,43.963414634146346,-72.98780487804879,10,4
218,-0.57177734375,-0.748046875,0.52783203125,-4.51219512195122,41.03658536585366,-59.87804878048781,10,4
219,-0.50244140625,-0.83154296875,0.52197265625,-1.0975609756097562,38.84146341463415,-61.40243902439025,10,4
220,-0.6748046875,-0.9130859375,0.52294921875,4.146341463414634,35.670731707317074,-46.40243902439025,10,4
221,-0.7548828125,-0.98583984375,0.47607421875,7.987804878048781,35.91463414634147,-31.09756097560976,10,4
222,-0.7783203125,-1.02978515625,0.375,11.890243902439025,36.707317073170735,-0.1829268292682927,10,4
223,-0.80224609375,-1.08203125,0.4921875,0.24390243902439027,36.951219512195124,17.621951219512198,10,4
224,-0.86083984375,-1.09814453125,0.4384765625,20.853658536585368,37.5,32.43902439024391,10,4
225,-0.65771484375,-1.11328125,0.4189453125,22.682926829268293,38.47560975609756,32.07317073170732,10,4
226,-0.5849609375,-1.14453125,0.39599609375,24.207317073170735,41.58536585365854,65.0609756097561,10,4
227,-0.568359375,-1.23193359375,0.3935546875,26.707317073170735,43.47560975609756,84.26829268292684,10,4
228,-0.59423828125,-1.35107421875,0.36865234375,34.81707317073171,41.768292682926834,104.20731707317074,10,4
229,-0.5439453125,-1.408203125,0.400390625,31.82926829268293,37.01219512195122,122.25609756097562,10,4
230,-0.41796875,-1.40185546875,0.4228515625,57.865853658536594,35.91463414634147,139.45121951219514,10,4
231,-0.267578125,-1.40673828125,0.40185546875,61.585365853658544,39.08536585365854,155.1829268292683,10,4
232,-0.1484375,-1.43115234375,0.396484375,59.085365853658544,43.963414634146346,170.85365853658539,10,4
233,-0.07568359375,-1.38134765625,0.349609375,57.865853658536594,49.024390243902445,172.9268292682927,10,4
234,-0.02001953125,-1.5048828125,0.35107421875,58.17073170731708,50.60975609756098,208.2926829268293,10,4
235,-0.00390625,-1.77978515625,0.35400390625,64.9390243902439,50.60975609756098,228.109756097561,10,4
236,0.07763671875,-1.87060546875,0.4033203125,77.6829268292683,48.59756097560976,249.02439024390247,10,4
237,0.2373046875,-1.88671875,0.4296875,91.15853658536587,43.47560975609756,267.8658536585366,10,4
238,0.3994140625,-1.9326171875,0.36181640625,102.6219512195122,39.93902439024391,288.4146341463415,10,4
239,0.52197265625,-2.02587890625,0.3525390625,110.3658536585366,38.29268292682927,309.9390243902439,10,4
240,0.64501953125,-2.20849609375,0.3232421875,116.46341463414635,36.09756097560976,337.25609756097566,10,4
241,0.7744140625,-2.44677734375,0.26953125,124.32926829268294,38.90243902439025,369.0853658536586,10,4
242,0.96533203125,-2.734375,0.25830078125,134.51219512195124,42.25609756097561,403.0487804878049,10,4
243,1.220703125,-3.07958984375,0.2294921875,149.08536585365854,41.09756097560976,441.89024390243907,10,4
244,1.41748046875,-3.2890625,0.12548828125,174.08536585365854,43.29268292682927,481.3414634146342,10,4
245,1.89013671875,-3.734375,0.00732421875,211.15853658536588,47.804878048780495,522.5609756097562,10,4
246,2.25927734375,-3.9931640625,-0.01171875,258.2926829268293,58.71951219512196,556.829268292683,10,4
247,2.9931640625,-4.19189453125,-0.10546875,256.6463414634147,52.19512195121952,598.5365853658537,10,4
248,3.748046875,-4.3525390625,-0.6669921875,261.219512195122,60.00000000000001,631.5853658536586,10,4
249,4.255859375,-4.7197265625,-1.1123046875,259.0853658536586,63.53658536585366,640.9756097560976,10,4
250,4.80322265625,-5.21435546875,-1.267578125,275.6707317073171,99.63414634146342,667.1341463414635,10,4
251,5.03125,-5.8564453125,-1.3349609375,291.5853658536586,104.45121951219514,692.8048780487806,10,4
252,5.517578125,-6.0576171875,-1.50341796875,339.93902439024396,100.54878048780489,715.9146341463415,10,4
253,6.09228515625,-6.11181640625,-2.37109375,387.7439024390244,79.32926829268294,763.6585365853659,10,4
254,7.25537109375,-6.0947265625,-3.59814453125,445.609756097561,55.243902439024396,799.8780487804879,10,4
255,8.83349609375,-5.95166015625,-4.33544921875,501.6463414634147,51.768292682926834,807.2560975609757,10,4
256,10.1201171875,-5.048828125,-4.54443359375,549.0853658536586,56.40243902439025,814.8170731707318,10,4
257,10.6728515625,-4.244140625,-5.154296875,594.7560975609757,61.03658536585366,835.1219512195123,10,4
258,10.67138671875,-3.2919921875,-5.9130859375,617.8658536585366,16.219512195121954,841.9512195121952,10,4
259,10.9287109375,-2.48974609375,-6.30078125,636.1585365853659,-59.93902439024391,823.9024390243903,10,4
260,10.31103515625,-2.08203125,-6.435546875,717.1341463414635,-140.91463414634148,808.9634146341464,10,4
261,9.86279296875,-2.55615234375,-6.1416015625,820.4878048780489,-271.95121951219517,747.9878048780488,10,4
262,8.85546875,-2.7529296875,-6.4345703125,1010.9756097560977,-461.82926829268297,662.9878048780488,10,4
263,7.78564453125,-2.7802734375,-1.0654296875,1508.719512195122,-577.5,952.6829268292684,10,4
264,-10.01025390625,-16.0,-16.0,437.86585365853665,-1193.4756097560976,324.93902439024396,10,4
265,14.12451171875,6.12451171875,-2.01416015625,-1608.9634146341464,812.8658536585367,489.0853658536586,10,4
266,2.72509765625,4.12841796875,3.4404296875,559.6341463414634,-157.43902439024393,34.08536585365854,10,4
267,-0.76513671875,-10.8779296875,0.32470703125,1997.5609756097563,-379.51219512195127,93.84146341463415,10,4
268,10.31005859375,4.7275390625,-4.78369140625,905.7926829268293,-255.5487804878049,-160.609756097561,10,4
269,4.572265625,-2.3046875,-4.6865234375,956.4634146341464,-124.87804878048782,-200.6707317073171,10,4
270,2.8671875,2.61669921875,0.33740234375,930.4878048780489,-36.463414634146346,-190.1219512195122,10,4
271,5.63720703125,-0.42529296875,-0.17529296875,950.3658536585367,-87.92682926829269,-296.5853658536586,10,4
272,3.6806640625,-2.8134765625,-2.94677734375,833.1707317073171,-150.4878048780488,-412.31707317073176,10,4
273,2.404296875,-1.4072265625,-2.92724609375,703.719512195122,-111.09756097560977,-494.93902439024396,10,4
274,2.333984375,-0.74951171875,-2.52099609375,615.0609756097562,-66.03658536585367,-506.0975609756098,10,4
275,1.55029296875,-1.47021484375,-2.54443359375,591.1585365853659,-56.21951219512196,-552.1341463414634,10,4
276,1.490234375,-1.525390625,-1.79443359375,506.76829268292687,-27.439024390243905,-583.4756097560976,10,4
277,1.2705078125,-1.48046875,-1.1513671875,453.2926829268293,35.609756097560975,-605.8536585365854,10,4
278,1.79150390625,-1.60693359375,-0.798828125,394.0243902439025,65.1829268292683,-624.8780487804879,10,4
279,2.66455078125,-1.00048828125,-0.56689453125,322.6219512195122,81.70731707317074,-678.6585365853659,10,4
280,2.849609375,-1.45703125,-0.7080078125,271.0365853658537,83.35365853658537,-699.4512195121952,10,4
281,2.583984375,-1.6728515625,-0.70556640625,224.93902439024393,90.73170731707317,-715.8536585365854,10,4
282,2.9248046875,-1.232421875,-1.0,164.02439024390245,117.31707317073172,-710.3658536585366,10,4
283,2.75146484375,-1.017578125,-1.08740234375,77.13414634146342,155.97560975609758,-689.5121951219513,10,4
284,2.71826171875,-1.23388671875,-1.0771484375,-5.182926829268293,197.7439024390244,-668.1707317073171,10,4
285,2.18310546875,-1.44287109375,-0.521484375,-76.52439024390245,238.35365853658539,-640.548780487805,10,4
286,1.74951171875,-1.4892578125,-0.36328125,-115.67073170731709,280.8536585365854,-623.7804878048781,10,4
287,1.4921875,-1.42724609375,-0.20849609375,-140.7926829268293,306.0365853658537,-583.2317073170732,10,4
288,1.32763671875,-1.25341796875,-0.59619140625,-184.51219512195124,320.8536585365854,-559.8170731707318,10,4
289,1.380859375,-1.03466796875,-0.814453125,-190.91463414634148,319.51219512195127,-539.0243902439025,10,4
290,1.50244140625,-0.7939453125,-0.8466796875,-192.8658536585366,324.1463414634147,-516.4634146341464,10,4
291,1.333984375,-0.7880859375,-0.861328125,-196.95121951219514,339.57317073170736,-496.5853658536586,10,4
292,1.32080078125,-0.95703125,-0.75439453125,-203.41463414634148,346.0365853658537,-479.81707317073176,10,4
293,1.091796875,-0.79931640625,-0.861328125,-198.35365853658539,344.87804878048786,-457.80487804878055,10,4
294,1.03662109375,-0.62841796875,-1.044921875,-192.9878048780488,347.13414634146346,-428.4146341463415,10,4
295,1.04248046875,-0.63330078125,-1.17578125,-188.1707317073171,349.0853658536586,-402.43902439024396,10,4
296,0.8330078125,-0.88916015625,-1.28369140625,-173.65853658536588,346.1585365853659,-372.01219512195127,10,4
297,0.73681640625,-0.93359375,-1.220703125,-182.01219512195124,333.5975609756098,-348.7804878048781,10,4
298,0.53662109375,-0.8046875,-1.26318359375,-171.76829268292684,319.20731707317077,-320.6707317073171,10,4
299,0.513671875,-0.53173828125,-1.40869140625,-188.47560975609758,304.32926829268297,-298.5975609756098,10,4
300,0.431640625,-0.45703125,-1.32421875,-195.7926829268293,281.219512195122,-275.6707317073171,10,4
301,0.126953125,-0.3486328125,-1.033203125,-217.8658536585366,267.07317073170736,-255.7317073170732,10,4
302,-0.169921875,-0.3564453125,-0.88232421875,-226.03658536585368,262.9878048780488,-238.90243902439028,10,4
303,-0.361328125,-0.328125,-0.77734375,-246.03658536585368,262.3170731707317,-223.90243902439028,10,4
304,-0.43017578125,-0.296875,-0.6259765625,-255.97560975609758,258.1707317073171,-211.46341463414635,10,4
305,-0.49267578125,-0.1005859375,-0.83251953125,-258.5975609756098,250.609756097561,-218.2317073170732,10,4
306,-0.15283203125,-0.0185546875,-0.81884765625,-257.7439024390244,238.47560975609758,-195.609756097561,10,4
307,-0.06201171875,0.0048828125,-0.73876953125,-258.719512195122,223.1707317073171,-202.6829268292683,10,4
308,-0.0810546875,-0.0458984375,-0.73193359375,-261.5243902439025,208.53658536585368,-186.70731707317074,10,4
309,-0.322265625,-0.20361328125,-0.85107421875,-280.5487804878049,190.1829268292683,-156.28048780487805,10,4
310,-0.3779296875,-0.26806640625,-0.73779296875,-248.53658536585368,175.7317073170732,-142.9268292682927,10,4
311,-0.732421875,-0.33349609375,-0.607421875,-239.39024390243904,165.609756097561,-134.9390243902439,10,4
312,-0.76123046875,-0.32275390625,-0.55615234375,-234.32926829268294,159.51219512195124,-132.6829268292683,10,4
313,-0.8134765625,-0.1865234375,-0.60498046875,-224.75609756097563,171.34146341463415,-130.97560975609758,10,4
314,-0.658203125,-0.05908203125,-0.63720703125,-215.3048780487805,149.14634146341464,-129.26829268292684,10,4
315,-0.61181640625,-0.02783203125,-0.72998046875,-208.41463414634148,139.39024390243904,-121.09756097560977,10,4
316,-0.646484375,-0.123046875,-0.7841796875,-200.12195121951223,130.91463414634148,-107.56097560975611,10,4
317,-0.85302734375,-0.2880859375,-0.732421875,-196.15853658536588,139.87804878048783,-90.97560975609757,10,4
318,-1.0732421875,-0.47802734375,-0.681640625,-187.43902439024393,111.76829268292684,-93.17073170731707,10,4
319,-1.30126953125,-0.6044921875,-0.59033203125,-175.97560975609758,111.15853658536587,-71.76829268292684,10,4
320,-1.2509765625,-0.501953125,-0.53466796875,-169.32926829268294,110.97560975609757,-66.21951219512195,10,4
321,-1.134765625,-0.34765625,-0.552734375,-160.609756097561,104.45121951219514,-57.560975609756106,10,4
322,-1.0556640625,-0.3720703125,-0.63818359375,-148.71951219512195,98.23170731707317,-52.25609756097561,10,4
323,-0.98046875,-0.22021484375,-0.74365234375,-138.47560975609758,109.20731707317074,-47.50000000000001,10,4
324,-0.96240234375,-0.224609375,-0.62744140625,-127.92682926829269,83.47560975609757,-42.25609756097561,10,4
325,-1.068359375,-0.24951171875,-0.736328125,-117.01219512195122,76.03658536585367,-35.243902439024396,10,4
326,-1.001953125,-0.30859375,-0.6591796875,-106.40243902439025,67.6829268292683,-28.780487804878053,10,4
327,-1.18359375,-0.3349609375,-0.63525390625,-97.6219512195122,58.04878048780488,-22.31707317073171,10,4
328,-1.21826171875,-0.36474609375,-0.6826171875,-89.45121951219512,49.32926829268293,-18.597560975609756,10,4
329,-1.20751953125,-0.349609375,-0.6591796875,-83.71951219512196,40.426829268292686,-15.79268292682927,10,4
330,-1.19873046875,-0.30126953125,-0.6748046875,-78.10975609756099,34.63414634146342,-11.585365853658537,10,4
331,-1.18408203125,-0.27197265625,-0.6240234375,-72.8048780487805,26.402439024390247,-5.487804878048781,10,4
332,-1.1845703125,-0.24365234375,-0.59716796875,-65.0,18.963414634146343,-15.243902439024392,10,4
333,-1.15478515625,-0.2255859375,-0.61962890625,-54.63414634146342,11.463414634146343,6.402439024390245,10,4
334,-1.16064453125,-0.21484375,-0.60595703125,-61.95121951219513,4.207317073170732,12.073170731707318,10,4
335,-1.154296875,-0.185546875,-0.5986328125,-38.41463414634147,-1.1585365853658538,17.682926829268293,10,4
336,-1.17626953125,-0.1689453125,-0.52783203125,-33.963414634146346,-6.402439024390245,21.82926829268293,10,4
337,-1.19287109375,-0.1806640625,-0.50830078125,-32.31707317073171,-12.560975609756099,25.60975609756098,10,4
338,-1.193359375,-0.212890625,-0.5068359375,-27.134146341463417,-19.451219512195124,28.292682926829272,10,4
339,-1.16748046875,-0.1875,-0.45849609375,-19.81707317073171,-27.134146341463417,30.54878048780488,10,4
340,-1.17626953125,-0.1552734375,-0.41748046875,-14.146341463414636,-33.35365853658537,33.23170731707317,10,4
341,-1.1923828125,-0.1240234375,-0.40869140625,-11.219512195121952,-38.29268292682927,34.390243902439025,10,4
342,-1.21044921875,-0.08544921875,-0.41552734375,-8.170731707317074,-44.024390243902445,34.69512195121951,10,4
343,-1.2060546875,-0.03662109375,-0.43115234375,-3.4756097560975614,-49.75609756097561,35.54878048780488,10,4
344,-1.17724609375,-0.0185546875,-0.43017578125,1.7682926829268295,-55.60975609756098,37.743902439024396,10,4
345,-1.18212890625,-0.02880859375,-0.37548828125,6.646341463414635,-61.21951219512196,39.75609756097561,10,4
346,-1.2080078125,-0.05517578125,-0.36328125,9.817073170731708,-66.15853658536587,41.58536585365854,10,4
347,-1.21337890625,-0.05224609375,-0.361328125,13.231707317073171,-70.85365853658537,42.86585365853659,10,4
348,-1.20751953125,-0.0458984375,-0.3564453125,16.28048780487805,-75.3658536585366,43.47560975609756,10,4
349,-1.18359375,-0.0263671875,-0.3369140625,19.573170731707318,-79.81707317073172,44.63414634146342,10,4
350,-1.17529296875,-0.01953125,-0.3115234375,22.743902439024392,-83.84146341463415,46.21951219512196,10,4
351,-1.18701171875,-0.0126953125,-0.25439453125,25.60975609756098,-86.95121951219512,47.37804878048781,10,4
352,-1.18798828125,0.0029296875,-0.2314453125,28.292682926829272,-90.97560975609757,47.86585365853659,10,4
353,-1.17041015625,0.03271484375,-0.2138671875,15.853658536585368,-95.00000000000001,48.78048780487805,10,4
354,-1.15478515625,0.06884765625,-0.22314453125,35.0609756097561,-99.26829268292684,49.75609756097561,10,4
355,-1.119140625,0.10107421875,-0.21044921875,39.024390243902445,-102.98780487804879,50.60975609756098,10,4
356,-1.10107421875,0.10986328125,-0.17919921875,42.25609756097561,-106.82926829268294,50.91463414634147,10,4
357,-1.08984375,0.12158203125,-0.16455078125,43.963414634146346,-110.54878048780489,50.1219512195122,10,4
358,-1.07177734375,0.150390625,-0.1533203125,45.1219512195122,-112.8658536585366,49.81707317073171,10,4
359,-1.05029296875,0.1591796875,-0.1357421875,45.487804878048784,-114.93902439024392,49.146341463414636,10,4
360,-1.01904296875,0.16552734375,-0.1181640625,46.40243902439025,-116.70731707317074,48.71951219512196,10,4
361,-1.01806640625,0.15185546875,-0.03564453125,47.743902439024396,-117.62195121951221,48.41463414634147,10,4
362,-1.009765625,0.1552734375,-0.12353515625,48.170731707317074,-118.96341463414635,48.04878048780488,10,4
363,-0.98681640625,0.18359375,0.02734375,49.085365853658544,-119.51219512195124,47.13414634146342,10,4
364,-0.95703125,0.2099609375,0.04541015625,50.36585365853659,-120.3658536585366,46.58536585365854,10,4
365,-0.927734375,0.24072265625,0.0478515625,53.53658536585366,-122.8048780487805,45.73170731707317,10,4
366,-0.919921875,0.2548828125,0.0595703125,56.28048780487806,-125.2439024390244,44.390243902439025,10,4
367,-0.90380859375,0.2509765625,0.08642578125,60.1219512195122,-128.59756097560978,43.53658536585366,10,4
368,-0.9111328125,0.24462890625,0.08984375,62.43902439024391,-129.63414634146343,41.707317073170735,10,4
369,-0.8955078125,0.22998046875,0.11474609375,63.23170731707317,-128.53658536585368,40.36585365853659,10,4
370,-0.91162109375,0.205078125,0.158203125,64.69512195121952,-129.02439024390245,40.487804878048784,10,4
371,-0.9072265625,0.1943359375,0.17822265625,67.01219512195122,-132.7439024390244,40.73170731707317,10,4
372,-0.89453125,0.19580078125,0.18017578125,68.84146341463415,-132.37804878048783,39.08536585365854,10,4
373,-0.84716796875,0.22265625,0.17431640625,68.78048780487805,-133.71951219512195,36.951219512195124,10,4
374,-0.8046875,0.25634765625,0.17626953125,68.90243902439025,-136.28048780487805,34.87804878048781,10,4
375,-0.76806640625,0.28271484375,0.18115234375,68.53658536585367,-138.47560975609758,32.43902439024391,10,4
376,-0.74951171875,0.28173828125,0.232421875,68.53658536585367,-139.9390243902439,30.30487804878049,10,4
377,-0.765625,0.26220703125,0.25927734375,68.04878048780489,-139.39024390243904,27.743902439024392,10,4
378,-0.75244140625,0.2451171875,0.29541015625,69.02439024390245,-138.109756097561,25.182926829268293,10,4
379,-0.74462890625,0.23974609375,0.31884765625,69.26829268292684,-137.8658536585366,23.78048780487805,10,4
380,-0.732421875,0.23583984375,0.318359375,70.54878048780489,-138.53658536585368,23.414634146341466,10,4
381,-0.71533203125,0.23291015625,0.326171875,73.17073170731707,-139.9390243902439,22.439024390243905,10,4
382,-0.70849609375,0.24462890625,0.30419921875,76.40243902439025,-142.9268292682927,22.682926829268293,10,4
383,-0.69482421875,0.23876953125,0.31005859375,78.78048780487805,-145.0,21.890243902439025,10,4
384,-0.68896484375,0.2353515625,0.30029296875,79.20731707317074,-145.6707317073171,21.097560975609756,10,4
385,-0.68017578125,0.24365234375,0.30908203125,78.90243902439025,-146.03658536585368,20.79268292682927,10,4
386,-0.67724609375,0.2783203125,0.34130859375,76.28048780487805,-145.0609756097561,20.30487804878049,10,4
387,-0.6552734375,0.30859375,0.36083984375,73.71951219512195,-143.41463414634148,20.853658536585368,10,4
388,-0.6484375,0.3037109375,0.40625,71.40243902439025,-141.76829268292684,21.402439024390247,10,4
389,-0.65087890625,0.302734375,0.4150390625,70.0,-139.75609756097563,21.219512195121954,10,4
390,-0.630859375,0.318359375,0.41162109375,71.64634146341464,-140.4878048780488,21.219512195121954,10,4
391,-0.61181640625,0.3359375,0.40087890625,75.91463414634147,-144.45121951219514,21.28048780487805,10,4
392,-0.60009765625,0.34228515625,0.38671875,81.34146341463415,-147.37804878048783,20.60975609756098,10,4
393,-0.59228515625,0.3427734375,0.39111328125,83.41463414634147,-150.4268292682927,20.30487804878049,10,4
394,-0.5771484375,0.384765625,0.390625,84.69512195121952,-154.08536585365854,20.365853658536587,10,4
395,-0.5654296875,0.40869140625,0.39599609375,84.81707317073172,-157.07317073170734,19.695121951219512,10,4
396,-0.5791015625,0.408203125,0.455078125,85.54878048780489,-158.47560975609758,19.695121951219512,10,4
397,-0.56201171875,0.435546875,0.515625,88.17073170731707,-157.07317073170734,18.414634146341466,10,4
398,-0.50244140625,0.46533203125,0.56982421875,83.53658536585367,-150.7926829268293,17.195121951219512,10,4
399,-0.46533203125,0.4697265625,0.5595703125,78.04878048780489,-145.0,18.170731707317074,10,4
400,-0.42529296875,0.486328125,0.55419921875,73.59756097560977,-141.46341463414635,19.451219512195124,10,4
401,-0.41845703125,0.482421875,0.5546875,73.47560975609757,-140.4268292682927,18.963414634146343,10,4
402,-0.41748046875,0.48095703125,0.56787109375,75.67073170731707,-140.85365853658539,18.170731707317074,10,4
403,-0.3994140625,0.48486328125,0.57958984375,80.0609756097561,-143.84146341463415,18.902439024390244,10,4
404,-0.39794921875,0.62353515625,0.576171875,86.09756097560977,-149.14634146341464,19.32926829268293,10,4
405,-0.3935546875,0.51708984375,0.54736328125,92.07317073170732,-154.02439024390245,18.414634146341466,10,4
406,-0.49853515625,0.53955078125,0.5283203125,94.51219512195122,-155.3658536585366,16.158536585365855,10,4
407,-0.35400390625,0.57568359375,0.5078125,89.26829268292684,-152.25609756097563,13.719512195121952,10,4
408,-0.3017578125,0.61181640625,0.51025390625,81.15853658536587,-147.37804878048783,12.74390243902439,10,4
409,-0.26611328125,0.7490234375,0.5712890625,70.54878048780489,-142.9878048780488,11.463414634146343,10,4
410,-0.37353515625,0.60498046875,0.64111328125,64.32926829268293,-142.25609756097563,12.500000000000002,10,4
411,-0.25927734375,0.5439453125,0.6708984375,61.28048780487806,-140.7317073170732,13.29268292682927,10,4
412,-0.26123046875,0.50732421875,0.6865234375,61.707317073170735,-141.82926829268294,14.573170731707318,10,4
413,-0.2626953125,0.5078125,0.69873046875,67.5,-145.91463414634148,16.82926829268293,10,4
414,-0.240234375,0.52880859375,0.69775390625,77.98780487804879,-151.52439024390245,18.719512195121954,10,4
415,-0.21484375,0.541015625,0.71044921875,88.10975609756099,-155.85365853658539,21.890243902439025,10,4
416,-0.23779296875,0.51123046875,0.7275390625,92.07317073170732,-157.9268292682927,26.646341463414636,10,4
417,-0.25,0.50634765625,0.720703125,90.97560975609757,-154.93902439024393,31.76829268292683,10,4
418,-0.20361328125,0.56103515625,0.69677734375,83.41463414634147,-147.7439024390244,33.90243902439025,10,4
419,-0.12158203125,0.603515625,0.689453125,71.28048780487805,-138.71951219512195,35.1829268292683,10,4
420,-0.0927734375,0.62451171875,0.86474609375,59.32926829268293,-126.82926829268294,41.82926829268293,10,4
421,-0.17724609375,0.52392578125,0.90478515625,42.926829268292686,-115.60975609756099,42.987804878048784,10,4
422,-0.0654296875,0.5380859375,0.97900390625,36.09756097560976,-124.57317073170732,43.84146341463415,10,4
423,-0.08203125,0.5400390625,0.98095703125,36.951219512195124,-106.82926829268294,46.768292682926834,10,4
424,-0.14599609375,0.54931640625,0.93310546875,44.451219512195124,-108.04878048780489,48.963414634146346,10,4
425,-0.15771484375,0.619140625,0.93408203125,51.951219512195124,-109.14634146341464,49.024390243902445,10,4
426,-0.236328125,0.72216796875,0.91552734375,59.81707317073171,-111.46341463414635,47.6829268292683,10,4
427,-0.0439453125,0.82080078125,0.8955078125,61.524390243902445,-113.10975609756099,47.86585365853659,10,4
428,-0.0283203125,0.84326171875,0.8623046875,64.39024390243902,-115.12195121951221,49.024390243902445,10,4
429,-0.0224609375,0.86767578125,0.8642578125,69.45121951219512,-119.20731707317074,50.73170731707317,10,4
430,-0.05615234375,0.85791015625,0.87060546875,76.09756097560977,-124.08536585365854,52.37804878048781,10,4
431,-0.0751953125,0.86767578125,0.8701171875,83.17073170731707,-128.96341463414635,52.19512195121952,10,4
432,-0.0732421875,0.89453125,0.89990234375,87.13414634146342,-130.91463414634148,51.15853658536586,10,4
433,-0.09228515625,0.931640625,0.90625,87.19512195121952,-130.1829268292683,48.90243902439025,10,4
434,-0.0791015625,1.005859375,0.92822265625,80.60975609756099,-123.35365853658537,45.426829268292686,10,4
435,-0.056640625,1.0693359375,0.93408203125,69.87804878048782,-114.32926829268294,41.34146341463415,10,4
436,-0.01416015625,1.12353515625,0.9541015625,58.29268292682927,-104.26829268292684,36.951219512195124,10,4
437,-0.01123046875,1.11376953125,0.97265625,62.13414634146342,-94.63414634146342,32.80487804878049,10,4
438,0.01171875,1.107421875,0.96728515625,36.768292682926834,-85.91463414634147,29.512195121951223,10,4
439,0.11572265625,1.060546875,0.92578125,30.182926829268297,-78.23170731707317,25.54878048780488,10,4
440,-0.04833984375,1.1142578125,0.91162109375,29.146341463414636,-75.48780487804879,26.34146341463415,10,4
441,-0.09619140625,0.91943359375,0.89013671875,33.47560975609756,-76.95121951219512,24.939024390243905,10,4
442,-0.1171875,0.90087890625,0.8134765625,45.00000000000001,-82.19512195121952,21.463414634146343,10,4
443,-0.09716796875,0.94482421875,0.8720703125,58.963414634146346,-90.42682926829269,18.10975609756098,10,4
444,-0.07861328125,0.9833984375,0.71142578125,70.1829268292683,-96.58536585365854,31.09756097560976,10,4
445,-0.05224609375,0.99853515625,0.6982421875,76.89024390243902,-98.96341463414635,15.30487804878049,10,4
446,-0.05908203125,0.9892578125,0.6787109375,72.37804878048782,-95.1219512195122,13.841463414634148,10,4
447,-0.029296875,0.99755859375,0.6357421875,59.39024390243903,-85.1219512195122,12.134146341463415,10,4
448,0.00732421875,1.01953125,0.638671875,44.87804878048781,-75.85365853658537,10.182926829268293,10,4
449,0.01806640625,0.87841796875,0.65283203125,28.475609756097562,-65.48780487804879,6.7682926829268295,10,4
450,0.041015625,1.0029296875,0.59130859375,7.317073170731708,-53.10975609756098,4.085365853658537,10,4
451,0.0380859375,0.95947265625,0.56494140625,-10.30487804878049,-39.69512195121951,2.439024390243903,10,4
452,0.01708984375,0.96337890625,0.54833984375,-19.512195121951223,-34.75609756097561,0.9756097560975611,10,4
453,-0.01611328125,0.91455078125,0.50927734375,-24.81707317073171,-35.0,3.7195121951219514,10,4
454,-0.14453125,0.72412109375,0.45703125,-22.926829268292686,-40.670731707317074,11.707317073170733,10,4
455,-0.19921875,0.6044921875,0.60546875,-14.695121951219514,-45.670731707317074,15.243902439024392,10,4
456,-0.19384765625,0.56396484375,0.431640625,-0.7317073170731708,-57.07317073170732,17.98780487804878,10,4
457,-0.16650390625,0.57568359375,0.43701171875,12.987804878048781,-68.41463414634147,22.073170731707318,10,4
458,-0.14208984375,0.505859375,0.38623046875,22.80487804878049,-80.48780487804879,33.29268292682927,10,4
459,-0.19091796875,0.37744140625,0.3427734375,16.097560975609756,-78.71951219512196,42.6219512195122,10,4
460,-0.1982421875,0.31640625,0.25244140625,41.21951219512196,-103.17073170731709,49.207317073170735,10,4
461,-0.18359375,0.25,0.1728515625,42.31707317073171,-107.25609756097562,55.67073170731708,10,4
462,-0.154296875,0.251953125,0.1181640625,43.59756097560976,-112.01219512195122,63.29268292682927,10,4
463,-0.07861328125,0.2255859375,0.09033203125,40.97560975609756,-112.50000000000001,71.15853658536587,10,4
464,-0.04638671875,0.1650390625,0.04296875,28.719512195121954,-107.6829268292683,83.17073170731707,10,4
465,-0.05859375,0.076171875,0.05859375,4.573170731707317,-94.39024390243904,95.97560975609757,10,4
466,-0.04638671875,0.03369140625,0.0263671875,-28.10975609756098,-93.29268292682927,94.32926829268294,10,4
467,-0.01220703125,-0.03173828125,0.01220703125,-62.19512195121952,-77.19512195121952,110.3658536585366,10,4
468,-0.05615234375,-0.17919921875,-0.0107421875,-85.54878048780489,-55.97560975609757,125.60975609756099,10,4
469,-0.0693359375,-0.2763671875,-0.013671875,-88.96341463414635,-56.951219512195124,151.03658536585368,10,4
470,-0.0341796875,-0.35595703125,0.06201171875,-92.8048780487805,-70.3658536585366,155.7926829268293,10,4
471,0.07958984375,-0.357421875,0.12255859375,-48.71951219512196,-90.2439024390244,160.85365853658539,10,4
472,0.142578125,-0.208984375,0.19921875,-20.0609756097561,-107.8658536585366,164.39024390243904,10,4
473,0.5498046875,-0.009765625,0.18896484375,-9.51219512195122,-117.43902439024392,169.81707317073173,10,4
474,0.7431640625,0.06787109375,0.12451171875,-24.939024390243905,-109.51219512195122,179.45121951219514,10,4
475,0.8603515625,0.1494140625,0.08154296875,-59.87804878048781,-88.35365853658537,190.1829268292683,10,4
476,1.0234375,0.1884765625,0.08837890625,-100.85365853658537,-65.85365853658537,194.93902439024393,10,4
477,1.00732421875,0.07958984375,0.14306640625,-133.90243902439025,-52.6829268292683,198.78048780487808,10,4
478,0.7939453125,-0.1875,0.12353515625,-140.7926829268293,-44.390243902439025,205.5487804878049,10,4
479,0.55419921875,-0.40625,0.12744140625,-167.07317073170734,-40.304878048780495,207.7439024390244,10,4
480,0.4990234375,-0.37744140625,0.146484375,-167.07317073170734,-44.51219512195122,207.56097560975613,10,4
481,0.498046875,-0.54052734375,0.15576171875,-160.3048780487805,-50.54878048780488,204.93902439024393,10,4
482,0.583984375,-0.40673828125,0.19775390625,-144.69512195121953,-59.085365853658544,201.64634146341464,10,4
483,0.72314453125,-0.234375,0.20263671875,-128.96341463414635,-72.37804878048782,197.62195121951223,10,4
484,0.828125,0.16796875,0.185546875,-120.2439024390244,-85.73170731707317,200.2439024390244,10,4
485,0.8193359375,0.19677734375,0.19970703125,-115.67073170731709,-93.10975609756099,210.3048780487805,10,4
486,0.740234375,0.09765625,0.1259765625,-113.59756097560977,-98.10975609756099,225.00000000000003,10,4
487,0.66650390625,-0.12646484375,0.3154296875,-107.50000000000001,-99.63414634146342,242.13414634146343,10,4
488,0.70263671875,-0.42041015625,0.5048828125,-95.00000000000001,-98.84146341463415,257.3170731707317,10,4
489,0.81591796875,-0.6728515625,0.697265625,-93.10975609756099,-96.40243902439025,265.9756097560976,10,4
490,1.0185546875,-0.7802734375,0.78662109375,-57.6829268292683,-93.96341463414635,267.07317073170736,10,4
491,1.24169921875,-0.81787109375,0.80908203125,-34.81707317073171,-95.48780487804879,280.9146341463415,10,4
492,1.390625,-0.76953125,0.7607421875,-9.573170731707318,-100.42682926829269,263.4756097560976,10,4
493,1.4375,-0.65966796875,0.67529296875,11.585365853658537,-104.57317073170732,261.0365853658537,10,4
494,1.40771484375,-0.6240234375,0.62939453125,26.951219512195124,-105.79268292682927,257.6829268292683,10,4
495,1.34912109375,-0.392578125,0.64892578125,36.58536585365854,-106.34146341463416,255.24390243902442,10,4
496,1.28564453125,-0.36767578125,0.63818359375,42.804878048780495,-107.01219512195122,255.24390243902442,10,4
497,1.37451171875,-0.365234375,0.671875,49.085365853658544,-107.07317073170732,255.7926829268293,10,4
498,1.23583984375,-0.2529296875,0.69970703125,54.451219512195124,-105.48780487804879,254.93902439024393,10,4
499,1.21240234375,-0.39453125,0.69921875,57.07317073170732,-103.10975609756099,252.25609756097563,10,4
