,Ax,Ay,Az,Gx,Gy,Gz,distance,shot_type
0,0.70849609375,-0.537109375,-0.33984375,-23.59756097560976,14.756097560975611,8.902439024390244,30,4
1,0.748046875,-0.5263671875,-0.322265625,-26.402439024390247,17.439024390243905,10.0,30,4
2,0.71875,-0.55078125,-0.294921875,-28.963414634146343,18.84146341463415,9.939024390243903,30,4
3,0.7021484375,-0.55078125,-0.30419921875,-28.475609756097562,17.5,10.0,30,4
4,0.6943359375,-0.54296875,-0.34033203125,-24.207317073170735,13.475609756097562,10.182926829268293,30,4
5,0.708984375,-0.53125,-0.32080078125,-18.10975609756098,11.158536585365855,9.390243902439025,30,4
6,0.685546875,-0.546875,-0.28369140625,-14.329268292682928,9.817073170731708,7.682926829268293,30,4
7,0.6640625,-0.51904296875,-0.23388671875,-12.500000000000002,9.085365853658537,7.378048780487806,30,4
8,0.6513671875,-0.49169921875,-0.21826171875,-11.463414634146343,9.329268292682928,7.682926829268293,30,4
9,0.6669921875,-0.44921875,-0.20751953125,-11.219512195121952,11.76829268292683,7.439024390243903,30,4
10,0.67333984375,-0.43359375,-0.1904296875,-14.085365853658537,14.878048780487806,7.987804878048781,30,4
11,0.6552734375,-0.439453125,-0.1943359375,-17.073170731707318,17.378048780487806,9.146341463414634,30,4
12,0.63916015625,-0.45751953125,-0.22509765625,-16.890243902439025,17.926829268292686,10.548780487804878,30,4
13,0.62890625,-0.51513671875,-0.22509765625,-15.487804878048783,17.865853658536587,11.219512195121952,30,4
14,0.6376953125,-0.51806640625,-0.25048828125,-14.207317073170733,17.682926829268293,10.24390243902439,30,4
15,0.6318359375,-0.51806640625,-0.26806640625,-13.29268292682927,17.743902439024392,9.085365853658537,30,4
16,0.6142578125,-0.509765625,-0.2626953125,-10.487804878048781,16.03658536585366,8.109756097560977,30,4
17,0.59716796875,-0.529296875,-0.2470703125,-8.109756097560977,15.609756097560977,7.195121951219513,30,4
18,0.59716796875,-0.5380859375,-0.265625,-6.341463414634147,13.719512195121952,5.548780487804878,30,4
19,0.50341796875,-0.49462890625,-0.255859375,-3.963414634146342,11.707317073170733,3.658536585365854,30,4
20,0.63818359375,-0.46923828125,-0.2607421875,-2.5,10.731707317073171,1.524390243902439,30,4
21,0.65283203125,-0.46142578125,-0.263671875,-5.2439024390243905,11.28048780487805,0.3658536585365854,30,4
22,0.673828125,-0.4267578125,-0.27685546875,-9.817073170731708,14.390243902439027,0.426829268292683,30,4
23,0.68310546875,-0.4169921875,-0.2578125,-14.695121951219514,17.195121951219512,0.426829268292683,30,4
24,0.68212890625,-0.416015625,-0.259765625,-16.890243902439025,17.621951219512198,0.48780487804878053,30,4
25,0.67138671875,-0.4404296875,-0.24462890625,-14.756097560975611,15.243902439024392,0.1829268292682927,30,4
26,0.697265625,-0.4453125,-0.26171875,-9.573170731707318,11.890243902439025,-0.426829268292683,30,4
27,0.68896484375,-0.47216796875,-0.2568359375,-2.25609756097561,7.621951219512196,-1.0365853658536586,30,4
28,0.68310546875,-0.47509765625,-0.26318359375,3.963414634146342,5.0,-1.6463414634146343,30,4
29,0.7265625,-0.44775390625,-0.2744140625,5.670731707317073,5.3048780487804885,-2.3170731707317076,30,4
30,0.759765625,-0.3994140625,-0.27880859375,5.121951219512195,6.2804878048780495,-1.829268292682927,30,4
31,0.76416015625,-0.39013671875,-0.2802734375,5.182926829268293,6.097560975609756,-1.0365853658536586,30,4
32,0.74072265625,-0.41357421875,-0.2861328125,3.5975609756097566,5.914634146341464,-1.0365853658536586,30,4
33,0.75,-0.40673828125,-0.27392578125,3.8414634146341466,6.463414634146342,-1.1585365853658538,30,4
34,0.759765625,-0.4052734375,-0.2783203125,4.817073170731708,5.426829268292684,-1.707317073170732,30,4
35,0.73828125,-0.427734375,-0.26416015625,7.195121951219513,4.2682926829268295,-1.5853658536585367,30,4
36,0.72412109375,-0.462890625,-0.24658203125,8.658536585365855,3.8414634146341466,-2.3170731707317076,30,4
37,0.724609375,-0.45751953125,-0.2626953125,8.475609756097562,4.329268292682928,-2.682926829268293,30,4
38,0.71923828125,-0.45751953125,-0.2802734375,7.439024390243903,5.975609756097562,-2.5,30,4
39,0.72021484375,-0.46044921875,-0.26025390625,5.3048780487804885,8.475609756097562,-2.3170731707317076,30,4
40,0.7314453125,-0.4697265625,-0.24462890625,3.048780487804878,10.548780487804878,-2.5,30,4
41,0.71142578125,-0.46337890625,-0.25537109375,1.707317073170732,11.646341463414634,-2.8658536585365857,30,4
42,0.693359375,-0.46533203125,-0.25,1.0975609756097562,12.926829268292684,-2.378048780487805,30,4
43,0.68505859375,-0.49365234375,-0.2392578125,15.54878048780488,13.78048780487805,-2.439024390243903,30,4
44,0.6787109375,-0.486328125,-0.36474609375,-0.48780487804878053,14.207317073170733,-1.8902439024390245,30,4
45,0.67333984375,-0.4951171875,-0.24169921875,-1.1585365853658538,14.51219512195122,-0.9756097560975611,30,4
46,0.6650390625,-0.51171875,-0.23046875,-0.48780487804878053,14.02439024390244,-15.609756097560977,30,4
47,0.64794921875,-0.54052734375,-0.23681640625,0.24390243902439027,13.963414634146343,0.6097560975609757,30,4
48,0.65234375,-0.55419921875,-0.12744140625,-0.48780487804878053,14.573170731707318,1.8902439024390245,30,4
49,0.65869140625,-0.54248046875,-0.26025390625,-1.3414634146341464,14.817073170731708,3.048780487804878,30,4
50,0.67822265625,-0.53125,-0.26513671875,-1.6463414634146343,15.000000000000002,3.4756097560975614,30,4
51,0.67236328125,-0.5087890625,-0.2763671875,-2.6219512195121952,14.939024390243905,3.7195121951219514,30,4
52,0.6806640625,-0.50048828125,-0.2783203125,-2.5609756097560976,14.573170731707318,3.658536585365854,30,4
53,0.67041015625,-0.51806640625,-0.13720703125,-2.682926829268293,13.78048780487805,3.2926829268292686,30,4
54,0.65869140625,-0.5068359375,-0.26220703125,-1.7682926829268295,12.865853658536587,2.6219512195121952,30,4
55,0.6708984375,-0.48046875,-0.26318359375,-1.0365853658536586,12.134146341463415,1.9512195121951221,30,4
56,0.68359375,-0.45703125,-0.240234375,0.426829268292683,11.585365853658537,2.25609756097561,30,4
57,0.6630859375,-0.490234375,-0.23095703125,1.402439024390244,10.914634146341465,2.5609756097560976,30,4
58,0.65771484375,-0.49072265625,-0.23291015625,2.073170731707317,11.097560975609756,2.9268292682926833,30,4
59,0.67919921875,-0.48291015625,-0.24951171875,2.0121951219512195,10.975609756097562,2.5,30,4
60,0.7021484375,-0.44140625,-0.2412109375,1.2195121951219514,11.890243902439025,3.048780487804878,30,4
61,0.7099609375,-0.427734375,-0.2451171875,0.48780487804878053,11.890243902439025,2.7439024390243905,30,4
62,0.71044921875,-0.42919921875,-0.12939453125,1.0975609756097562,11.890243902439025,2.6219512195121952,30,4
63,0.6953125,-0.44091796875,-0.37451171875,0.5487804878048781,12.80487804878049,3.1707317073170733,30,4
64,0.69482421875,-0.46435546875,-0.27587890625,-0.426829268292683,13.719512195121952,3.963414634146342,30,4
65,0.6826171875,-0.48583984375,-0.2724609375,-1.1585365853658538,13.841463414634148,4.207317073170732,30,4
66,0.67138671875,-0.4833984375,-0.26904296875,-0.9756097560975611,13.475609756097562,3.8414634146341466,30,4
67,0.67626953125,-0.474609375,-0.25048828125,-0.7926829268292683,13.414634146341465,3.231707317073171,30,4
68,0.67529296875,-0.48486328125,-0.216796875,-0.12195121951219513,12.560975609756099,3.353658536585366,30,4
69,0.64794921875,-0.53076171875,-0.23291015625,1.829268292682927,11.158536585365855,3.2926829268292686,30,4
70,0.654296875,-0.537109375,-0.24658203125,3.048780487804878,10.914634146341465,3.9024390243902443,30,4
71,0.6591796875,-0.54931640625,-0.23876953125,2.3170731707317076,11.707317073170733,4.024390243902439,30,4
72,0.671875,-0.52685546875,-0.21337890625,0.30487804878048785,13.04878048780488,4.695121951219512,30,4
73,0.669921875,-0.51416015625,-0.19580078125,-0.48780487804878053,13.841463414634148,4.207317073170732,30,4
74,0.6982421875,-0.47900390625,-0.18603515625,-1.1585365853658538,14.573170731707318,3.5975609756097566,30,4
75,0.69189453125,-0.47802734375,-0.18359375,-1.1585365853658538,14.756097560975611,2.987804878048781,30,4
76,0.70556640625,-0.47021484375,-0.18701171875,-0.3658536585365854,14.085365853658537,1.9512195121951221,30,4
77,0.7060546875,-0.4833984375,-0.19384765625,0.853658536585366,12.987804878048781,1.402439024390244,30,4
78,0.71044921875,-0.49755859375,-0.2041015625,1.5853658536585367,12.134146341463415,0.6707317073170732,30,4
79,0.69970703125,-0.501953125,-0.19091796875,2.8658536585365857,11.036585365853659,0.426829268292683,30,4
80,0.697265625,-0.4970703125,-0.169921875,3.231707317073171,10.548780487804878,0.7926829268292683,30,4
81,0.69580078125,-0.5009765625,-0.14990234375,4.51219512195122,9.02439024390244,0.9146341463414634,30,4
82,0.689453125,-0.51171875,-0.1611328125,6.036585365853659,8.719512195121952,0.426829268292683,30,4
83,0.69384765625,-0.49853515625,-0.16357421875,6.341463414634147,10.060975609756099,0.30487804878048785,30,4
84,0.69873046875,-0.5,-0.17724609375,5.731707317073171,11.707317073170733,1.1585365853658538,30,4
85,0.69482421875,-0.50341796875,-0.1953125,5.7926829268292686,12.926829268292684,1.524390243902439,30,4
86,0.6943359375,-0.529296875,-0.19482421875,5.182926829268293,14.817073170731708,2.25609756097561,30,4
87,0.70556640625,-0.5107421875,-0.1865234375,3.9024390243902443,16.890243902439025,2.25609756097561,30,4
88,0.70166015625,-0.50927734375,-0.18359375,3.7195121951219514,18.231707317073173,3.048780487804878,30,4
89,0.70751953125,-0.50927734375,-0.1650390625,2.5609756097560976,19.695121951219512,2.987804878048781,30,4
90,0.69921875,-0.51025390625,-0.166015625,1.1585365853658538,21.82926829268293,3.9024390243902443,30,4
91,0.701171875,-0.51416015625,-0.14892578125,-0.853658536585366,23.475609756097562,3.8414634146341466,30,4
92,0.6845703125,-0.5009765625,-0.13232421875,-0.7926829268292683,23.84146341463415,4.146341463414634,30,4
93,0.66748046875,-0.5107421875,-0.10107421875,0.9146341463414634,22.98780487804878,4.51219512195122,30,4
94,0.6796875,-0.5205078125,-0.10009765625,3.2926829268292686,22.439024390243905,4.817073170731708,30,4
95,0.6943359375,-0.5078125,-0.10302734375,4.390243902439025,22.012195121951223,4.390243902439025,30,4
96,0.7119140625,-0.498046875,-0.12890625,4.817073170731708,22.195121951219512,4.573170731707317,30,4
97,0.7021484375,-0.50341796875,-0.12890625,5.609756097560976,22.865853658536587,4.329268292682928,30,4
98,0.7197265625,-0.50732421875,-0.1376953125,5.914634146341464,24.878048780487806,3.780487804878049,30,4
99,0.7158203125,-0.50537109375,-0.1201171875,4.207317073170732,28.292682926829272,3.4756097560975614,30,4
100,0.72314453125,-0.49609375,-0.107421875,0.5487804878048781,32.86585365853659,4.2682926829268295,30,4
101,0.69140625,-0.62451171875,-0.115234375,-3.9024390243902443,35.243902439024396,5.182926829268293,30,4
102,0.6943359375,-0.6181640625,-0.10986328125,-6.402439024390245,37.43902439024391,5.731707317073171,30,4
103,0.677734375,-0.48681640625,-0.10791015625,-8.475609756097562,40.1829268292683,7.01219512195122,30,4
104,0.65673828125,-0.52685546875,-0.0673828125,-11.036585365853659,43.170731707317074,8.353658536585366,30,4
105,0.63818359375,-0.552734375,-0.03369140625,-15.121951219512196,44.390243902439025,10.426829268292684,30,4
106,0.5078125,-0.53369140625,-0.0830078125,-19.512195121951223,45.304878048780495,11.52439024390244,30,4
107,0.6298828125,-0.37744140625,-0.0751953125,-19.085365853658537,47.13414634146342,15.365853658536587,30,4
108,0.63818359375,-0.5205078125,-0.11767578125,-16.76829268292683,43.29268292682927,15.609756097560977,30,4
109,0.70458984375,-0.43115234375,-0.1357421875,-12.01219512195122,42.13414634146342,16.52439024390244,30,4
110,0.720703125,-0.4296875,-0.1396484375,-0.6097560975609757,44.024390243902445,18.231707317073173,30,4
111,0.71533203125,-0.443359375,-0.26953125,-24.02439024390244,47.987804878048784,15.182926829268293,30,4
112,0.75146484375,-0.3046875,-0.29931640625,-15.914634146341465,55.1219512195122,13.231707317073171,30,4
113,0.794921875,-0.283203125,-0.2744140625,-40.1829268292683,59.75609756097562,14.329268292682928,30,4
114,0.76220703125,-0.3583984375,-0.33154296875,-52.86585365853659,65.1829268292683,16.097560975609756,30,4
115,0.72314453125,-0.38671875,-0.3671875,-65.1829268292683,74.75609756097562,14.695121951219514,30,4
116,0.74755859375,-0.31494140625,-0.30712890625,-71.34146341463415,75.97560975609757,15.30487804878049,30,4
117,0.728515625,-0.33154296875,-0.259765625,-70.0,75.91463414634147,18.170731707317074,30,4
118,0.72998046875,-0.34716796875,-0.2353515625,-73.41463414634147,74.02439024390245,18.353658536585368,30,4
119,0.6962890625,-0.35888671875,-0.23486328125,-74.20731707317074,69.14634146341464,18.353658536585368,30,4
120,0.6787109375,-0.30224609375,-0.318359375,-66.82926829268293,58.71951219512196,16.28048780487805,30,4
121,0.73583984375,-0.22265625,-0.34326171875,-62.50000000000001,52.50000000000001,11.646341463414634,30,4
122,0.77880859375,-0.18115234375,-0.32861328125,-63.29268292682927,50.1829268292683,7.8048780487804885,30,4
123,0.771484375,-0.216796875,-0.3369140625,-65.3658536585366,48.04878048780488,4.939024390243903,30,4
124,0.7353515625,-0.25634765625,-0.27734375,-65.73170731707317,47.13414634146342,1.0365853658536586,30,4
125,0.73095703125,-0.23876953125,-0.28173828125,-66.09756097560977,44.268292682926834,-3.5975609756097566,30,4
126,0.740234375,-0.21484375,-0.34228515625,-67.01219512195122,39.75609756097561,-6.219512195121951,30,4
127,0.705078125,-0.2177734375,-0.34423828125,-65.85365853658537,35.97560975609756,-8.292682926829269,30,4
128,0.701171875,-0.20703125,-0.3515625,-65.91463414634147,32.25609756097561,-11.219512195121952,30,4
129,0.75048828125,-0.11376953125,-0.3701171875,-65.67073170731707,30.0609756097561,-13.658536585365855,30,4
130,0.74951171875,-0.0927734375,-0.400390625,-71.46341463414635,30.426829268292686,-16.03658536585366,30,4
131,0.76171875,-0.0791015625,-0.431640625,-63.10975609756098,32.01219512195122,-18.963414634146343,30,4
132,0.75537109375,-0.099609375,-0.41015625,-83.65853658536587,32.86585365853659,-21.585365853658537,30,4
133,0.7734375,-0.09326171875,-0.404296875,-87.6829268292683,33.41463414634146,-24.02439024390244,30,4
134,0.77685546875,-0.10986328125,-0.4287109375,-90.85365853658537,31.58536585365854,-25.48780487804878,30,4
135,0.767578125,-0.1220703125,-0.44287109375,-78.23170731707317,31.463414634146343,-27.80487804878049,30,4
136,0.7578125,-0.00048828125,-0.41357421875,-97.92682926829269,31.463414634146343,-30.0609756097561,30,4
137,0.87451171875,-0.1259765625,-0.40380859375,-100.91463414634147,30.121951219512198,-32.13414634146342,30,4
138,0.73876953125,-0.1318359375,-0.3974609375,-103.65853658536587,28.59756097560976,-34.75609756097561,30,4
139,0.75732421875,-0.10546875,-0.392578125,-105.42682926829269,27.439024390243905,-38.35365853658537,30,4
140,0.7978515625,-0.07666015625,-0.3984375,-108.96341463414635,25.975609756097562,-41.82926829268293,30,4
141,0.80419921875,-0.0888671875,-0.43896484375,-114.63414634146342,26.09756097560976,-45.85365853658537,30,4
142,0.79833984375,-0.1123046875,-0.408203125,-121.09756097560977,27.378048780487806,-48.65853658536586,30,4
143,0.8193359375,-0.1181640625,-0.39208984375,-125.3048780487805,26.89024390243903,-51.03658536585366,30,4
144,0.8212890625,-0.13330078125,-0.25439453125,-127.25609756097562,26.219512195121954,-52.926829268292686,30,4
145,0.81982421875,-0.150390625,-0.38916015625,-128.41463414634148,25.670731707317074,-55.85365853658537,30,4
146,0.8427734375,-0.13134765625,-0.4033203125,-129.63414634146343,25.426829268292686,-60.365853658536594,30,4
147,0.85400390625,-0.00341796875,-0.375,-132.31707317073173,25.48780487804878,-62.13414634146342,30,4
148,0.83056640625,-0.15771484375,-0.37353515625,-134.14634146341464,22.865853658536587,-64.02439024390245,30,4
149,0.85595703125,-0.1328125,-0.39111328125,-135.97560975609758,22.865853658536587,-67.07317073170732,30,4
150,0.89990234375,-0.0908203125,-0.4296875,-136.15853658536585,21.890243902439025,-69.87804878048782,30,4
151,0.93798828125,-0.07373046875,-0.4462890625,-138.71951219512195,22.682926829268293,-72.92682926829269,30,4
152,0.97265625,-0.0615234375,-0.45263671875,-142.8048780487805,24.573170731707318,-75.85365853658537,30,4
153,0.98974609375,-0.07958984375,-0.4658203125,-146.40243902439025,26.646341463414636,-78.84146341463415,30,4
154,0.9794921875,-0.1064453125,-0.47314453125,-149.63414634146343,27.743902439024392,-81.70731707317074,30,4
155,0.98779296875,-0.11474609375,-0.43310546875,-151.58536585365854,29.81707317073171,-84.20731707317074,30,4
156,0.99658203125,-0.12158203125,-0.4345703125,-154.45121951219514,32.07317073170732,-86.40243902439025,30,4
157,0.98974609375,-0.1416015625,-0.4453125,-157.19512195121953,32.987804878048784,-86.70731707317074,30,4
158,0.9931640625,-0.13037109375,-0.4833984375,-160.4878048780488,33.109756097560975,-89.51219512195122,30,4
159,1.0146484375,-0.06591796875,-0.47705078125,-163.2317073170732,34.93902439024391,-94.63414634146342,30,4
160,1.0654296875,-0.02099609375,-0.5166015625,-165.3658536585366,32.6219512195122,-99.26829268292684,30,4
161,1.11279296875,0.06103515625,-0.58935546875,-165.00000000000003,28.59756097560976,-106.09756097560977,30,4
162,1.185546875,0.1962890625,-0.564453125,-171.28048780487805,30.0609756097561,-112.50000000000001,30,4
163,1.23193359375,0.18310546875,-0.56640625,-181.09756097560978,32.743902439024396,-117.6829268292683,30,4
164,1.24365234375,0.15185546875,-0.587890625,-187.01219512195124,34.51219512195122,-122.8658536585366,30,4
165,1.24267578125,0.12353515625,-0.60498046875,-190.609756097561,35.30487804878049,-128.71951219512195,30,4
166,1.2421875,0.11669921875,-0.541015625,-190.6707317073171,36.768292682926834,-132.6219512195122,30,4
167,1.2548828125,0.11865234375,-0.52978515625,-188.90243902439025,37.01219512195122,-136.03658536585368,30,4
168,1.27734375,0.1552734375,-0.54443359375,-187.8048780487805,36.15853658536586,-139.32926829268294,30,4
169,1.26318359375,0.1865234375,-0.576171875,-187.37804878048783,35.79268292682927,-144.9390243902439,30,4
170,1.29833984375,0.2490234375,-0.5908203125,-185.7317073170732,34.08536585365854,-150.0609756097561,30,4
171,1.3583984375,0.3154296875,-0.57666015625,-184.81707317073173,34.87804878048781,-157.01219512195124,30,4
172,1.44580078125,0.4208984375,-0.63134765625,-190.3658536585366,35.97560975609756,-163.65853658536588,30,4
173,1.498046875,0.40869140625,-0.64892578125,-194.75609756097563,34.81707317073171,-168.35365853658539,30,4
174,1.50634765625,0.31787109375,-0.6923828125,-193.59756097560978,35.0609756097561,-175.00000000000003,30,4
175,1.58056640625,0.349609375,-0.6328125,-192.6829268292683,38.71951219512196,-180.609756097561,30,4
176,1.67138671875,0.32666015625,-0.6123046875,-195.6707317073171,41.890243902439025,-185.4878048780488,30,4
177,1.7099609375,0.2978515625,-0.58154296875,-196.15853658536588,45.97560975609756,-190.6707317073171,30,4
178,1.62939453125,0.3310546875,-0.50537109375,-195.06097560975613,47.987804878048784,-196.52439024390245,30,4
179,1.7734375,0.29736328125,-0.458984375,-194.81707317073173,50.36585365853659,-201.03658536585368,30,4
180,1.76611328125,0.26171875,-0.45556640625,-195.2439024390244,53.23170731707317,-205.91463414634148,30,4
181,1.75390625,0.2470703125,-0.38427734375,-194.02439024390245,55.426829268292686,-210.3658536585366,30,4
182,1.7470703125,0.21337890625,-0.3583984375,-191.64634146341464,56.951219512195124,-215.4268292682927,30,4
183,1.76318359375,0.2119140625,-0.341796875,-188.78048780487808,57.25609756097561,-220.5487804878049,30,4
184,1.76806640625,0.22216796875,-0.37548828125,-183.90243902439025,58.29268292682927,-226.15853658536588,30,4
185,1.78076171875,0.236328125,-0.3388671875,-180.2439024390244,58.29268292682927,-229.63414634146343,30,4
186,1.77734375,0.2001953125,-0.33837890625,-176.15853658536588,57.804878048780495,-232.9268292682927,30,4
187,1.7490234375,0.203125,-0.32861328125,-171.82926829268294,58.963414634146346,-237.07317073170734,30,4
188,1.7578125,0.24560546875,-0.37451171875,-166.58536585365854,58.10975609756098,-238.2926829268293,30,4
189,1.734375,0.24658203125,-0.22705078125,-164.39024390243904,60.243902439024396,-239.26829268292684,30,4
190,1.7333984375,0.2734375,-0.22119140625,-162.7439024390244,63.17073170731708,-240.7926829268293,30,4
191,1.712890625,0.28955078125,-0.20556640625,-161.70731707317074,64.87804878048782,-241.70731707317074,30,4
192,1.68408203125,0.26904296875,-0.1962890625,-161.76829268292684,68.65853658536587,-241.76829268292684,30,4
193,1.654296875,0.2275390625,-0.1953125,-162.25609756097563,73.41463414634147,-242.37804878048783,30,4
194,1.61865234375,0.2236328125,-0.17919921875,-163.1707317073171,77.8658536585366,-242.68292682926833,30,4
195,1.54296875,0.189453125,-0.1337890625,-160.5487804878049,80.60975609756099,-243.65853658536588,30,4
196,1.5400390625,0.1728515625,-0.080078125,-153.35365853658539,80.67073170731707,-244.26829268292684,30,4
197,1.53515625,0.17138671875,-0.03466796875,-146.09756097560978,80.0609756097561,-243.53658536585368,30,4
198,1.61865234375,0.1083984375,-0.03759765625,-139.45121951219514,78.71951219512196,-241.64634146341464,30,4
199,1.404296875,0.06298828125,0.0546875,-130.2439024390244,77.01219512195122,-240.3658536585366,30,4
200,1.33447265625,0.0517578125,0.150390625,-120.3658536585366,75.73170731707317,-239.57317073170734,30,4
201,1.25830078125,0.0478515625,0.17138671875,-124.51219512195124,74.69512195121952,-240.06097560975613,30,4
202,1.2099609375,0.09814453125,0.15380859375,-99.69512195121952,71.21951219512195,-238.65853658536588,30,4
203,1.13134765625,0.10205078125,0.10400390625,-91.03658536585367,68.84146341463415,-236.58536585365854,30,4
204,1.0361328125,0.0673828125,0.0556640625,-83.96341463414635,67.8048780487805,-235.5487804878049,30,4
205,0.994140625,0.05859375,-0.12255859375,-76.70731707317074,67.31707317073172,-236.82926829268294,30,4
206,0.93310546875,0.0615234375,-0.072265625,-72.25609756097562,68.23170731707317,-240.4268292682927,30,4
207,0.88037109375,0.0634765625,-0.04638671875,-70.48780487804879,67.8658536585366,-238.2317073170732,30,4
208,0.81201171875,0.0244140625,-0.048828125,-65.97560975609757,66.28048780487805,-234.57317073170734,30,4
209,0.78955078125,0.009765625,0.00244140625,-61.524390243902445,65.48780487804879,-231.82926829268294,30,4
210,0.75390625,-0.02392578125,0.0224609375,-57.804878048780495,63.53658536585366,-227.50000000000003,30,4
211,0.697265625,-0.08349609375,0.06787109375,-55.0609756097561,63.71951219512196,-223.78048780487808,30,4
212,0.66015625,-0.16650390625,0.1328125,-51.40243902439025,63.71951219512196,-219.45121951219514,30,4
213,0.6123046875,-0.22314453125,0.177734375,-47.31707317073171,64.45121951219512,-215.5487804878049,30,4
214,0.53076171875,-0.1279296875,0.21630859375,-48.04878048780488,65.0609756097561,-209.32926829268294,30,4
215,0.42822265625,-0.31884765625,0.21728515625,-51.15853658536586,65.0609756097561,-204.20731707317074,30,4
216,0.3701171875,-0.41015625,0.1376953125,-52.37804878048781,63.41463414634147,-200.85365853658539,30,4
217,0.3662109375,-0.4658203125,0.10888671875,-47.19512195121952,58.35365853658537,-195.4268292682927,30,4
218,0.26806640625,-0.56689453125,0.12890625,-37.07317073170732,48.59756097560976,-185.85365853658539,30,4
219,0.15966796875,-0.68115234375,0.1298828125,-25.853658536585368,42.86585365853659,-174.87804878048783,30,4
220,0.1171875,-0.6826171875,0.1513671875,-16.585365853658537,38.71951219512196,-161.40243902439025,30,4
221,-0.05419921875,-0.77880859375,0.1923828125,-12.926829268292684,35.0609756097561,-145.5487804878049,30,4
222,-0.2275390625,-0.8115234375,0.20703125,-10.914634146341465,32.926829268292686,-130.97560975609758,30,4
223,-0.279296875,-0.78466796875,0.25341796875,-13.29268292682927,32.5,-117.8658536585366,30,4
224,-0.3388671875,-0.8330078125,0.220703125,-21.402439024390247,33.963414634146346,-102.8658536585366,30,4
225,-0.4775390625,-0.88037109375,0.14013671875,-26.82926829268293,33.84146341463415,-87.6219512195122,30,4
226,-0.45361328125,-1.1484375,0.16162109375,-25.0609756097561,34.57317073170732,-72.31707317073172,30,4
227,-0.5390625,-1.25244140625,0.126953125,-15.975609756097562,32.987804878048784,-56.15853658536586,30,4
228,-0.66552734375,-1.34228515625,0.4150390625,-2.6219512195121952,27.865853658536587,-37.743902439024396,30,4
229,-0.6748046875,-1.43212890625,0.4921875,11.402439024390246,24.146341463414636,-23.170731707317074,30,4
230,-0.61376953125,-1.48779296875,0.5166015625,23.414634146341466,18.719512195121954,-6.585365853658537,30,4
231,-0.5341796875,-1.58935546875,0.44091796875,31.03658536585366,15.975609756097562,13.658536585365855,30,4
232,-0.61767578125,-1.68359375,0.4599609375,35.79268292682927,18.10975609756098,36.28048780487805,30,4
233,-0.458984375,-1.80224609375,0.4697265625,40.36585365853659,21.28048780487805,62.19512195121952,30,4
234,-0.408203125,-1.96337890625,0.42138671875,45.73170731707317,25.792682926829272,86.89024390243904,30,4
235,-0.31201171875,-2.11376953125,0.3251953125,52.01219512195122,30.182926829268297,112.50000000000001,30,4
236,-0.2841796875,-2.14013671875,0.3388671875,62.19512195121952,30.365853658536587,137.31707317073173,30,4
237,-0.20751953125,-2.375,0.30322265625,74.51219512195122,29.26829268292683,160.0,30,4
238,-0.1015625,-2.490234375,0.25927734375,83.71951219512196,28.719512195121954,183.0487804878049,30,4
239,-0.123046875,-2.51611328125,0.1806640625,89.69512195121952,28.10975609756098,209.32926829268294,30,4
240,0.08251953125,-2.85595703125,0.02978515625,96.64634146341464,25.914634146341466,242.31707317073173,30,4
241,0.14111328125,-3.17041015625,-0.01025390625,104.14634146341464,25.48780487804878,279.9390243902439,30,4
242,0.19482421875,-3.4794921875,-0.08203125,109.02439024390245,22.25609756097561,320.9146341463415,30,4
243,0.25439453125,-3.83251953125,-0.17822265625,117.6829268292683,17.5609756097561,362.56097560975616,30,4
244,0.6982421875,-4.04248046875,-0.47900390625,123.53658536585367,7.500000000000001,404.81707317073176,30,4
245,1.1123046875,-4.55126953125,-0.8671875,125.00000000000001,-6.7682926829268295,450.9146341463415,30,4
246,1.591796875,-4.92822265625,-1.18896484375,175.0609756097561,-24.81707317073171,495.12195121951225,30,4
247,2.18310546875,-5.1953125,-1.49755859375,231.28048780487808,-42.987804878048784,516.829268292683,30,4
248,3.0712890625,-5.3330078125,-1.83251953125,267.6829268292683,-57.865853658536594,560.2439024390244,30,4
249,4.01123046875,-5.36474609375,-2.052734375,319.93902439024396,-60.243902439024396,586.219512195122,30,4
250,5.0146484375,-5.02099609375,-2.1015625,346.0975609756098,-57.926829268292686,618.5365853658537,30,4
251,5.97216796875,-4.9990234375,-2.25,397.8658536585366,-39.63414634146342,658.6585365853659,30,4
252,7.07275390625,-4.5908203125,-2.583984375,431.219512195122,-7.743902439024391,671.4634146341464,30,4
253,8.0302734375,-3.90673828125,-3.11181640625,456.82926829268297,22.926829268292686,727.3780487804879,30,4
254,8.5068359375,-3.5068359375,-3.873046875,481.2804878048781,54.69512195121952,755.609756097561,30,4
255,9.2421875,-2.9990234375,-4.51416015625,507.92682926829275,70.79268292682927,765.1219512195123,30,4
256,10.18994140625,-2.15625,-4.89453125,543.719512195122,114.63414634146342,801.3414634146342,30,4
257,10.939453125,-1.1015625,-5.05419921875,607.7439024390244,97.5609756097561,829.939024390244,30,4
258,10.55712890625,-0.71875,-5.39990234375,675.548780487805,36.58536585365854,883.4146341463415,30,4
259,10.67919921875,-0.12353515625,-6.1142578125,723.8414634146342,-34.63414634146342,887.5609756097562,30,4
260,10.14990234375,-0.06396484375,-7.08740234375,812.439024390244,-129.57317073170734,862.8048780487806,30,4
261,9.4189453125,-0.47607421875,-7.376953125,941.4024390243903,-241.76829268292684,829.329268292683,30,4
262,7.40625,-2.0126953125,-7.435546875,1117.6219512195123,-376.4634146341464,773.109756097561,30,4
263,5.39013671875,-3.93359375,-7.8359375,1312.0731707317075,-568.6585365853659,690.609756097561,30,4
264,5.20556640625,-4.15625,-9.10205078125,1489.1463414634147,-687.1341463414635,488.5975609756098,30,4
265,3.87939453125,1.96728515625,14.49072265625,1997.987804878049,-550.3658536585366,456.2804878048781,30,4
266,-4.71044921875,-15.2255859375,-16.0,311.76829268292687,478.5975609756098,-1810.7317073170734,30,4
267,15.99951171875,15.99951171875,-10.42041015625,1997.987804878049,-102.50000000000001,621.7682926829269,30,4
268,-16.0,-16.0,7.46240234375,1570.1219512195123,229.45121951219514,-336.3414634146342,30,4
269,8.205078125,3.98876953125,2.67333984375,1515.2439024390246,-500.12195121951225,-287.7439024390244,30,4
270,7.16259765625,-0.16357421875,-4.6689453125,959.0243902439025,-80.3048780487805,-522.8048780487806,30,4
271,5.50830078125,3.419921875,1.88232421875,755.1219512195123,141.64634146341464,-410.5487804878049,30,4
272,2.96875,-0.259765625,2.4931640625,1036.4634146341464,105.1219512195122,-392.25609756097566,30,4
273,4.6923828125,-3.658203125,0.939453125,769.2073170731708,19.32926829268293,-569.4512195121952,30,4
274,5.564453125,-1.8212890625,-0.4443359375,651.829268292683,32.25609756097561,-644.1463414634147,30,4
275,4.58447265625,-3.2236328125,-1.33837890625,602.5609756097562,72.43902439024392,-694.3902439024391,30,4
276,4.5,-3.5068359375,-1.33056640625,508.17073170731715,53.78048780487806,-736.219512195122,30,4
277,4.43603515625,-3.19580078125,-2.2412109375,431.2804878048781,32.43902439024391,-789.329268292683,30,4
278,4.3505859375,-2.96435546875,-2.70166015625,336.95121951219517,108.29268292682927,-809.8170731707318,30,4
279,4.3515625,-2.71533203125,-2.0556640625,232.07317073170734,170.2439024390244,-819.1463414634147,30,4
280,4.46630859375,-2.521484375,-1.4453125,122.6829268292683,257.19512195121956,-796.8902439024391,30,4
281,4.15771484375,-2.8037109375,-1.26318359375,45.97560975609756,324.81707317073176,-759.7560975609757,30,4
282,3.51708984375,-3.00537109375,-1.73291015625,-0.6097560975609757,352.8658536585366,-690.548780487805,30,4
283,2.92529296875,-3.017578125,-2.0126953125,-30.487804878048784,366.4024390243903,-649.8780487804879,30,4
284,2.54833984375,-2.79052734375,-1.90966796875,-41.646341463414636,353.0487804878049,-616.3414634146342,30,4
285,2.03857421875,-2.5009765625,-2.0908203125,-71.28048780487805,330.3658536585366,-607.7439024390244,30,4
286,2.05419921875,-2.02490234375,-1.98193359375,-106.40243902439025,335.5487804878049,-566.0365853658537,30,4
287,1.890625,-1.90576171875,-1.5517578125,-153.84146341463415,340.609756097561,-535.1219512195122,30,4
288,1.74853515625,-1.73583984375,-1.45556640625,-192.25609756097563,350.8536585365854,-505.7317073170732,30,4
289,1.30322265625,-1.50830078125,-1.376953125,-217.9268292682927,343.4146341463415,-476.5853658536586,30,4
290,0.9677734375,-1.4658203125,-1.35107421875,-233.71951219512198,372.01219512195127,-439.51219512195127,30,4
291,0.4765625,-1.49072265625,-1.119140625,-232.37804878048783,377.62195121951225,-420.8536585365854,30,4
292,0.2109375,-1.40185546875,-1.1728515625,-213.1707317073171,371.95121951219517,-388.719512195122,30,4
293,0.11767578125,-1.09619140625,-1.32421875,-193.47560975609758,368.5365853658537,-344.45121951219517,30,4
294,0.20166015625,-0.83154296875,-1.44580078125,-181.82926829268294,371.82926829268297,-321.0365853658537,30,4
295,0.3095703125,-0.7392578125,-1.4267578125,-177.07317073170734,366.1585365853659,-297.7439024390244,30,4
296,0.3955078125,-0.40966796875,-1.4921875,-171.34146341463415,350.609756097561,-275.3658536585366,30,4
297,0.4970703125,-0.3125,-1.6552734375,-173.109756097561,329.81707317073176,-262.3780487804878,30,4
298,0.5283203125,-0.16162109375,-1.7958984375,-186.89024390243904,314.0853658536586,-255.00000000000003,30,4
299,0.4951171875,-0.17822265625,-1.77099609375,-199.69512195121953,307.9878048780488,-247.07317073170734,30,4
300,0.4482421875,-0.236328125,-1.5595703125,-216.70731707317074,301.219512195122,-238.78048780487808,30,4
301,0.173828125,-0.265625,-1.47216796875,-226.82926829268294,285.2439024390244,-225.06097560975613,30,4
302,-0.04736328125,-0.416015625,-1.14013671875,-238.35365853658539,282.6219512195122,-222.62195121951223,30,4
303,-0.21240234375,-0.404296875,-0.93994140625,-238.41463414634148,274.57317073170736,-219.75609756097563,30,4
304,-0.18310546875,-0.17333984375,-0.744140625,-239.08536585365854,253.1707317073171,-233.84146341463418,30,4
305,-0.11376953125,-0.1103515625,-0.80078125,-232.9878048780488,229.81707317073173,-215.4878048780488,30,4
306,-0.1171875,0.04248046875,-0.90673828125,-228.59756097560978,213.71951219512198,-212.62195121951223,30,4
307,-0.08984375,0.078125,-0.88232421875,-220.12195121951223,192.7439024390244,-204.32926829268294,30,4
308,-0.166015625,-0.1064453125,-1.00732421875,-213.2926829268293,179.02439024390245,-194.08536585365854,30,4
309,-0.26806640625,-0.291015625,-0.958984375,-209.32926829268294,169.02439024390245,-186.46341463414635,30,4
310,-0.52880859375,-0.3447265625,-0.75537109375,-208.47560975609758,165.91463414634148,-178.1707317073171,30,4
311,-0.62744140625,-0.27734375,-0.6220703125,-203.109756097561,159.14634146341464,-167.9268292682927,30,4
312,-0.76708984375,-0.3310546875,-0.490234375,-196.28048780487808,138.71951219512195,-157.9268292682927,30,4
313,-0.72412109375,-0.36328125,-0.58056640625,-191.76829268292684,134.45121951219514,-152.25609756097563,30,4
314,-0.6689453125,-0.14208984375,-0.68017578125,-195.3658536585366,127.62195121951221,-143.41463414634148,30,4
315,-0.7099609375,-0.15673828125,-0.869140625,-195.7317073170732,122.19512195121952,-130.5487804878049,30,4
316,-0.82763671875,-0.2412109375,-0.8916015625,-184.87804878048783,121.15853658536587,-116.34146341463416,30,4
317,-0.89697265625,-0.40478515625,-0.7861328125,-175.00000000000003,113.78048780487806,-102.13414634146342,30,4
318,-1.2939453125,-0.5849609375,-0.78271484375,-162.31707317073173,105.67073170731709,-92.07317073170732,30,4
319,-1.37646484375,-0.53759765625,-0.70458984375,-147.4390243902439,102.31707317073172,-82.5609756097561,30,4
320,-1.400390625,-0.4326171875,-0.63232421875,-135.85365853658539,94.14634146341464,-71.89024390243902,30,4
321,-1.388671875,-0.33544921875,-0.74951171875,-132.25609756097563,87.92682926829269,-63.04878048780488,30,4
322,-1.31494140625,-0.2666015625,-0.64404296875,-133.1707317073171,82.07317073170732,-52.6829268292683,30,4
323,-1.326171875,-0.29443359375,-0.69677734375,-132.9268292682927,73.29268292682927,-43.170731707317074,30,4
324,-1.2958984375,-0.2939453125,-0.79296875,-123.65853658536587,60.365853658536594,-35.73170731707317,30,4
325,-1.2568359375,-0.3017578125,-0.8173828125,-114.32926829268294,49.75609756097561,-30.60975609756098,30,4
326,-1.19873046875,-0.27294921875,-0.7744140625,-106.58536585365854,38.59756097560976,-25.853658536585368,30,4
327,-1.1875,-0.275390625,-0.72705078125,-101.34146341463415,28.353658536585368,-22.743902439024392,30,4
328,-1.12646484375,-0.24072265625,-0.74169921875,-109.14634146341464,19.451219512195124,-18.29268292682927,30,4
329,-1.09326171875,-0.2080078125,-0.724609375,-84.02439024390245,9.51219512195122,-13.475609756097562,30,4
330,-1.1025390625,-0.2255859375,-0.69482421875,-77.07317073170732,1.4634146341463417,-8.719512195121952,30,4
331,-1.1728515625,-0.26416015625,-0.671875,-70.2439024390244,-6.402439024390245,-4.207317073170732,30,4
332,-1.23876953125,-0.28759765625,-0.62646484375,-65.3658536585366,-15.609756097560977,-1.0365853658536586,30,4
333,-1.2685546875,-0.28369140625,-0.64599609375,-59.32926829268293,-24.81707317073171,3.4756097560975614,30,4
334,-1.25390625,-0.251953125,-0.65625,-50.97560975609756,-34.390243902439025,9.390243902439025,30,4
335,-1.23779296875,-0.2255859375,-0.666015625,-41.951219512195124,-45.426829268292686,16.03658536585366,30,4
336,-1.228515625,-0.20068359375,-0.68212890625,-33.109756097560975,-55.73170731707317,21.890243902439025,30,4
337,-1.17724609375,-0.18017578125,-0.6494140625,-21.951219512195124,-65.79268292682927,27.682926829268297,30,4
338,-1.14697265625,-0.14990234375,-0.609375,-12.195121951219512,-74.20731707317074,31.951219512195124,30,4
339,-1.1103515625,-0.099609375,-0.5263671875,-5.3048780487804885,-80.91463414634147,35.85365853658537,30,4
340,-1.091796875,-0.06201171875,-0.4404296875,-1.0975609756097562,-86.21951219512196,39.63414634146342,30,4
341,-1.07177734375,-0.0595703125,-0.39306640625,2.1951219512195124,-89.75609756097562,41.82926829268293,30,4
342,-1.06201171875,-0.03125,-0.365234375,6.52439024390244,-78.17073170731707,43.59756097560976,30,4
343,-1.0234375,-0.03076171875,-0.310546875,12.74390243902439,-98.96341463414635,45.487804878048784,30,4
344,-1.0166015625,-0.0234375,-0.255859375,17.926829268292686,-107.13414634146342,31.219512195121954,30,4
345,-0.9951171875,0.013671875,-0.37158203125,22.621951219512198,-113.41463414634147,47.31707317073171,30,4
346,-0.98046875,0.03564453125,-0.24462890625,26.219512195121954,-117.56097560975611,48.41463414634147,30,4
347,-0.96533203125,0.0615234375,-0.2099609375,29.02439024390244,-120.85365853658537,47.926829268292686,30,4
348,-0.95068359375,0.0830078125,-0.14404296875,31.951219512195124,-124.69512195121952,48.65853658536586,30,4
349,-0.94189453125,0.0869140625,-0.095703125,32.43902439024391,-128.96341463414635,48.963414634146346,30,4
350,-0.94189453125,0.09423828125,-0.0419921875,33.53658536585366,-131.64634146341464,49.146341463414636,30,4
351,-0.94140625,0.09765625,-0.02197265625,35.243902439024396,-135.4878048780488,49.32926829268293,30,4
352,-0.93994140625,0.103515625,-0.00439453125,36.768292682926834,-137.01219512195124,48.41463414634147,30,4
353,-0.9150390625,0.13623046875,0.00390625,38.71951219512196,-140.0609756097561,47.50000000000001,30,4
354,-0.908203125,0.13818359375,0.0390625,41.524390243902445,-142.9878048780488,45.91463414634147,30,4
355,-0.91259765625,0.140625,0.0751953125,45.1829268292683,-145.7926829268293,44.87804878048781,30,4
356,-0.90869140625,0.1591796875,0.14697265625,49.207317073170735,-147.6219512195122,44.81707317073171,30,4
357,-0.9140625,0.1630859375,0.177734375,52.37804878048781,-149.20731707317074,44.146341463414636,30,4
358,-0.89404296875,0.1845703125,0.1767578125,54.69512195121952,-151.95121951219514,43.23170731707317,30,4
359,-0.87841796875,0.2236328125,0.16064453125,58.23170731707317,-154.51219512195124,41.707317073170735,30,4
360,-0.880859375,0.22216796875,0.1953125,61.89024390243903,-157.13414634146343,39.63414634146342,30,4
361,-0.888671875,0.2314453125,0.23583984375,64.57317073170732,-158.90243902439025,38.65853658536586,30,4
362,-0.88037109375,0.23876953125,0.28857421875,65.0609756097561,-159.63414634146343,37.926829268292686,30,4
363,-0.8505859375,0.25146484375,0.31396484375,64.20731707317074,-158.109756097561,37.13414634146342,30,4
364,-0.830078125,0.259765625,0.32666015625,63.41463414634147,-158.84146341463415,36.707317073170735,30,4
365,-0.80322265625,0.2529296875,0.33447265625,62.926829268292686,-158.96341463414635,35.609756097560975,30,4
366,-0.77587890625,0.24072265625,0.35302734375,65.1829268292683,-160.0,36.646341463414636,30,4
367,-0.73974609375,0.23583984375,0.373046875,68.23170731707317,-161.70731707317074,37.5609756097561,30,4
368,-0.71044921875,0.2431640625,0.40234375,72.13414634146342,-162.9268292682927,37.80487804878049,30,4
369,-0.68408203125,0.24267578125,0.408203125,75.97560975609757,-164.45121951219514,37.80487804878049,30,4
370,-0.66064453125,0.2412109375,0.42041015625,78.17073170731707,-163.59756097560978,35.73170731707317,30,4
371,-0.7470703125,0.2587890625,0.42578125,78.53658536585367,-162.8048780487805,34.268292682926834,30,4
372,-0.61865234375,0.27587890625,0.4462890625,76.09756097560977,-162.6829268292683,32.987804878048784,30,4
373,-0.5869140625,0.28173828125,0.47509765625,75.0609756097561,-161.40243902439025,32.6829268292683,30,4
374,-0.59326171875,0.275390625,0.513671875,74.02439024390245,-160.0,32.6219512195122,30,4
375,-0.578125,0.29296875,0.53369140625,73.10975609756098,-160.3658536585366,32.987804878048784,30,4
376,-0.54541015625,0.28857421875,0.52197265625,72.98780487804879,-161.03658536585368,34.024390243902445,30,4
377,-0.54296875,0.28662109375,0.5361328125,72.31707317073172,-162.19512195121953,34.51219512195122,30,4
378,-0.533203125,0.2939453125,0.529296875,73.29268292682927,-165.00000000000003,35.30487804878049,30,4
379,-0.5302734375,0.2646484375,0.5546875,75.1219512195122,-167.43902439024393,35.30487804878049,30,4
380,-0.5078125,0.263671875,0.56591796875,77.25609756097562,-168.1707317073171,34.81707317073171,30,4
381,-0.46923828125,0.373046875,0.58837890625,74.69512195121952,-166.89024390243904,34.32926829268293,30,4
382,-0.42431640625,0.25927734375,0.56005859375,70.0,-164.45121951219514,33.47560975609756,30,4
383,-0.3876953125,0.291015625,0.57666015625,68.10975609756098,-163.84146341463415,34.024390243902445,30,4
384,-0.328125,0.310546875,0.55126953125,68.84146341463415,-165.7926829268293,35.1219512195122,30,4
385,-0.26123046875,0.33642578125,0.5556640625,71.52439024390245,-167.50000000000003,35.91463414634147,30,4
386,-0.2080078125,0.337890625,0.5537109375,73.41463414634147,-170.3658536585366,37.07317073170732,30,4
387,-0.1845703125,0.3271484375,0.55224609375,72.6829268292683,-167.8658536585366,36.09756097560976,30,4
388,-0.1455078125,0.3583984375,0.5546875,66.70731707317074,-165.0609756097561,34.51219512195122,30,4
389,-0.150390625,0.39013671875,0.59765625,60.91463414634147,-164.02439024390245,34.024390243902445,30,4
390,-0.15283203125,0.3994140625,0.60107421875,57.07317073170732,-169.39024390243904,34.93902439024391,30,4
391,-0.19140625,0.35498046875,0.60107421875,53.78048780487806,-172.01219512195124,33.963414634146346,30,4
392,-0.22412109375,0.3330078125,0.6435546875,52.01219512195122,-171.95121951219514,32.987804878048784,30,4
393,-0.224609375,0.328125,0.66943359375,51.82926829268293,-172.43902439024393,34.207317073170735,30,4
394,-0.1640625,0.357421875,0.67236328125,52.743902439024396,-172.8658536585366,35.0,30,4
395,-0.10205078125,0.39306640625,0.6591796875,51.82926829268293,-173.78048780487808,36.28048780487805,30,4
396,-0.0615234375,0.42431640625,0.6376953125,51.585365853658544,-174.93902439024393,37.25609756097561,30,4
397,-0.02685546875,0.42626953125,0.6572265625,50.304878048780495,-175.4878048780488,37.5,30,4
398,-0.0078125,0.43994140625,0.66552734375,48.04878048780488,-175.1829268292683,38.10975609756098,30,4
399,-0.12158203125,0.466796875,0.6708984375,45.243902439024396,-176.89024390243904,38.84146341463415,30,4
400,0.00341796875,0.44970703125,0.66943359375,42.50000000000001,-179.26829268292684,40.0,30,4
401,0.00146484375,0.4306640625,0.69287109375,40.426829268292686,-179.75609756097563,40.0609756097561,30,4
402,0.0166015625,0.40478515625,0.673828125,40.85365853658537,-181.82926829268294,41.707317073170735,30,4
403,0.05322265625,0.39453125,0.70361328125,43.10975609756098,-181.58536585365854,42.01219512195122,30,4
404,0.10498046875,0.4140625,0.72802734375,45.426829268292686,-183.2317073170732,43.10975609756098,30,4
405,0.14404296875,0.44873046875,0.72900390625,47.86585365853659,-183.59756097560978,44.268292682926834,30,4
406,0.20458984375,0.5048828125,0.744140625,48.29268292682927,-184.32926829268294,45.0609756097561,30,4
407,0.24169921875,0.54248046875,0.775390625,46.524390243902445,-185.00000000000003,46.03658536585366,30,4
408,0.2451171875,0.55078125,0.81103515625,45.1829268292683,-185.7317073170732,46.951219512195124,30,4
409,0.259765625,0.52587890625,0.8330078125,44.57317073170732,-184.81707317073173,47.25609756097561,30,4
410,0.27001953125,0.5009765625,0.80859375,45.0609756097561,-184.51219512195124,47.987804878048784,30,4
411,0.29052734375,0.49853515625,0.7587890625,47.37804878048781,-185.4268292682927,49.207317073170735,30,4
412,0.31494140625,0.376953125,0.7724609375,50.91463414634147,-186.21951219512198,50.91463414634147,30,4
413,0.3466796875,0.6181640625,0.75830078125,52.926829268292686,-186.64634146341464,53.10975609756098,30,4
414,0.36572265625,0.62158203125,0.76806640625,53.35365853658537,-186.09756097560978,54.451219512195124,30,4
415,0.384765625,0.494140625,0.7939453125,51.40243902439025,-183.109756097561,54.75609756097561,30,4
416,0.40380859375,0.52197265625,0.80859375,51.09756097560976,-180.4268292682927,55.426829268292686,30,4
417,0.4287109375,0.5458984375,0.826171875,52.37804878048781,-178.65853658536588,56.15853658536586,30,4
418,0.455078125,0.57861328125,0.82861328125,53.59756097560976,-176.70731707317074,56.585365853658544,30,4
419,0.48095703125,0.61181640625,0.81689453125,53.10975609756098,-174.63414634146343,56.768292682926834,30,4
420,0.4931640625,0.64013671875,0.7900390625,52.6829268292683,-173.53658536585368,57.25609756097561,30,4
421,0.51025390625,0.6748046875,0.7958984375,53.53658536585366,-173.96341463414635,57.865853658536594,30,4
422,0.52392578125,0.6953125,0.76953125,54.63414634146342,-174.81707317073173,58.10975609756098,30,4
423,0.54248046875,0.70458984375,0.74365234375,56.951219512195124,-176.64634146341464,59.207317073170735,30,4
424,0.5322265625,0.6953125,0.7431640625,58.41463414634147,-175.4268292682927,59.024390243902445,30,4
425,0.54296875,0.6962890625,0.7353515625,54.268292682926834,-171.15853658536588,57.43902439024391,30,4
426,0.57470703125,0.73486328125,0.71826171875,50.1219512195122,-167.7439024390244,57.37804878048781,30,4
427,0.58349609375,0.75732421875,0.74609375,49.207317073170735,-166.40243902439025,58.35365853658537,30,4
428,0.5791015625,0.7412109375,0.78173828125,49.207317073170735,-166.64634146341464,59.51219512195122,30,4
429,0.5732421875,0.68115234375,0.77392578125,52.6829268292683,-167.01219512195124,60.243902439024396,30,4
430,0.5458984375,0.63330078125,0.77001953125,59.207317073170735,-169.02439024390245,60.426829268292686,30,4
431,0.53515625,0.6220703125,0.76416015625,70.97560975609757,-173.59756097560978,61.34146341463415,30,4
432,0.548828125,0.6435546875,0.72021484375,83.53658536585367,-178.41463414634148,61.28048780487806,30,4
433,0.53955078125,0.63623046875,0.67626953125,85.2439024390244,-176.15853658536588,59.451219512195124,30,4
434,0.5634765625,0.67236328125,0.59375,78.29268292682927,-172.31707317073173,58.963414634146346,30,4
435,0.60693359375,0.724609375,0.55419921875,69.32926829268293,-167.5609756097561,60.00000000000001,30,4
436,0.50048828125,0.74951171875,0.57275390625,60.304878048780495,-162.9878048780488,63.10975609756098,30,4
437,0.640625,0.744140625,0.59521484375,50.1829268292683,-157.8658536585366,64.39024390243902,30,4
438,0.6826171875,0.76171875,0.615234375,45.60975609756098,-155.4878048780488,66.46341463414635,30,4
439,0.6396484375,0.74365234375,0.6279296875,44.75609756097561,-154.63414634146343,69.02439024390245,30,4
440,0.6181640625,0.69775390625,0.60791015625,42.37804878048781,-148.41463414634148,68.53658536585367,30,4
441,0.65185546875,0.720703125,0.60400390625,40.97560975609756,-152.01219512195124,68.96341463414635,30,4
442,0.6083984375,0.72998046875,0.49755859375,51.951219512195124,-165.5487804878049,75.42682926829269,30,4
443,0.52783203125,0.5361328125,0.34130859375,67.31707317073172,-167.8048780487805,71.89024390243902,30,4
444,0.61083984375,0.59375,0.3681640625,76.21951219512196,-167.01219512195124,67.98780487804879,30,4
445,0.68408203125,0.50341796875,0.39306640625,64.81707317073172,-154.08536585365854,60.91463414634147,30,4
446,0.80126953125,0.71923828125,0.29736328125,39.93902439024391,-155.85365853658539,55.304878048780495,30,4
447,0.8349609375,0.76611328125,0.1904296875,20.30487804878049,-130.0,55.67073170731708,30,4
448,0.7734375,0.77099609375,0.2333984375,11.158536585365855,-123.17073170731709,56.34146341463415,30,4
449,0.79443359375,0.76220703125,0.30322265625,12.865853658536587,-121.70731707317074,58.10975609756098,30,4
450,0.77978515625,0.63134765625,0.287109375,14.02439024390244,-124.20731707317074,57.6219512195122,30,4
451,0.6748046875,0.5703125,0.1796875,25.0609756097561,-132.07317073170734,60.060975609756106,30,4
452,0.66845703125,0.50732421875,0.16259765625,38.29268292682927,-137.13414634146343,58.59756097560976,30,4
453,0.67822265625,0.52587890625,0.181640625,56.89024390243903,-145.6707317073171,60.304878048780495,30,4
454,0.6923828125,0.48779296875,0.18505859375,68.53658536585367,-149.26829268292684,62.13414634146342,30,4
455,0.69189453125,0.4580078125,0.1064453125,57.560975609756106,-141.28048780487805,58.71951219512196,30,4
456,0.7138671875,0.505859375,-0.021484375,39.32926829268293,-131.34146341463415,57.804878048780495,30,4
457,0.6806640625,0.48828125,-0.06396484375,25.670731707317074,-123.41463414634147,61.524390243902445,30,4
458,0.66162109375,0.46826171875,-0.04296875,16.951219512195124,-119.51219512195124,67.7439024390244,30,4
459,0.6513671875,0.4140625,-0.03857421875,12.01219512195122,-120.60975609756099,75.3048780487805,30,4
460,0.5888671875,0.29345703125,-0.08642578125,13.109756097560977,-128.1707317073171,84.20731707317074,30,4
461,0.525390625,0.19580078125,-0.0859375,24.939024390243905,-136.28048780487805,91.15853658536587,30,4
462,0.50927734375,0.14208984375,-0.04541015625,37.5609756097561,-144.32926829268294,94.57317073170732,30,4
463,0.55419921875,0.12060546875,-0.052734375,51.34146341463415,-151.82926829268294,98.10975609756099,30,4
464,0.55615234375,0.09521484375,-0.12060546875,56.03658536585366,-152.31707317073173,99.39024390243904,30,4
465,0.578125,0.11865234375,-0.21337890625,42.926829268292686,-137.8048780487805,95.73170731707317,30,4
466,0.69091796875,0.2705078125,-0.212890625,28.170731707317074,-126.21951219512196,95.2439024390244,30,4
467,0.76708984375,0.3193359375,-0.20751953125,18.170731707317074,-119.26829268292684,97.8658536585366,30,4
468,0.7705078125,0.330078125,-0.2041015625,13.353658536585368,-115.91463414634147,101.34146341463415,30,4
469,0.8740234375,0.2587890625,-0.2421875,12.378048780487806,-115.00000000000001,103.90243902439025,30,4
470,0.72509765625,0.201171875,-0.2236328125,20.426829268292686,-116.58536585365854,103.47560975609757,30,4
471,0.7158203125,0.17919921875,-0.1669921875,34.75609756097561,-120.97560975609757,102.19512195121952,30,4
472,0.7138671875,0.142578125,-0.17236328125,48.35365853658537,-124.51219512195124,98.96341463414635,30,4
473,0.70556640625,0.10888671875,-0.2216796875,60.00000000000001,-126.15853658536587,96.52439024390245,30,4
474,0.7177734375,0.2490234375,-0.27099609375,67.25609756097562,-124.32926829268294,94.20731707317074,30,4
475,0.74951171875,0.16748046875,-0.3037109375,70.97560975609757,-121.46341463414635,91.82926829268294,30,4
476,0.79150390625,0.19775390625,-0.2685546875,66.70731707317074,-117.13414634146342,89.81707317073172,30,4
477,0.7939453125,0.1865234375,-0.38525390625,59.93902439024391,-112.37804878048782,88.84146341463415,30,4
478,0.78955078125,0.17236328125,-0.6015625,44.81707317073171,-99.51219512195122,87.01219512195122,30,4
479,0.99560546875,0.2412109375,-0.61376953125,26.402439024390247,-85.2439024390244,84.08536585365854,30,4
480,0.9150390625,0.23779296875,-0.6083984375,8.109756097560977,-72.25609756097562,82.7439024390244,30,4
481,0.91650390625,0.21630859375,-0.57373046875,-9.451219512195122,-60.67073170731708,80.91463414634147,30,4
482,0.8759765625,0.19091796875,-0.57177734375,-25.426829268292686,-51.34146341463415,78.84146341463415,30,4
483,0.80419921875,0.11669921875,-0.568359375,-33.90243902439025,-45.670731707317074,76.21951219512196,30,4
484,0.787109375,0.07763671875,-0.51806640625,-38.41463414634147,-40.1829268292683,72.31707317073172,30,4
485,0.7275390625,-0.00439453125,-0.40283203125,-42.37804878048781,-38.53658536585366,72.6219512195122,30,4
486,0.67041015625,0.19091796875,-0.58203125,-32.86585365853659,-33.41463414634146,65.67073170731707,30,4
487,0.85595703125,0.1044921875,-0.62060546875,-48.23170731707317,-46.40243902439025,76.89024390243902,30,4
488,0.85986328125,0.0908203125,-0.55078125,-45.1219512195122,-44.390243902439025,75.54878048780489,30,4
489,0.84228515625,0.02294921875,-0.5205078125,-45.0609756097561,-43.78048780487805,75.0,30,4
490,0.78759765625,-0.123046875,-0.583984375,-50.85365853658537,-28.53658536585366,77.37804878048782,30,4
491,0.69580078125,-0.009765625,-0.52880859375,-51.82926829268293,-25.121951219512198,50.1219512195122,30,4
492,0.5029296875,-0.1201171875,-0.53076171875,-50.73170731707317,-18.658536585365855,55.60975609756098,30,4
493,0.85400390625,-0.42724609375,-0.3662109375,-57.25609756097561,-0.24390243902439027,60.1219512195122,30,4
494,0.84130859375,0.08984375,-0.48779296875,-71.58536585365854,-3.780487804878049,59.085365853658544,30,4
495,0.6845703125,-0.04638671875,-0.6953125,-75.1829268292683,-4.634146341463415,70.3048780487805,30,4
496,0.5146484375,-0.12109375,-0.44140625,-70.97560975609757,-7.682926829268293,76.82926829268294,30,4
497,0.7041015625,-0.298828125,-0.34765625,-92.01219512195122,11.890243902439025,66.76829268292684,30,4
498,0.63232421875,-0.06787109375,-0.5751953125,-83.04878048780489,-6.52439024390244,63.41463414634147,30,4
499,0.4814453125,0.0400390625,-0.5185546875,-76.34146341463415,-6.036585365853659,67.13414634146342,30,4
