,Ax,Ay,Az,Gx,Gy,Gz,distance,shot_type
0,0.7080078125,-0.41552734375,-0.240234375,17.5,-3.536585365853659,-7.987804878048781,145,6
1,0.70703125,-0.41796875,-0.244140625,19.146341463414636,-3.658536585365854,-8.719512195121952,145,6
2,0.7353515625,-0.40087890625,-0.25830078125,21.097560975609756,-4.329268292682928,-9.451219512195122,145,6
3,0.72509765625,-0.4150390625,-0.2861328125,20.975609756097562,-4.085365853658537,-9.26829268292683,145,6
4,0.69775390625,-0.45751953125,-0.2900390625,21.158536585365855,-4.573170731707317,-9.207317073170733,145,6
5,0.6806640625,-0.4775390625,-0.298828125,21.82926829268293,-5.670731707317073,-8.841463414634147,145,6
6,0.66357421875,-0.49365234375,-0.3076171875,21.52439024390244,-5.3048780487804885,-9.207317073170733,145,6
7,0.67626953125,-0.47412109375,-0.3349609375,20.60975609756098,-4.817073170731708,-9.878048780487806,145,6
8,0.68310546875,-0.4560546875,-0.34033203125,19.634146341463417,-3.2926829268292686,-10.487804878048781,145,6
9,0.689453125,-0.45556640625,-0.35986328125,18.597560975609756,-1.7682926829268295,-10.060975609756099,145,6
10,0.6748046875,-0.47900390625,-0.3671875,18.170731707317074,0.30487804878048785,-10.121951219512196,145,6
11,0.6787109375,-0.51171875,-0.34814453125,16.646341463414636,1.5853658536585367,-10.121951219512196,145,6
12,0.66064453125,-0.52099609375,-0.33642578125,17.5609756097561,1.3414634146341464,-9.695121951219512,145,6
13,0.65576171875,-0.5439453125,-0.32080078125,19.75609756097561,0.6707317073170732,-9.02439024390244,145,6
14,0.63623046875,-0.55859375,-0.3046875,23.04878048780488,-1.2195121951219514,-8.353658536585366,145,6
15,0.6162109375,-0.56884765625,-0.3173828125,26.158536585365855,-3.353658536585366,-7.01219512195122,145,6
16,0.59375,-0.59814453125,-0.3271484375,27.682926829268297,-3.2926829268292686,-4.695121951219512,145,6
17,0.59375,-0.59765625,-0.34912109375,28.292682926829272,-1.9512195121951221,-3.353658536585366,145,6
18,0.626953125,-0.5380859375,-0.3564453125,29.146341463414636,-0.06097560975609757,-2.3170731707317076,145,6
19,0.66552734375,-0.51416015625,-0.37060546875,28.719512195121954,0.30487804878048785,-1.2195121951219514,145,6
20,0.68994140625,-0.52001953125,-0.37548828125,30.792682926829272,0.7926829268292683,-0.853658536585366,145,6
21,0.67822265625,-0.54443359375,-0.36181640625,33.963414634146346,-1.5853658536585367,-0.1829268292682927,145,6
22,0.6630859375,-0.58203125,-0.3701171875,37.07317073170732,-6.7682926829268295,1.6463414634146343,145,6
23,0.61181640625,-0.63671875,-0.408203125,40.60975609756098,-13.78048780487805,4.451219512195122,145,6
24,0.55859375,-0.68701171875,-0.4091796875,44.63414634146342,-19.634146341463417,6.52439024390244,145,6
25,0.5380859375,-0.68212890625,-0.3837890625,47.926829268292686,-23.29268292682927,6.890243902439025,145,6
26,0.5556640625,-0.66015625,-0.34716796875,49.451219512195124,-24.085365853658537,8.292682926829269,145,6
27,0.5400390625,-0.646484375,-0.34375,48.78048780487805,-22.865853658536587,8.963414634146343,145,6
28,0.517578125,-0.6669921875,-0.3310546875,62.19512195121952,-22.25609756097561,10.914634146341465,145,6
29,0.4931640625,-0.673828125,-0.34130859375,46.03658536585366,-24.695121951219516,11.829268292682928,145,6
30,0.490234375,-0.6845703125,-0.36572265625,46.646341463414636,-25.975609756097562,11.76829268292683,145,6
31,0.53125,-0.6640625,-0.41162109375,46.89024390243903,-27.439024390243905,10.731707317073171,145,6
32,0.55517578125,-0.63623046875,-0.43212890625,44.08536585365854,-26.03658536585366,9.390243902439025,145,6
33,0.5703125,-0.6376953125,-0.4775390625,37.37804878048781,-23.53658536585366,9.085365853658537,145,6
34,0.61474609375,-0.62158203125,-0.48291015625,29.573170731707318,-19.390243902439025,8.78048780487805,145,6
35,0.61669921875,-0.6328125,-0.484375,18.963414634146343,-14.329268292682928,7.987804878048781,145,6
36,0.6376953125,-0.59521484375,-0.4873046875,10.792682926829269,-10.182926829268293,7.560975609756098,145,6
37,0.64208984375,-0.572265625,-0.49072265625,3.1707317073170733,-5.121951219512195,7.439024390243903,145,6
38,0.62841796875,-0.56298828125,-0.48828125,-2.378048780487805,-3.5975609756097566,8.109756097560977,145,6
39,0.57177734375,-0.5869140625,-0.44189453125,-2.8658536585365857,-5.3048780487804885,10.0,145,6
40,0.5244140625,-0.634765625,-0.43212890625,-3.231707317073171,-5.914634146341464,10.609756097560977,145,6
41,0.53857421875,-0.60009765625,-0.44775390625,-4.085365853658537,-5.182926829268293,9.939024390243903,145,6
42,0.58154296875,-0.5498046875,-0.474609375,-4.329268292682928,-4.085365853658537,9.451219512195122,145,6
43,0.65234375,-0.513671875,-0.4951171875,-6.463414634146342,-0.48780487804878053,8.475609756097562,145,6
44,0.6796875,-0.490234375,-0.52392578125,-13.170731707317074,4.878048780487806,7.682926829268293,145,6
45,0.681640625,-0.47998046875,-0.5537109375,-19.75609756097561,8.658536585365855,7.195121951219513,145,6
46,0.68896484375,-0.458984375,-0.5419921875,-23.10975609756098,10.487804878048781,6.2804878048780495,145,6
47,0.671875,-0.46044921875,-0.51416015625,-22.926829268292686,7.987804878048781,5.3048780487804885,145,6
48,0.65478515625,-0.482421875,-0.47119140625,-20.30487804878049,6.158536585365854,3.658536585365854,145,6
49,0.66455078125,-0.4716796875,-0.43115234375,-18.353658536585368,4.878048780487806,2.6219512195121952,145,6
50,0.6748046875,-0.4521484375,-0.3896484375,-19.512195121951223,5.853658536585367,1.707317073170732,145,6
51,0.681640625,-0.4296875,-0.3505859375,-18.719512195121954,4.75609756097561,1.3414634146341464,145,6
52,0.68359375,-0.4599609375,-0.31005859375,-13.78048780487805,2.1341463414634148,2.5,145,6
53,0.63525390625,-0.51806640625,-0.2841796875,-11.341463414634147,0.9146341463414634,2.682926829268293,145,6
54,0.5009765625,-0.51904296875,-0.2822265625,-8.902439024390244,1.2804878048780488,1.829268292682927,145,6
55,0.66357421875,-0.51318359375,-0.26025390625,-7.926829268292684,2.6219512195121952,1.2804878048780488,145,6
56,0.6572265625,-0.51123046875,-0.2626953125,-8.78048780487805,5.853658536585367,0.9756097560975611,145,6
57,0.6689453125,-0.50390625,-0.2568359375,-11.28048780487805,10.975609756097562,0.5487804878048781,145,6
58,0.66455078125,-0.50146484375,-0.25537109375,-14.207317073170733,13.963414634146343,0.0,145,6
59,0.673828125,-0.4912109375,-0.24560546875,-10.609756097560977,12.439024390243903,0.30487804878048785,145,6
60,0.62841796875,-0.55224609375,-0.26171875,-4.695121951219512,9.573170731707318,0.3658536585365854,145,6
61,0.64892578125,-0.54736328125,-0.3330078125,-2.3170731707317076,8.292682926829269,-15.609756097560977,145,6
62,0.67431640625,-0.546875,-0.35791015625,-3.536585365853659,8.658536585365855,0.30487804878048785,145,6
63,0.6689453125,-0.55859375,-0.31787109375,-3.963414634146342,9.634146341463415,0.06097560975609757,145,6
64,0.681640625,-0.5732421875,-0.28857421875,-2.804878048780488,10.30487804878049,0.3658536585365854,145,6
65,0.66650390625,-0.501953125,-0.29296875,-0.9146341463414634,10.30487804878049,1.2195121951219514,145,6
66,0.64111328125,-0.6689453125,-0.2724609375,2.7439024390243905,7.682926829268293,1.9512195121951221,145,6
67,0.61474609375,-0.6845703125,-0.28125,6.890243902439025,6.463414634146342,3.414634146341464,145,6
68,0.609375,-0.6767578125,-0.3017578125,7.073170731707318,7.317073170731708,5.426829268292684,145,6
69,0.61474609375,-0.66552734375,-0.34765625,3.353658536585366,10.121951219512196,7.317073170731708,145,6
70,0.59814453125,-0.6806640625,-0.3701171875,0.12195121951219513,12.134146341463415,9.26829268292683,145,6
71,0.59912109375,-0.70751953125,-0.3984375,-2.439024390243903,13.04878048780488,9.695121951219512,145,6
72,0.59375,-0.701171875,-0.43310546875,-3.9024390243902443,13.963414634146343,9.51219512195122,145,6
73,0.58447265625,-0.69921875,-0.44287109375,-5.426829268292684,15.121951219512196,8.048780487804878,145,6
74,0.5859375,-0.67626953125,-0.45556640625,-3.231707317073171,10.914634146341465,5.548780487804878,145,6
75,0.5849609375,-0.6611328125,-0.455078125,2.1951219512195124,5.3048780487804885,4.573170731707317,145,6
76,0.5595703125,-0.67626953125,-0.45458984375,3.7195121951219514,2.439024390243903,3.7195121951219514,145,6
77,0.552734375,-0.65673828125,-0.4521484375,3.8414634146341466,15.54878048780488,2.9268292682926833,145,6
78,0.5595703125,-0.64208984375,-0.41162109375,5.365853658536586,-3.1707317073170733,3.414634146341464,145,6
79,0.55029296875,-0.64892578125,-0.43359375,7.01219512195122,-5.365853658536586,3.963414634146342,145,6
80,0.5654296875,-0.63720703125,-0.4248046875,6.402439024390245,-4.75609756097561,3.414634146341464,145,6
81,0.6083984375,-0.56591796875,-0.3994140625,4.451219512195122,-2.439024390243903,2.3170731707317076,145,6
82,0.66357421875,-0.5146484375,-0.25048828125,1.2804878048780488,1.3414634146341464,1.3414634146341464,145,6
83,0.67138671875,-0.4921875,-0.34033203125,-2.5,4.695121951219512,1.1585365853658538,145,6
84,0.67333984375,-0.4736328125,-0.31103515625,-6.463414634146342,8.414634146341465,0.12195121951219513,145,6
85,0.69873046875,-0.4541015625,-0.28271484375,-7.560975609756098,10.060975609756099,-0.426829268292683,145,6
86,0.6865234375,-0.43505859375,-0.27685546875,-5.853658536585367,9.695121951219512,-0.24390243902439027,145,6
87,0.65576171875,-0.4462890625,-0.26806640625,-1.524390243902439,6.52439024390244,-0.24390243902439027,145,6
88,0.65283203125,-0.43798828125,-0.2548828125,4.024390243902439,4.695121951219512,-0.6707317073170732,145,6
89,0.67041015625,-0.42724609375,-0.25830078125,10.30487804878049,3.353658536585366,-1.402439024390244,145,6
90,0.65673828125,-0.43408203125,-0.2587890625,13.902439024390246,4.939024390243903,-2.073170731707317,145,6
91,0.67236328125,-0.41650390625,-0.2783203125,11.829268292682928,7.560975609756098,-3.353658536585366,145,6
92,0.703125,-0.3916015625,-0.30615234375,10.792682926829269,8.963414634146343,-4.329268292682928,145,6
93,0.7158203125,-0.4248046875,-0.3271484375,9.451219512195122,10.182926829268293,-3.7195121951219514,145,6
94,0.66650390625,-0.5009765625,-0.33349609375,4.939024390243903,13.170731707317074,-3.1097560975609757,145,6
95,0.6494140625,-0.54248046875,-0.294921875,2.1341463414634148,16.585365853658537,-3.8414634146341466,145,6
96,0.6591796875,-0.544921875,-0.23779296875,4.207317073170732,16.951219512195124,-4.451219512195122,145,6
97,0.67333984375,-0.54150390625,-0.20654296875,5.609756097560976,18.719512195121954,-5.3048780487804885,145,6
98,0.6923828125,-0.51220703125,-0.23583984375,6.707317073170732,20.0,-6.219512195121951,145,6
99,0.708984375,-0.53369140625,-0.2724609375,6.951219512195123,21.34146341463415,-5.7926829268292686,145,6
100,0.71337890625,-0.5703125,-0.2783203125,7.439024390243903,22.682926829268293,-5.853658536585367,145,6
101,0.7275390625,-0.59326171875,-0.2958984375,7.926829268292684,23.353658536585368,-6.402439024390245,145,6
102,0.71435546875,-0.61767578125,-0.2626953125,9.146341463414634,24.81707317073171,-5.7926829268292686,145,6
103,0.70361328125,-0.63330078125,-0.25341796875,8.292682926829269,26.09756097560976,-6.158536585365854,145,6
104,0.689453125,-0.64599609375,-0.22021484375,6.951219512195123,27.134146341463417,-5.121951219512195,145,6
105,0.65625,-0.6650390625,-0.197265625,8.292682926829269,25.914634146341466,-4.451219512195122,145,6
106,0.6318359375,-0.6943359375,-0.18994140625,10.121951219512196,25.365853658536587,-2.987804878048781,145,6
107,0.6298828125,-0.6923828125,-0.18115234375,11.707317073170733,25.853658536585368,-2.25609756097561,145,6
108,0.64599609375,-0.6796875,-0.18408203125,11.76829268292683,26.707317073170735,-1.829268292682927,145,6
109,0.6533203125,-0.67236328125,-0.2275390625,11.28048780487805,28.475609756097562,-0.7926829268292683,145,6
110,0.62939453125,-0.69091796875,-0.24072265625,8.841463414634147,31.76829268292683,0.24390243902439027,145,6
111,0.63671875,-0.68115234375,-0.26953125,6.707317073170732,34.69512195121951,1.2195121951219514,145,6
112,0.6259765625,-0.671875,-0.2841796875,3.414634146341464,38.35365853658537,1.3414634146341464,145,6
113,0.6630859375,-0.62841796875,-0.27099609375,0.0,41.524390243902445,1.0365853658536586,145,6
114,0.64697265625,-0.6162109375,-0.25439453125,-3.414634146341464,45.1219512195122,1.402439024390244,145,6
115,0.6318359375,-0.62353515625,-0.2353515625,-8.048780487804878,48.963414634146346,1.7682926829268295,145,6
116,0.63330078125,-0.61328125,-0.24365234375,-11.890243902439025,52.86585365853659,2.8658536585365857,145,6
117,0.6279296875,-0.6044921875,-0.22802734375,-15.30487804878049,55.73170731707317,4.390243902439025,145,6
118,0.630859375,-0.59619140625,-0.23095703125,-17.31707317073171,58.04878048780488,6.219512195121951,145,6
119,0.6220703125,-0.58447265625,-0.23681640625,-21.707317073170735,47.43902439024391,6.585365853658537,145,6
120,0.65673828125,-0.52685546875,-0.22509765625,-32.80487804878049,76.09756097560977,6.951219512195123,145,6
121,0.6904296875,-0.4609375,-0.12744140625,-50.0609756097561,87.92682926829269,10.060975609756099,145,6
122,0.69287109375,-0.42041015625,-0.29296875,-67.5,101.64634146341464,13.414634146341465,145,6
123,0.72998046875,-0.3642578125,-0.3203125,-93.41463414634147,118.84146341463416,15.853658536585368,145,6
124,0.8056640625,-0.27880859375,-0.357421875,-120.91463414634147,134.51219512195124,17.804878048780488,145,6
125,0.8203125,-0.26025390625,-0.4228515625,-126.15853658536587,142.8048780487805,19.878048780487806,145,6
126,0.822265625,-0.2880859375,-0.37841796875,-158.2317073170732,151.28048780487805,19.939024390243905,145,6
127,0.8173828125,-0.3505859375,-0.33837890625,-169.08536585365854,156.82926829268294,20.0609756097561,145,6
128,0.7685546875,-0.3984375,-0.2919921875,-173.65853658536588,158.53658536585368,20.243902439024392,145,6
129,0.65771484375,-0.4638671875,-0.21875,-170.0609756097561,151.21951219512195,21.890243902439025,145,6
130,0.54638671875,-0.53662109375,-0.12548828125,-161.28048780487805,141.09756097560978,21.646341463414636,145,6
131,0.49169921875,-0.53759765625,-0.27783203125,-146.82926829268294,128.0487804878049,21.82926829268293,145,6
132,0.51953125,-0.45947265625,-0.2783203125,-132.37804878048783,117.98780487804879,20.79268292682927,145,6
133,0.57275390625,-0.34375,-0.29736328125,-124.93902439024392,111.40243902439025,19.634146341463417,145,6
134,0.654296875,-0.220703125,-0.3974609375,-124.63414634146342,108.90243902439025,15.914634146341465,145,6
135,0.72802734375,-0.08837890625,-0.4677734375,-131.15853658536585,93.84146341463415,13.170731707317074,145,6
136,0.744140625,-0.07958984375,-0.4384765625,-139.26829268292684,112.19512195121952,10.0,145,6
137,0.73095703125,-0.083984375,-0.3779296875,-145.1219512195122,111.76829268292684,4.817073170731708,145,6
138,0.728515625,-0.07470703125,-0.39990234375,-143.2926829268293,104.69512195121952,1.7682926829268295,145,6
139,0.67578125,-0.1142578125,-0.3896484375,-140.609756097561,96.95121951219512,-2.1951219512195124,145,6
140,0.66748046875,-0.08935546875,-0.44970703125,-135.0609756097561,91.15853658536587,-8.048780487804878,145,6
141,0.74853515625,0.00390625,-0.40478515625,-131.95121951219514,86.28048780487805,-12.134146341463415,145,6
142,0.78955078125,0.07470703125,-0.5458984375,-136.46341463414635,86.52439024390245,-19.695121951219512,145,6
143,0.755859375,0.22021484375,-0.59228515625,-148.47560975609758,91.21951219512196,-25.914634146341466,145,6
144,0.89208984375,0.2412109375,-0.5517578125,-160.609756097561,91.82926829268294,-16.158536585365855,145,6
145,0.923828125,0.240234375,-0.57080078125,-169.20731707317074,91.89024390243904,-37.07317073170732,145,6
146,0.916015625,0.1962890625,-0.5498046875,-174.14634146341464,90.97560975609757,-41.768292682926834,145,6
147,0.8896484375,0.17724609375,-0.58740234375,-174.08536585365854,86.15853658536587,-46.21951219512196,145,6
148,0.86669921875,0.16064453125,-0.55810546875,-171.95121951219514,83.65853658536587,-50.97560975609756,145,6
149,0.89501953125,0.19775390625,-0.548828125,-171.70731707317074,80.79268292682927,-56.09756097560976,145,6
150,0.90625,0.2451171875,-0.57373046875,-172.43902439024393,76.46341463414635,-60.79268292682927,145,6
151,0.91650390625,0.28173828125,-0.62158203125,-175.4878048780488,75.0609756097561,-65.54878048780489,145,6
152,0.927734375,0.28857421875,-0.58447265625,-180.1829268292683,75.67073170731707,-70.85365853658537,145,6
153,0.9921875,0.318359375,-0.68115234375,-185.1829268292683,72.8048780487805,-80.91463414634147,145,6
154,1.09912109375,0.45361328125,-0.6826171875,-196.70731707317074,62.804878048780495,-89.08536585365854,145,6
155,1.119140625,0.48095703125,-0.67724609375,-210.06097560975613,80.91463414634147,-96.52439024390245,145,6
156,1.10888671875,0.27783203125,-0.62548828125,-215.00000000000003,82.92682926829269,-105.1829268292683,145,6
157,1.00634765625,0.22509765625,-0.564453125,-212.37804878048783,81.15853658536587,-113.41463414634147,145,6
158,1.166015625,0.20556640625,-0.50146484375,-210.4268292682927,79.45121951219512,-120.06097560975611,145,6
159,1.17724609375,0.2109375,-0.50146484375,-211.58536585365854,79.51219512195122,-125.97560975609757,145,6
160,1.201171875,0.193359375,-0.50341796875,-214.57317073170734,80.3658536585366,-130.4268292682927,145,6
161,1.22705078125,0.1328125,-0.51708984375,-215.12195121951223,81.21951219512196,-136.52439024390245,145,6
162,1.28759765625,0.14404296875,-0.48193359375,-214.08536585365854,84.02439024390245,-144.26829268292684,145,6
163,1.359375,0.16943359375,-0.48046875,-216.15853658536588,85.97560975609757,-150.85365853658539,145,6
164,1.36279296875,0.1640625,-0.53759765625,-221.76829268292684,87.25609756097562,-159.87804878048783,145,6
165,1.3974609375,0.19140625,-0.55810546875,-221.89024390243904,87.01219512195122,-168.0487804878049,145,6
166,1.44677734375,0.234375,-0.44287109375,-220.5487804878049,88.29268292682927,-172.25609756097563,145,6
167,1.486328125,0.24267578125,-0.45556640625,-217.9268292682927,87.37804878048782,-177.13414634146343,145,6
168,1.48046875,0.078125,-0.35986328125,-207.07317073170734,85.0609756097561,-181.46341463414635,145,6
169,1.50927734375,0.0654296875,-0.28515625,-191.58536585365854,82.50000000000001,-184.69512195121953,145,6
170,1.58544921875,0.1474609375,-0.24609375,-183.41463414634148,84.20731707317074,-189.14634146341464,145,6
171,1.67041015625,0.23779296875,-0.23779296875,-183.1707317073171,86.82926829268294,-194.39024390243904,145,6
172,1.77197265625,0.35009765625,-0.2841796875,-185.6707317073171,89.57317073170732,-202.07317073170734,145,6
173,1.88671875,0.4267578125,-0.27392578125,-192.9268292682927,98.71951219512196,-209.69512195121953,145,6
174,2.01220703125,0.40869140625,-0.23046875,-197.13414634146343,104.81707317073172,-218.2317073170732,145,6
175,2.11572265625,0.388671875,-0.15478515625,-190.85365853658539,107.25609756097562,-227.13414634146343,145,6
176,2.23681640625,0.4267578125,-0.11669921875,-179.93902439024393,107.13414634146342,-237.74390243902442,145,6
177,2.35693359375,0.544921875,-0.12255859375,-168.71951219512198,104.63414634146342,-249.69512195121953,145,6
178,2.46142578125,0.505859375,-0.173828125,-161.15853658536588,103.71951219512196,-262.5609756097561,145,6
179,2.4853515625,0.697265625,-0.2763671875,-159.08536585365854,107.98780487804879,-275.9756097560976,145,6
180,2.48046875,0.73193359375,-0.31982421875,-162.43902439024393,113.71951219512196,-285.6707317073171,145,6
181,2.4169921875,0.66064453125,-0.39501953125,-165.4268292682927,118.41463414634147,-291.6463414634147,145,6
182,2.33642578125,0.63818359375,-0.52392578125,-162.13414634146343,121.28048780487806,-296.5853658536586,145,6
183,2.29931640625,0.64111328125,-0.474609375,-162.25609756097563,123.71951219512196,-298.2926829268293,145,6
184,2.27685546875,0.5546875,-0.5048828125,-166.76829268292684,130.3658536585366,-300.6707317073171,145,6
185,2.275390625,0.5302734375,-0.45068359375,-166.46341463414635,138.53658536585368,-304.20731707317077,145,6
186,2.31201171875,0.54833984375,-0.34716796875,-166.64634146341464,140.85365853658539,-307.07317073170736,145,6
187,2.318359375,0.60107421875,-0.29931640625,-167.9268292682927,144.26829268292684,-308.5975609756098,145,6
188,2.2451171875,0.3330078125,-0.21435546875,-163.0487804878049,144.81707317073173,-311.0365853658537,145,6
189,2.21875,0.25634765625,-0.14404296875,-153.47560975609758,141.82926829268294,-311.4634146341464,145,6
190,2.14208984375,0.18994140625,-0.10986328125,-144.26829268292684,138.35365853658539,-314.1463414634147,145,6
191,2.14501953125,0.14453125,-0.0087890625,-132.31707317073173,136.46341463414635,-317.7439024390244,145,6
192,2.1708984375,0.1591796875,0.02099609375,-121.40243902439025,131.89024390243904,-315.4878048780488,145,6
193,2.11376953125,0.06494140625,-0.0263671875,-117.6829268292683,133.35365853658539,-313.109756097561,145,6
194,2.01806640625,0.0029296875,-0.06103515625,-115.00000000000001,131.34146341463415,-309.20731707317077,145,6
195,1.91259765625,-0.0439453125,-0.11376953125,-108.71951219512196,128.53658536585368,-305.1219512195122,145,6
196,1.7939453125,-0.07763671875,-0.12841796875,-101.58536585365854,127.07317073170732,-303.2317073170732,145,6
197,1.73095703125,-0.07568359375,-0.138671875,-109.02439024390245,122.07317073170732,-300.4268292682927,145,6
198,1.64404296875,-0.08056640625,-0.234375,-85.85365853658537,119.69512195121952,-300.1829268292683,145,6
199,1.5693359375,-0.0517578125,-0.2421875,-79.02439024390245,117.01219512195122,-300.5487804878049,145,6
200,1.5126953125,-0.01806640625,-0.205078125,-72.25609756097562,113.41463414634147,-300.2439024390244,145,6
201,1.4404296875,-0.0234375,-0.13916015625,-67.43902439024392,124.63414634146342,-299.0853658536586,145,6
202,1.33349609375,-0.09033203125,-0.10986328125,-65.1219512195122,103.65853658536587,-294.75609756097566,145,6
203,1.19482421875,-0.18408203125,-0.0849609375,-60.365853658536594,100.54878048780489,-290.3658536585366,145,6
204,1.10986328125,-0.22314453125,-0.052734375,-53.10975609756098,96.21951219512196,-286.0365853658537,145,6
205,1.080078125,-0.24072265625,-0.0615234375,-45.487804878048784,90.73170731707317,-281.95121951219517,145,6
206,1.05322265625,-0.275390625,-0.025390625,-34.146341463414636,81.89024390243902,-275.9756097560976,145,6
207,1.03515625,-0.361328125,-0.00732421875,-18.170731707317074,75.54878048780489,-272.6829268292683,145,6
208,1.01123046875,-0.42578125,-0.18408203125,-4.2682926829268295,67.01219512195122,-273.2926829268293,145,6
209,0.99951171875,-0.34521484375,-0.228515625,2.439024390243903,57.01219512195122,-271.89024390243907,145,6
210,0.96630859375,-0.32568359375,-0.1806640625,3.9024390243902443,52.987804878048784,-270.6707317073171,145,6
211,0.98681640625,-0.369140625,-0.23388671875,-0.7317073170731708,50.91463414634147,-268.3536585365854,145,6
212,0.931640625,-0.45654296875,-0.267578125,-8.231707317073171,50.97560975609756,-261.219512195122,145,6
213,0.8037109375,-0.513671875,-0.22705078125,-0.24390243902439027,51.28048780487806,-264.75609756097566,145,6
214,0.5634765625,-0.8046875,-0.140625,-18.597560975609756,50.79268292682927,-234.69512195121953,145,6
215,0.392578125,-0.9951171875,-0.0361328125,-20.853658536585368,48.35365853658537,-216.64634146341464,145,6
216,0.15771484375,-1.23095703125,-0.064453125,-24.26829268292683,44.93902439024391,-198.2317073170732,145,6
217,-0.01904296875,-1.349609375,-0.052734375,-24.634146341463417,42.5609756097561,-177.9878048780488,145,6
218,-0.23193359375,-1.39892578125,-0.0771484375,-29.26829268292683,41.646341463414636,-160.7317073170732,145,6
219,-0.41259765625,-1.384765625,0.0498046875,-36.82926829268293,41.463414634146346,-144.69512195121953,145,6
220,-0.5576171875,-1.4248046875,0.16943359375,-45.73170731707317,42.25609756097561,-130.5487804878049,145,6
221,-0.67822265625,-1.48046875,0.2333984375,-50.73170731707317,43.29268292682927,-115.42682926829269,145,6
222,-0.83837890625,-1.5009765625,0.26025390625,-50.36585365853659,42.6219512195122,-97.43902439024392,145,6
223,-1.00390625,-1.7900390625,0.2626953125,-44.451219512195124,39.51219512195122,-79.51219512195122,145,6
224,-1.060546875,-1.83740234375,0.33984375,-30.000000000000004,35.54878048780488,-60.60975609756098,145,6
225,-1.029296875,-1.876953125,0.49755859375,-12.74390243902439,27.865853658536587,-37.5,145,6
226,-1.03173828125,-1.89892578125,0.353515625,6.2804878048780495,18.475609756097562,-12.865853658536587,145,6
227,-1.06884765625,-1.96533203125,0.3447265625,24.26829268292683,10.914634146341465,11.097560975609756,145,6
228,-1.01513671875,-1.91064453125,0.333984375,38.23170731707317,5.670731707317073,16.951219512195124,145,6
229,-0.9013671875,-1.80908203125,0.26318359375,42.5609756097561,3.1097560975609757,52.743902439024396,145,6
230,-0.83544921875,-1.69873046875,0.23193359375,36.40243902439025,6.585365853658537,70.85365853658537,145,6
231,-0.66552734375,-1.64306640625,0.27197265625,22.5609756097561,13.04878048780488,92.50000000000001,145,6
232,-0.47607421875,-1.72900390625,0.17529296875,13.231707317073171,15.853658536585368,117.92682926829269,145,6
233,-0.376953125,-1.92578125,0.087890625,16.402439024390244,13.536585365853659,125.42682926829269,145,6
234,-0.3017578125,-2.06396484375,0.03515625,30.54878048780488,8.475609756097562,163.35365853658539,145,6
235,-0.20458984375,-2.185546875,0.0283203125,51.524390243902445,0.7317073170731708,184.69512195121953,145,6
236,-0.02099609375,-2.19775390625,0.02197265625,69.87804878048782,-7.073170731707318,205.7926829268293,145,6
237,0.17919921875,-2.2373046875,-0.01171875,84.20731707317074,-11.646341463414634,229.20731707317074,145,6
238,0.2958984375,-2.294921875,-0.11474609375,91.28048780487806,-19.573170731707318,255.7317073170732,145,6
239,0.43017578125,-2.369140625,-0.30029296875,95.00000000000001,-28.10975609756098,267.5609756097561,145,6
240,0.5791015625,-2.49755859375,-0.39794921875,98.84146341463415,-30.426829268292686,297.6219512195122,145,6
241,0.62548828125,-2.69482421875,-0.466796875,103.35365853658537,-36.03658536585366,329.87804878048786,145,6
242,0.98193359375,-2.90283203125,-0.58349609375,113.59756097560977,-43.78048780487805,378.5975609756098,145,6
243,1.2451171875,-3.12255859375,-0.61181640625,131.64634146341464,-48.71951219512196,412.31707317073176,145,6
244,1.5849609375,-3.33203125,-0.53759765625,140.91463414634148,-46.768292682926834,446.5243902439025,145,6
245,2.0830078125,-3.49169921875,-0.68798828125,146.76829268292684,-52.07317073170732,468.4756097560976,145,6
246,2.5830078125,-3.64501953125,-0.9462890625,166.64634146341464,-67.07317073170732,524.3902439024391,145,6
247,3.05078125,-4.05615234375,-1.28125,196.46341463414635,-63.23170731707317,547.9878048780488,145,6
248,3.87158203125,-4.1435546875,-1.71826171875,232.19512195121953,-96.34146341463415,602.6829268292684,145,6
249,4.83154296875,-4.42138671875,-2.08251953125,271.4634146341464,-102.07317073170732,643.7804878048781,145,6
250,5.7265625,-4.6279296875,-2.27978515625,316.5853658536586,-104.02439024390245,678.5365853658537,145,6
251,6.35986328125,-4.9033203125,-2.43798828125,344.63414634146346,-105.48780487804879,717.1341463414635,145,6
252,7.0830078125,-5.06103515625,-2.56787109375,419.51219512195127,-101.03658536585367,762.8658536585367,145,6
253,7.5869140625,-5.07568359375,-2.70849609375,476.89024390243907,-96.52439024390245,808.109756097561,145,6
254,8.38818359375,-4.8984375,-3.54541015625,526.7682926829269,-93.96341463414635,855.548780487805,145,6
255,9.43212890625,-4.5595703125,-4.466796875,590.1219512195122,-139.02439024390245,875.9756097560976,145,6
256,10.93994140625,-3.97509765625,-5.47705078125,644.5121951219513,-174.75609756097563,913.048780487805,145,6
257,12.18212890625,-3.45068359375,-6.90625,685.7926829268293,-186.95121951219514,914.4512195121952,145,6
258,12.81689453125,-2.2724609375,-8.40673828125,739.0243902439025,-132.4390243902439,890.1829268292684,145,6
259,12.876953125,-0.18994140625,-9.25146484375,726.6463414634147,-39.207317073170735,851.0975609756098,145,6
260,12.8818359375,1.72607421875,-9.20458984375,744.5731707317074,-32.5609756097561,838.9024390243903,145,6
261,11.23779296875,1.92041015625,-8.54345703125,816.6463414634147,-116.70731707317074,815.1219512195123,145,6
262,9.8115234375,1.6259765625,-7.69287109375,962.9268292682927,-256.4024390243903,762.9268292682927,145,6
263,7.6484375,0.70458984375,-6.7578125,1152.8658536585367,-428.7804878048781,699.7560975609757,145,6
264,5.9326171875,-0.787109375,-5.236328125,1406.768292682927,-643.109756097561,605.4878048780488,145,6
265,4.400390625,-2.291015625,-10.625,1389.2073170731708,-652.6219512195122,597.9268292682927,145,6
266,15.99951171875,3.423828125,-3.12939453125,1237.9878048780488,-486.0975609756098,213.65853658536588,145,6
267,-1.23193359375,-8.47412109375,-8.20556640625,1172.5,-792.0121951219513,40.1219512195122,145,6
268,8.10595703125,1.4814453125,-4.14501953125,1022.0121951219513,-97.50000000000001,-260.1829268292683,145,6
269,11.92724609375,4.1826171875,-1.14990234375,1127.378048780488,-270.7317073170732,-201.46341463414635,145,6
270,3.61083984375,-1.3271484375,-2.0078125,1024.329268292683,-207.25609756097563,-396.4634146341464,145,6
271,5.666015625,-0.3369140625,0.6962890625,870.3048780487806,-77.19512195121952,-420.6707317073171,145,6
272,4.001953125,-2.123046875,0.7353515625,877.9878048780489,-106.89024390243904,-519.6951219512196,145,6
273,5.3427734375,-2.744140625,-1.31689453125,733.3536585365854,-57.19512195121952,-642.8048780487806,145,6
274,5.24267578125,-2.62158203125,-1.99267578125,616.4024390243903,-20.0,-740.9756097560976,145,6
275,4.8798828125,-2.7314453125,-2.603515625,460.6707317073171,29.512195121951223,-820.6707317073171,145,6
276,4.5537109375,-2.32568359375,-2.37890625,339.26829268292687,96.70731707317074,-852.2560975609757,145,6
277,3.9716796875,-2.6064453125,-2.63232421875,226.21951219512198,173.65853658536588,-879.3902439024391,145,6
278,3.45654296875,-2.59033203125,-3.21044921875,152.9268292682927,254.57317073170734,-892.1341463414635,145,6
279,2.81298828125,-2.60693359375,-3.287109375,91.64634146341464,300.3048780487805,-885.548780487805,145,6
280,2.419921875,-2.15380859375,-2.919921875,47.31707317073171,370.5487804878049,-859.939024390244,145,6
281,2.42236328125,-2.0869140625,-2.46240234375,20.365853658536587,422.9268292682927,-827.439024390244,145,6
282,2.44873046875,-2.119140625,-1.94580078125,-19.451219512195124,508.2317073170732,-784.329268292683,145,6
283,2.38330078125,-2.0654296875,-1.74267578125,-51.768292682926834,555.9146341463415,-733.9024390243903,145,6
284,2.271484375,-1.91015625,-1.95263671875,-65.85365853658537,575.0,-673.5975609756098,145,6
285,2.25537109375,-1.6943359375,-2.2373046875,-75.1829268292683,570.1829268292684,-620.0609756097562,145,6
286,2.2568359375,-1.4580078125,-2.455078125,-86.95121951219512,546.5853658536586,-589.329268292683,145,6
287,2.201171875,-1.443359375,-2.3193359375,-98.78048780487806,517.9268292682927,-535.3658536585366,145,6
288,2.07080078125,-1.5087890625,-2.15283203125,-121.95121951219514,499.0853658536586,-505.60975609756105,145,6
289,1.88037109375,-1.57275390625,-1.96142578125,-141.34146341463415,468.1707317073171,-477.25609756097566,145,6
290,1.951171875,-1.46435546875,-1.90771484375,-194.02439024390245,430.9756097560976,-446.5853658536586,145,6
291,1.79150390625,-1.3505859375,-1.76708984375,-217.68292682926833,416.76829268292687,-416.5853658536586,145,6
292,1.4619140625,-1.23193359375,-1.87451171875,-240.7317073170732,406.4634146341464,-394.20731707317077,145,6
293,1.1865234375,-1.11083984375,-1.84912109375,-249.93902439024393,395.24390243902445,-375.2439024390244,145,6
294,0.9423828125,-0.9443359375,-1.8603515625,-242.31707317073173,379.81707317073176,-354.51219512195127,145,6
295,0.716796875,-0.89208984375,-1.78515625,-230.06097560975613,372.6829268292683,-339.26829268292687,145,6
296,0.64599609375,-0.76708984375,-1.69384765625,-226.89024390243904,334.51219512195127,-331.5853658536586,145,6
297,0.734375,-0.470703125,-1.5595703125,-236.46341463414637,317.5,-343.1707317073171,145,6
298,0.720703125,-0.27783203125,-1.5078125,-241.70731707317074,296.95121951219517,-314.0853658536586,145,6
299,0.7421875,-0.5380859375,-1.45068359375,-251.46341463414637,284.51219512195127,-294.32926829268297,145,6
300,0.47998046875,-0.60693359375,-1.39208984375,-287.13414634146346,274.51219512195127,-268.6585365853659,145,6
301,0.16748046875,-0.64990234375,-1.310546875,-298.6585365853659,272.9268292682927,-242.9878048780488,145,6
302,-0.103515625,-0.82080078125,-1.2890625,-328.8414634146342,272.4390243902439,-220.6707317073171,145,6
303,-0.13916015625,-0.69140625,-1.15576171875,-316.6463414634147,263.109756097561,-204.81707317073173,145,6
304,-0.27001953125,-0.5009765625,-1.0732421875,-307.7439024390244,258.719512195122,-189.93902439024393,145,6
305,-0.34423828125,-0.5986328125,-1.29150390625,-301.4024390243903,247.07317073170734,-178.41463414634148,145,6
306,-0.3642578125,-0.48046875,-1.3525390625,-283.0487804878049,241.09756097560978,-156.70731707317074,145,6
307,-0.701171875,-0.71728515625,-1.080078125,-270.8536585365854,226.58536585365854,-134.32926829268294,145,6
308,-1.0498046875,-0.92529296875,-1.0693359375,-244.14634146341464,208.2926829268293,-120.00000000000001,145,6
309,-1.18798828125,-0.943359375,-0.9716796875,-214.08536585365854,191.52439024390245,-117.7439024390244,145,6
310,-1.07275390625,-0.765625,-0.88427734375,-201.52439024390245,173.71951219512198,-116.89024390243904,145,6
311,-0.9599609375,-0.52685546875,-0.99169921875,-199.69512195121953,157.25609756097563,-124.14634146341464,145,6
312,-0.8720703125,-0.318359375,-1.009765625,-198.90243902439025,149.20731707317074,-90.42682926829269,145,6
313,-0.76611328125,-0.27880859375,-1.0390625,-196.64634146341464,136.82926829268294,-73.65853658536587,145,6
314,-0.9248046875,-0.3154296875,-1.0703125,-190.609756097561,122.37804878048782,-62.50000000000001,145,6
315,-1.06201171875,-0.36376953125,-1.08642578125,-188.59756097560978,104.75609756097562,-56.951219512195124,145,6
316,-1.0966796875,-0.34912109375,-1.119140625,-175.2439024390244,83.71951219512196,-49.81707317073171,145,6
317,-1.2119140625,-0.4169921875,-0.9755859375,-171.46341463414635,63.78048780487806,-45.97560975609756,145,6
318,-1.3212890625,-0.515625,-0.9658203125,-145.0609756097561,61.768292682926834,-44.51219512195122,145,6
319,-1.30078125,-0.48779296875,-0.94677734375,-135.7317073170732,35.97560975609756,-36.463414634146346,145,6
320,-1.4013671875,-0.4677734375,-0.8779296875,-132.01219512195124,22.378048780487806,-26.402439024390247,145,6
321,-1.4296875,-0.41015625,-0.95263671875,-124.93902439024392,9.817073170731708,-17.439024390243905,145,6
322,-1.41357421875,-0.37158203125,-0.98876953125,-115.42682926829269,-2.073170731707317,-12.439024390243903,145,6
323,-1.35498046875,-0.26171875,-0.9384765625,-105.42682926829269,-0.7317073170731708,-7.743902439024391,145,6
324,-1.26123046875,-0.29052734375,-0.904296875,-93.71951219512196,-27.682926829268297,-2.073170731707317,145,6
325,-1.1953125,-0.3046875,-0.89111328125,-83.59756097560977,-41.03658536585366,2.9268292682926833,145,6
326,-1.1025390625,-0.2685546875,-0.865234375,-67.6219512195122,-50.91463414634147,6.707317073170732,145,6
327,-1.05224609375,-0.21533203125,-0.79833984375,-55.00000000000001,-61.09756097560976,10.426829268292684,145,6
328,-1.0546875,-0.201171875,-0.71435546875,-46.03658536585366,-67.37804878048782,14.939024390243905,145,6
329,-1.07275390625,-0.22412109375,-0.6484375,-38.71951219512196,-72.07317073170732,17.98780487804878,145,6
330,-1.0830078125,-0.2138671875,-0.58935546875,-31.402439024390247,-77.5609756097561,20.914634146341466,145,6
331,-1.07568359375,-0.20458984375,-0.53662109375,-24.81707317073171,-85.1829268292683,23.658536585365855,145,6
332,-1.06884765625,-0.17626953125,-0.505859375,-17.25609756097561,-89.69512195121952,25.182926829268293,145,6
333,-1.07177734375,-0.166015625,-0.46923828125,-8.719512195121952,-94.63414634146342,26.82926829268293,145,6
334,-1.083984375,-0.1279296875,-0.45263671875,1.524390243902439,-100.06097560975611,27.500000000000004,145,6
335,-1.052734375,-0.08740234375,-0.431640625,11.951219512195124,-105.73170731707317,27.926829268292686,145,6
336,-1.04541015625,-0.09130859375,-0.35546875,22.012195121951223,-110.1829268292683,28.780487804878053,145,6
337,-1.0478515625,-0.09375,-0.30029296875,32.01219512195122,-113.59756097560977,29.87804878048781,145,6
338,-1.04345703125,-0.08984375,-0.23046875,39.451219512195124,-114.45121951219514,30.365853658536587,145,6
339,-1.02880859375,-0.08349609375,-0.2138671875,44.81707317073171,-116.03658536585367,30.0609756097561,145,6
340,-0.99462890625,-0.0244140625,-0.2109375,50.97560975609756,-116.82926829268294,30.182926829268297,145,6
341,-0.96484375,0.00732421875,-0.17333984375,55.1829268292683,-116.15853658536587,30.975609756097565,145,6
342,-0.9443359375,0.04345703125,-0.1513671875,57.50000000000001,-117.07317073170732,30.853658536585368,145,6
343,-0.9375,0.07958984375,-0.12939453125,61.89024390243903,-118.59756097560977,30.487804878048784,145,6
344,-0.96044921875,0.0947265625,-0.10693359375,67.19512195121952,-122.13414634146342,30.54878048780488,145,6
345,-0.98828125,0.08837890625,-0.0908203125,72.25609756097562,-125.42682926829269,29.939024390243905,145,6
346,-1.029296875,0.06005859375,-0.0693359375,76.82926829268294,-128.2926829268293,28.658536585365855,145,6
347,-1.04345703125,0.06396484375,-0.03125,81.34146341463415,-134.26829268292684,29.87804878048781,145,6
348,-1.04443359375,0.0576171875,-0.02001953125,85.42682926829269,-136.46341463414635,31.03658536585366,145,6
349,-1.03125,0.0634765625,0.01611328125,87.8658536585366,-139.08536585365854,32.86585365853659,145,6
350,-1.001953125,0.05517578125,0.04345703125,91.95121951219512,-141.58536585365854,34.57317073170732,145,6
351,-0.98291015625,0.06689453125,0.05908203125,93.04878048780489,-145.0,35.426829268292686,145,6
352,-0.9501953125,0.0986328125,0.07421875,94.26829268292684,-148.53658536585368,37.31707317073171,145,6
353,-0.92822265625,0.09326171875,0.123046875,95.79268292682927,-151.76829268292684,37.07317073170732,145,6
354,-0.91650390625,0.111328125,0.17626953125,97.8658536585366,-154.39024390243904,37.86585365853659,145,6
355,-0.89697265625,0.1162109375,0.12890625,98.71951219512196,-156.28048780487805,40.487804878048784,145,6
356,-0.9951171875,0.15625,0.2666015625,97.8658536585366,-157.5609756097561,41.951219512195124,145,6
357,-0.83740234375,0.19384765625,0.30322265625,95.0609756097561,-159.81707317073173,43.04878048780488,145,6
358,-0.79052734375,0.23876953125,0.263671875,94.87804878048782,-162.8048780487805,43.47560975609756,145,6
359,-0.76025390625,0.12646484375,0.30859375,94.51219512195122,-165.1829268292683,44.451219512195124,145,6
360,-0.845703125,0.2392578125,0.34228515625,93.96341463414635,-168.1707317073171,43.90243902439025,145,6
361,-0.72802734375,0.21240234375,0.3994140625,94.69512195121952,-169.81707317073173,43.90243902439025,145,6
362,-0.71435546875,0.18994140625,0.44384765625,98.10975609756099,-172.25609756097563,44.390243902439025,145,6
363,-0.71826171875,0.171875,0.46435546875,100.06097560975611,-171.03658536585368,43.23170731707317,145,6
364,-0.6787109375,0.16943359375,0.47412109375,101.28048780487806,-169.93902439024393,43.35365853658537,145,6
365,-0.65234375,0.1953125,0.3857421875,101.15853658536587,-168.90243902439025,43.59756097560976,145,6
366,-0.6318359375,0.224609375,0.55126953125,100.1829268292683,-168.78048780487805,43.29268292682927,145,6
367,-0.61376953125,0.26708984375,0.58251953125,96.58536585365854,-166.52439024390245,42.31707317073171,145,6
368,-0.6005859375,0.28369140625,0.5693359375,90.67073170731707,-163.35365853658539,41.28048780487805,145,6
369,-0.5869140625,0.28076171875,0.587890625,85.48780487804879,-160.91463414634148,41.03658536585366,145,6
370,-0.59716796875,0.27880859375,0.5966796875,83.23170731707317,-160.0,41.768292682926834,145,6
371,-0.5888671875,0.2822265625,0.59912109375,83.41463414634147,-162.6219512195122,42.5609756097561,145,6
372,-0.58447265625,0.2587890625,0.60205078125,86.15853658536587,-166.70731707317074,43.04878048780488,145,6
373,-0.58203125,0.2333984375,0.60595703125,89.63414634146342,-169.02439024390245,43.23170731707317,145,6
374,-0.552734375,0.21826171875,0.6015625,90.60975609756099,-168.53658536585368,42.743902439024396,145,6
375,-0.625,0.23974609375,0.5927734375,87.8658536585366,-166.15853658536588,42.926829268292686,145,6
376,-0.4541015625,0.265625,0.6201171875,83.96341463414635,-163.1707317073171,43.59756097560976,145,6
377,-0.400390625,0.28125,0.66162109375,81.09756097560977,-160.3048780487805,44.57317073170732,145,6
378,-0.35693359375,0.322265625,0.70263671875,93.29268292682927,-157.5,44.390243902439025,145,6
379,-0.30419921875,0.33740234375,0.7177734375,74.81707317073172,-154.75609756097563,44.390243902439025,145,6
380,-0.2802734375,0.3486328125,0.712890625,72.31707317073172,-152.5609756097561,43.65853658536586,145,6
381,-0.2626953125,0.35498046875,0.69189453125,70.73170731707317,-151.64634146341464,42.926829268292686,145,6
382,-0.25,0.376953125,0.69775390625,69.32926829268293,-150.7926829268293,41.646341463414636,145,6
383,-0.25732421875,0.38818359375,0.71533203125,64.57317073170732,-147.5609756097561,39.81707317073171,145,6
384,-0.232421875,0.4130859375,0.7294921875,59.81707317073171,-145.4878048780488,40.1829268292683,145,6
385,-0.24169921875,0.3662109375,0.76513671875,57.43902439024391,-144.9390243902439,41.03658536585366,145,6
386,-0.25732421875,0.328125,0.8125,58.04878048780488,-144.87804878048783,41.21951219512196,145,6
387,-0.24853515625,0.31494140625,0.84130859375,61.34146341463415,-145.3658536585366,41.15853658536586,145,6
388,-0.2412109375,0.31103515625,0.8369140625,62.31707317073171,-144.32926829268294,40.426829268292686,145,6
389,-0.21337890625,0.31982421875,0.8349609375,60.79268292682927,-141.64634146341464,39.87804878048781,145,6
390,-0.1796875,0.34716796875,0.84228515625,57.560975609756106,-138.65853658536585,39.63414634146342,145,6
391,-0.14697265625,0.37109375,0.81787109375,54.93902439024391,-137.4390243902439,39.63414634146342,145,6
392,-0.14794921875,0.36279296875,0.8037109375,53.47560975609757,-137.6219512195122,39.87804878048781,145,6
393,-0.1494140625,0.37158203125,0.83056640625,53.963414634146346,-138.78048780487805,40.85365853658537,145,6
394,-0.17138671875,0.36572265625,0.82666015625,55.73170731707317,-139.9390243902439,42.37804878048781,145,6
395,-0.17626953125,0.357421875,0.81689453125,57.31707317073171,-139.9390243902439,43.71951219512196,145,6
396,-0.16015625,0.37451171875,0.818359375,57.43902439024391,-139.63414634146343,44.81707317073171,145,6
397,-0.1572265625,0.390625,0.82861328125,52.19512195121952,-137.31707317073173,46.28048780487805,145,6
398,-0.14794921875,0.41357421875,0.84130859375,45.243902439024396,-135.4878048780488,48.04878048780488,145,6
399,-0.15380859375,0.4267578125,0.88330078125,38.04878048780488,-131.95121951219514,47.926829268292686,145,6
400,-0.130859375,0.4365234375,0.89697265625,33.71951219512196,-130.4268292682927,48.65853658536586,145,6
401,-0.11083984375,0.4619140625,0.8857421875,32.19512195121951,-129.75609756097563,49.69512195121952,145,6
402,-0.103515625,0.4345703125,0.89697265625,30.792682926829272,-128.1707317073171,51.21951219512196,145,6
403,-0.09228515625,0.4169921875,0.89697265625,30.487804878048784,-127.37804878048782,53.35365853658537,145,6
404,-0.0810546875,0.41748046875,0.994140625,32.6829268292683,-127.13414634146342,55.73170731707317,145,6
405,-0.04150390625,0.42431640625,0.85107421875,36.890243902439025,-128.0487804878049,57.31707317073171,145,6
406,-0.0068359375,0.439453125,0.8154296875,42.19512195121951,-132.4390243902439,59.51219512195122,145,6
407,0.0,0.44091796875,0.8408203125,44.87804878048781,-131.58536585365854,59.69512195121952,145,6
408,0.01220703125,0.46630859375,0.8515625,40.1829268292683,-127.31707317073172,59.024390243902445,145,6
409,0.06005859375,0.52685546875,0.857421875,34.63414634146342,-123.90243902439026,58.71951219512196,145,6
410,0.08740234375,0.560546875,0.890625,28.719512195121954,-121.09756097560977,57.31707317073171,145,6
411,0.11083984375,0.580078125,0.89501953125,25.30487804878049,-120.1829268292683,57.19512195121952,145,6
412,0.109375,0.5693359375,0.90185546875,23.29268292682927,-118.84146341463416,55.85365853658537,145,6
413,0.1015625,0.55615234375,0.9033203125,22.012195121951223,-118.10975609756099,55.54878048780488,145,6
414,0.09033203125,0.56787109375,0.908203125,21.402439024390247,-117.43902439024392,55.1219512195122,145,6
415,0.111328125,0.5751953125,0.90087890625,21.890243902439025,-117.62195121951221,55.54878048780488,145,6
416,0.11083984375,0.56591796875,0.88232421875,23.658536585365855,-118.53658536585367,56.34146341463415,145,6
417,0.1357421875,0.5546875,0.8544921875,26.28048780487805,-119.87804878048782,57.25609756097561,145,6
418,0.1396484375,0.5244140625,0.75048828125,29.512195121951223,-120.73170731707319,57.987804878048784,145,6
419,0.134765625,0.5,0.90478515625,31.951219512195124,-119.39024390243904,58.10975609756098,145,6
420,0.17431640625,0.5078125,0.880859375,30.670731707317074,-115.1829268292683,57.19512195121952,145,6
421,0.2275390625,0.56103515625,0.8662109375,27.31707317073171,-110.60975609756099,56.34146341463415,145,6
422,0.25146484375,0.56787109375,0.822265625,18.597560975609756,-104.32926829268294,55.91463414634147,145,6
423,0.27685546875,0.6064453125,0.796875,12.500000000000002,-101.09756097560977,55.0609756097561,145,6
424,0.2587890625,0.5849609375,0.8037109375,9.51219512195122,-98.47560975609757,53.78048780487806,145,6
425,0.24267578125,0.59326171875,0.8310546875,9.817073170731708,-97.8658536585366,53.47560975609757,145,6
426,0.24609375,0.587890625,0.82080078125,11.646341463414634,-99.14634146341464,54.32926829268293,145,6
427,0.2353515625,0.56396484375,0.8076171875,14.02439024390244,-100.67073170731709,55.426829268292686,145,6
428,0.21826171875,0.52685546875,0.814453125,18.902439024390244,-104.20731707317074,57.07317073170732,145,6
429,0.21484375,0.4755859375,0.8037109375,25.54878048780488,-106.46341463414635,57.13414634146342,145,6
430,0.23291015625,0.47900390625,0.84375,32.13414634146342,-107.8658536585366,56.82926829268293,145,6
431,0.23828125,0.46533203125,0.859375,34.51219512195122,-105.00000000000001,57.07317073170732,145,6
432,0.2490234375,0.48095703125,0.89599609375,32.25609756097561,-97.43902439024392,56.524390243902445,145,6
433,0.28076171875,0.5302734375,0.84716796875,26.89024390243903,-91.09756097560977,57.987804878048784,145,6
434,0.31396484375,0.5693359375,0.7841796875,23.78048780487805,-87.07317073170732,56.951219512195124,145,6
435,0.3701171875,0.5595703125,0.72119140625,22.439024390243905,-86.28048780487805,56.524390243902445,145,6
436,0.39501953125,0.55126953125,0.64306640625,23.29268292682927,-87.25609756097562,56.524390243902445,145,6
437,0.38037109375,0.5849609375,0.73291015625,25.670731707317074,-90.3048780487805,56.09756097560976,145,6
438,0.41650390625,0.55029296875,0.60302734375,29.695121951219516,-94.63414634146342,56.40243902439025,145,6
439,0.39404296875,0.53076171875,0.6103515625,34.93902439024391,-99.14634146341464,56.40243902439025,145,6
440,0.38818359375,0.50048828125,0.626953125,38.53658536585366,-101.21951219512196,56.82926829268293,145,6
441,0.3486328125,0.466796875,0.64794921875,33.84146341463415,-95.3658536585366,54.81707317073171,145,6
442,0.39794921875,0.5,0.6640625,22.80487804878049,-87.6219512195122,52.6219512195122,145,6
443,0.44287109375,0.54345703125,0.705078125,13.719512195121952,-82.25609756097562,52.43902439024391,145,6
444,0.4423828125,0.52783203125,0.71533203125,6.890243902439025,-77.13414634146342,51.03658536585366,145,6
445,0.45654296875,0.51025390625,0.67578125,3.9024390243902443,-74.26829268292684,49.51219512195122,145,6
446,0.46142578125,0.48291015625,0.6337890625,4.085365853658537,-74.75609756097562,48.47560975609756,145,6
447,0.4560546875,0.4775390625,0.60107421875,6.7682926829268295,-76.70731707317074,47.5609756097561,145,6
448,0.4580078125,0.4482421875,0.5537109375,10.182926829268293,-76.95121951219512,46.646341463414636,145,6
449,0.4677734375,0.44775390625,0.5537109375,11.52439024390244,-76.70731707317074,46.34146341463415,145,6
450,0.44873046875,0.45068359375,0.541015625,10.975609756097562,-75.1829268292683,46.58536585365854,145,6
451,0.44873046875,0.46484375,0.521484375,7.317073170731708,-72.13414634146342,46.58536585365854,145,6
452,0.46728515625,0.48046875,0.521484375,1.8902439024390245,-67.07317073170732,46.15853658536586,145,6
453,0.48583984375,0.5107421875,0.53759765625,-2.25609756097561,-63.41463414634147,46.15853658536586,145,6
454,0.50634765625,0.52099609375,0.57470703125,-5.060975609756098,-59.451219512195124,45.91463414634147,145,6
455,0.513671875,0.51025390625,0.60009765625,-6.585365853658537,-55.97560975609757,45.243902439024396,145,6
456,0.51513671875,0.490234375,0.6103515625,-6.097560975609756,-53.10975609756098,44.268292682926834,145,6
457,0.5224609375,0.48974609375,0.5869140625,-3.963414634146342,-51.585365853658544,42.86585365853659,145,6
458,0.5263671875,0.47021484375,0.59228515625,-1.4634146341463417,-49.93902439024391,41.58536585365854,145,6
459,0.517578125,0.451171875,0.54248046875,-0.06097560975609757,-48.35365853658537,40.670731707317074,145,6
460,0.521484375,0.44775390625,0.51220703125,-0.24390243902439027,-45.79268292682927,39.32926829268293,145,6
461,0.521484375,0.45849609375,0.51123046875,0.1829268292682927,-43.78048780487805,37.926829268292686,145,6
462,0.5439453125,0.47314453125,0.5009765625,15.487804878048783,-42.50000000000001,37.19512195121951,145,6
463,0.55859375,0.46923828125,0.5078125,-1.2195121951219514,-40.79268292682927,36.34146341463415,145,6
464,0.56884765625,0.46484375,0.501953125,-2.6219512195121952,-39.57317073170732,35.30487804878049,145,6
465,0.57470703125,0.45458984375,0.50146484375,-3.8414634146341466,-38.65853658536586,34.268292682926834,145,6
466,0.57568359375,0.4619140625,0.51416015625,-5.487804878048781,-38.23170731707317,32.6219512195122,145,6
467,0.5751953125,0.45166015625,0.505859375,-7.621951219512196,-37.07317073170732,31.52439024390244,145,6
468,0.56689453125,0.43505859375,0.50341796875,-10.24390243902439,-35.487804878048784,30.487804878048784,145,6
469,0.56982421875,0.43701171875,0.50830078125,-12.073170731707318,-34.75609756097561,29.87804878048781,145,6
470,0.56689453125,0.41162109375,0.52880859375,-13.231707317073171,-34.207317073170735,29.26829268292683,145,6
471,0.5654296875,0.38623046875,0.55126953125,-12.073170731707318,-34.207317073170735,28.475609756097562,145,6
472,0.5546875,0.35986328125,0.576171875,-9.02439024390244,-33.65853658536586,27.5609756097561,145,6
473,0.55419921875,0.3359375,0.56396484375,-6.463414634146342,-32.80487804878049,25.792682926829272,145,6
474,0.55859375,0.337890625,0.53662109375,-3.9024390243902443,-31.463414634146343,24.146341463414636,145,6
475,0.5849609375,0.3564453125,0.49658203125,-2.0121951219512195,-30.365853658536587,22.439024390243905,145,6
476,0.6201171875,0.361328125,0.46435546875,-2.9268292682926833,-27.439024390243905,20.914634146341466,145,6
477,0.62451171875,0.36083984375,0.4287109375,-5.975609756097562,-23.78048780487805,19.26829268292683,145,6
478,0.6259765625,0.37451171875,0.41943359375,-8.963414634146343,-19.939024390243905,17.865853658536587,145,6
479,0.62939453125,0.37939453125,0.4228515625,-11.219512195121952,-16.951219512195124,16.70731707317073,145,6
480,0.62255859375,0.3837890625,0.4404296875,-12.682926829268293,-13.963414634146343,16.03658536585366,145,6
481,0.60546875,0.3740234375,0.4443359375,-12.987804878048781,-12.134146341463415,31.158536585365855,145,6
482,0.58544921875,0.3525390625,0.453125,-11.463414634146343,-11.76829268292683,14.817073170731708,145,6
483,0.57275390625,0.32177734375,0.43798828125,-9.51219512195122,-10.670731707317074,14.207317073170733,145,6
484,0.5546875,0.31982421875,0.4453125,-7.8048780487804885,-9.634146341463415,13.231707317073171,145,6
485,0.55126953125,0.31787109375,0.43896484375,-6.890243902439025,-8.109756097560977,12.500000000000002,145,6
486,0.54736328125,0.3212890625,0.43896484375,-7.01219512195122,-5.731707317073171,12.073170731707318,145,6
487,0.56298828125,0.333984375,0.4326171875,-7.865853658536586,-2.804878048780488,11.219512195121952,145,6
488,0.57666015625,0.349609375,0.44775390625,-8.170731707317074,-0.7317073170731708,10.792682926829269,145,6
489,0.57470703125,0.337890625,0.44873046875,-7.743902439024391,2.1341463414634148,9.939024390243903,145,6
490,0.5908203125,0.33984375,0.4609375,-6.829268292682928,4.75609756097561,9.146341463414634,145,6
491,0.58837890625,0.349609375,0.44775390625,-5.3048780487804885,4.085365853658537,8.109756097560977,145,6
492,0.580078125,0.32373046875,0.3759765625,-3.353658536585366,2.682926829268293,6.402439024390245,145,6
493,0.5673828125,0.31005859375,0.3251953125,-1.707317073170732,2.682926829268293,4.451219512195122,145,6
494,0.5888671875,0.326171875,0.32861328125,-0.9146341463414634,3.414634146341464,2.5609756097560976,145,6
495,0.50048828125,0.3701171875,0.3447265625,-2.682926829268293,4.695121951219512,1.2195121951219514,145,6
496,0.6279296875,0.36181640625,0.3681640625,-5.121951219512195,6.463414634146342,0.12195121951219513,145,6
497,0.5986328125,0.32568359375,0.259765625,-6.2804878048780495,7.621951219512196,-0.3658536585365854,145,6
498,0.5546875,0.30078125,0.37158203125,-5.853658536585367,7.25609756097561,-1.524390243902439,145,6
499,0.55517578125,0.29248046875,0.36865234375,-4.51219512195122,6.7682926829268295,-2.5,145,6
