,Ax,Ay,Az,Gx,Gy,Gz,distance,shot_type
0,0.74365234375,-0.42529296875,-0.35693359375,3.536585365853659,21.890243902439025,-6.52439024390244,130,7
1,0.7412109375,-0.47509765625,-0.34716796875,2.5609756097560976,21.82926829268293,-5.914634146341464,130,7
2,0.7255859375,-0.51171875,-0.33203125,1.3414634146341464,22.5609756097561,-5.670731707317073,130,7
3,0.7060546875,-0.5478515625,-0.32177734375,1.707317073170732,20.731707317073173,-5.182926829268293,130,7
4,0.66845703125,-0.59765625,-0.33984375,4.939024390243903,16.28048780487805,-4.390243902439025,130,7
5,0.6494140625,-0.61767578125,-0.25537109375,8.414634146341465,12.317073170731708,-3.536585365853659,130,7
6,0.74169921875,-0.66748046875,-0.39794921875,10.548780487804878,9.634146341463415,-1.9512195121951221,130,7
7,0.5986328125,-0.701171875,-0.42041015625,13.475609756097562,7.134146341463415,-0.853658536585366,130,7
8,0.60205078125,-0.7265625,-0.45361328125,0.0,4.878048780487806,0.30487804878048785,130,7
9,0.5791015625,-0.72412109375,-0.49462890625,16.28048780487805,3.2926829268292686,1.7682926829268295,130,7
10,0.5615234375,-0.734375,-0.490234375,13.963414634146343,3.353658536585366,4.024390243902439,130,7
11,0.54150390625,-0.7041015625,-0.478515625,10.121951219512196,4.146341463414634,6.2804878048780495,130,7
12,0.5322265625,-0.669921875,-0.47705078125,6.585365853658537,4.329268292682928,7.621951219512196,130,7
13,0.5439453125,-0.62939453125,-0.44775390625,3.5975609756097566,4.451219512195122,8.597560975609756,130,7
14,0.55712890625,-0.59521484375,-0.44580078125,0.30487804878048785,3.8414634146341466,8.719512195121952,130,7
15,0.56494140625,-0.55810546875,-0.42578125,-2.1341463414634148,2.987804878048781,8.292682926829269,130,7
16,0.59130859375,-0.51220703125,-0.40771484375,-3.536585365853659,1.829268292682927,7.317073170731708,130,7
17,0.6025390625,-0.49560546875,-0.39208984375,-2.9268292682926833,-0.48780487804878053,6.463414634146342,130,7
18,0.59814453125,-0.51123046875,-0.37939453125,-15.182926829268293,-3.780487804878049,5.365853658536586,130,7
19,0.603515625,-0.51171875,-0.36083984375,5.670731707317073,-6.52439024390244,3.658536585365854,130,7
20,0.6513671875,-0.45703125,-0.3544921875,10.0,-7.439024390243903,2.5609756097560976,130,7
21,0.689453125,-0.39404296875,-0.34521484375,11.341463414634147,-6.890243902439025,1.402439024390244,130,7
22,0.72119140625,-0.33642578125,-0.3388671875,10.548780487804878,-3.780487804878049,0.426829268292683,130,7
23,0.73974609375,-0.3017578125,-0.318359375,9.207317073170733,-1.4634146341463417,0.1829268292682927,130,7
24,0.7294921875,-0.2978515625,-0.3193359375,8.231707317073171,0.7926829268292683,0.06097560975609757,130,7
25,0.72216796875,-0.306640625,-0.31982421875,6.2804878048780495,3.353658536585366,-0.06097560975609757,130,7
26,0.724609375,-0.314453125,-0.31884765625,3.9024390243902443,6.52439024390244,0.12195121951219513,130,7
27,0.74609375,-0.31298828125,-0.32666015625,1.3414634146341464,8.536585365853659,0.6707317073170732,130,7
28,0.7578125,-0.3544921875,-0.328125,-0.426829268292683,9.878048780487806,1.0365853658536586,130,7
29,0.62548828125,-0.3779296875,-0.294921875,-2.3170731707317076,10.975609756097562,2.0121951219512195,130,7
30,0.72412109375,-0.4384765625,-0.27001953125,-4.878048780487806,12.560975609756099,3.1097560975609757,130,7
31,0.6953125,-0.47119140625,-0.25439453125,-3.414634146341464,11.28048780487805,3.414634146341464,130,7
32,0.689453125,-0.38037109375,-0.3740234375,0.426829268292683,9.085365853658537,1.9512195121951221,130,7
33,0.69140625,-0.5244140625,-0.275390625,4.085365853658537,7.195121951219513,0.6707317073170732,130,7
34,0.7060546875,-0.51953125,-0.27490234375,6.158536585365854,6.585365853658537,-0.9756097560975611,130,7
35,0.70361328125,-0.51904296875,-0.28955078125,7.25609756097561,5.975609756097562,-1.829268292682927,130,7
36,0.70458984375,-0.52880859375,-0.30126953125,9.329268292682928,5.0,-3.7195121951219514,130,7
37,0.708984375,-0.53564453125,-0.30859375,11.402439024390246,4.451219512195122,-5.060975609756098,130,7
38,0.7001953125,-0.55126953125,-0.3154296875,12.256097560975611,3.7195121951219514,-6.219512195121951,130,7
39,0.70068359375,-0.5537109375,-0.29931640625,12.439024390243903,4.573170731707317,-7.134146341463415,130,7
40,0.689453125,-0.54541015625,-0.2919921875,12.195121951219512,5.060975609756098,-6.829268292682928,130,7
41,0.65771484375,-0.56982421875,-0.267578125,11.646341463414634,6.036585365853659,-5.975609756097562,130,7
42,0.65185546875,-0.57763671875,-0.27734375,10.548780487804878,6.646341463414635,-5.121951219512195,130,7
43,0.64453125,-0.5634765625,-0.29541015625,11.036585365853659,6.829268292682928,-4.2682926829268295,130,7
44,0.623046875,-0.56494140625,-0.28955078125,11.158536585365855,7.01219512195122,-3.353658536585366,130,7
45,0.61865234375,-0.54345703125,-0.31005859375,10.914634146341465,8.231707317073171,-2.378048780487805,130,7
46,0.642578125,-0.529296875,-0.3173828125,12.195121951219512,8.353658536585366,-0.853658536585366,130,7
47,0.6240234375,-0.52978515625,-0.3154296875,12.80487804878049,8.719512195121952,0.7317073170731708,130,7
48,0.61572265625,-0.521484375,-0.35546875,11.463414634146343,10.060975609756099,1.707317073170732,130,7
49,0.64599609375,-0.490234375,-0.359375,9.451219512195122,12.195121951219512,2.25609756097561,130,7
50,0.66259765625,-0.458984375,-0.37548828125,6.585365853658537,14.756097560975611,2.25609756097561,130,7
51,0.6708984375,-0.4482421875,-0.365234375,3.048780487804878,17.804878048780488,2.378048780487805,130,7
52,0.6611328125,-0.46630859375,-0.35986328125,-0.9146341463414634,20.670731707317074,2.804878048780488,130,7
53,0.65869140625,-0.48583984375,-0.35400390625,-3.414634146341464,22.25609756097561,3.7195121951219514,130,7
54,0.63330078125,-0.5234375,-0.35009765625,-4.390243902439025,22.98780487804878,4.75609756097561,130,7
55,0.64111328125,-0.52001953125,-0.33837890625,-4.085365853658537,22.926829268292686,5.426829268292684,130,7
56,0.64501953125,-0.515625,-0.31005859375,-2.1951219512195124,22.012195121951223,6.097560975609756,130,7
57,0.625,-0.53466796875,-0.29150390625,1.6463414634146343,19.573170731707318,6.402439024390245,130,7
58,0.6298828125,-0.55029296875,-0.291015625,4.939024390243903,17.31707317073171,6.585365853658537,130,7
59,0.64453125,-0.560546875,-0.29736328125,7.01219512195122,15.731707317073171,5.7926829268292686,130,7
60,0.6826171875,-0.54443359375,-0.32275390625,8.719512195121952,14.634146341463415,5.060975609756098,130,7
61,0.69775390625,-0.52587890625,-0.32470703125,9.451219512195122,14.573170731707318,3.9024390243902443,130,7
62,0.7041015625,-0.51220703125,-0.3310546875,7.439024390243903,16.219512195121954,2.5609756097560976,130,7
63,0.70361328125,-0.51025390625,-0.31396484375,3.4756097560975614,18.170731707317074,1.8902439024390245,130,7
64,0.69873046875,-0.5078125,-0.32568359375,-0.48780487804878053,20.0609756097561,1.2804878048780488,130,7
65,0.69091796875,-0.5068359375,-0.31103515625,-3.2926829268292686,20.670731707317074,1.2195121951219514,130,7
66,0.673828125,-0.52734375,-0.2587890625,-1.6463414634146343,19.26829268292683,1.402439024390244,130,7
67,0.6474609375,-0.5654296875,-0.2109375,2.8658536585365857,16.890243902439025,1.829268292682927,130,7
68,0.6513671875,-0.56591796875,-0.21484375,6.52439024390244,15.79268292682927,1.524390243902439,130,7
69,0.65283203125,-0.5537109375,-0.216796875,8.963414634146343,15.182926829268293,1.707317073170732,130,7
70,0.68017578125,-0.53857421875,-0.23046875,11.402439024390246,13.963414634146343,1.7682926829268295,130,7
71,0.67919921875,-0.52685546875,-0.265625,12.926829268292684,13.841463414634148,1.4634146341463417,130,7
72,0.7080078125,-0.50439453125,-0.27978515625,11.341463414634147,16.70731707317073,0.7926829268292683,130,7
73,0.720703125,-0.48779296875,-0.2802734375,6.646341463414635,21.219512195121954,0.7317073170731708,130,7
74,0.7099609375,-0.49755859375,-0.2490234375,2.682926829268293,24.75609756097561,1.0975609756097562,130,7
75,0.68212890625,-0.513671875,-0.22412109375,0.3658536585365854,26.52439024390244,1.4634146341463417,130,7
76,0.66455078125,-0.53173828125,-0.2177734375,1.0365853658536586,26.951219512195124,2.1341463414634148,130,7
77,0.64794921875,-0.54833984375,-0.189453125,5.182926829268293,24.695121951219516,2.682926829268293,130,7
78,0.642578125,-0.57470703125,-0.13232421875,11.402439024390246,22.5609756097561,3.1707317073170733,130,7
79,0.64794921875,-0.56884765625,-0.12548828125,16.890243902439025,21.890243902439025,3.231707317073171,130,7
80,0.671875,-0.556640625,-0.11328125,20.30487804878049,22.500000000000004,2.804878048780488,130,7
81,0.68896484375,-0.552734375,-0.11767578125,21.585365853658537,22.682926829268293,2.9268292682926833,130,7
82,0.6884765625,-0.53515625,-0.14208984375,21.219512195121954,22.865853658536587,3.048780487804878,130,7
83,0.6669921875,-0.53759765625,-0.18212890625,21.52439024390244,22.926829268292686,3.8414634146341466,130,7
84,0.67626953125,-0.505859375,-0.20947265625,21.890243902439025,23.658536585365855,3.2926829268292686,130,7
85,0.69482421875,-0.48583984375,-0.21484375,22.439024390243905,26.707317073170735,3.8414634146341466,130,7
86,0.69189453125,-0.49560546875,-0.20361328125,24.02439024390244,24.32926829268293,3.4756097560975614,130,7
87,0.67138671875,-0.50634765625,-0.2431640625,29.08536585365854,20.731707317073173,3.048780487804878,130,7
88,0.6787109375,-0.52734375,-0.216796875,30.365853658536587,21.890243902439025,3.536585365853659,130,7
89,0.65087890625,-0.5771484375,-0.18212890625,25.48780487804878,25.243902439024392,5.731707317073171,130,7
90,0.60498046875,-0.60107421875,-0.16748046875,22.012195121951223,24.146341463414636,5.670731707317073,130,7
91,0.62548828125,-0.56103515625,-0.18310546875,23.963414634146343,23.04878048780488,6.341463414634147,130,7
92,0.6396484375,-0.54443359375,-0.22314453125,23.170731707317074,23.10975609756098,7.01219512195122,130,7
93,0.64697265625,-0.5380859375,-0.28662109375,19.878048780487806,23.04878048780488,8.414634146341465,130,7
94,0.69677734375,-0.42822265625,-0.369140625,30.914634146341466,24.878048780487806,7.378048780487806,130,7
95,0.78369140625,-0.2978515625,-0.4150390625,6.2804878048780495,31.09756097560976,6.341463414634147,130,7
96,0.7939453125,-0.31884765625,-0.35009765625,-4.146341463414634,39.207317073170735,7.01219512195122,130,7
97,0.72802734375,-0.384765625,-0.34912109375,-20.914634146341466,44.57317073170732,6.2804878048780495,130,7
98,0.7666015625,-0.31201171875,-0.4287109375,-33.53658536585366,52.5609756097561,5.914634146341464,130,7
99,0.7841796875,-0.2880859375,-0.3974609375,-43.963414634146346,59.32926829268293,6.158536585365854,130,7
100,0.76708984375,-0.34765625,-0.3525390625,-48.963414634146346,60.54878048780488,6.951219512195123,130,7
101,0.72216796875,-0.4453125,-0.28515625,-47.31707317073171,60.365853658536594,7.621951219512196,130,7
102,0.6787109375,-0.49462890625,-0.32373046875,-42.987804878048784,56.707317073170735,9.451219512195122,130,7
103,0.6494140625,-0.48828125,-0.34423828125,-41.40243902439025,56.21951219512196,10.060975609756099,130,7
104,0.66748046875,-0.4423828125,-0.3408203125,-40.243902439024396,54.69512195121952,9.756097560975611,130,7
105,0.70166015625,-0.38671875,-0.26318359375,-38.29268292682927,48.04878048780488,7.560975609756098,130,7
106,0.73876953125,-0.35986328125,-0.40234375,-36.09756097560976,43.10975609756098,5.182926829268293,130,7
107,0.72265625,-0.3671875,-0.25390625,-34.268292682926834,38.04878048780488,3.1097560975609757,130,7
108,0.71533203125,-0.373046875,-0.3427734375,-32.987804878048784,34.32926829268293,1.2195121951219514,130,7
109,0.7216796875,-0.33740234375,-0.33935546875,-36.21951219512196,33.170731707317074,-0.3658536585365854,130,7
110,0.72509765625,-0.28173828125,-0.36474609375,-41.524390243902445,33.90243902439025,-2.5,130,7
111,0.71337890625,-0.25537109375,-0.36572265625,-46.34146341463415,33.90243902439025,-3.963414634146342,130,7
112,0.71435546875,-0.26318359375,-0.3447265625,-49.51219512195122,34.87804878048781,-6.097560975609756,130,7
113,0.73583984375,-0.2802734375,-0.32470703125,-50.54878048780488,32.43902439024391,-7.01219512195122,130,7
114,0.6767578125,-0.32080078125,-0.33984375,-48.963414634146346,28.231707317073173,-7.865853658536586,130,7
115,0.6708984375,-0.31494140625,-0.35546875,-45.91463414634147,23.414634146341466,-8.658536585365855,130,7
116,0.669921875,-0.3427734375,-0.341796875,-42.5609756097561,20.975609756097562,-8.78048780487805,130,7
117,0.671875,-0.3466796875,-0.2568359375,-41.463414634146346,17.98780487804878,-9.329268292682928,130,7
118,0.67724609375,-0.314453125,-0.4453125,-44.81707317073171,16.158536585365855,-11.402439024390246,130,7
119,0.7197265625,-0.2197265625,-0.4755859375,-52.86585365853659,19.512195121951223,-14.451219512195124,130,7
120,0.75048828125,-0.20458984375,-0.47021484375,-63.23170731707317,22.500000000000004,-16.03658536585366,130,7
121,0.748046875,-0.23291015625,-0.44482421875,-71.89024390243902,25.0609756097561,-17.743902439024392,130,7
122,0.728515625,-0.26708984375,-0.42822265625,-76.58536585365854,23.658536585365855,-19.02439024390244,130,7
123,0.7060546875,-0.2841796875,-0.44189453125,-76.76829268292684,19.207317073170735,-20.48780487804878,130,7
124,0.6953125,-0.27734375,-0.43212890625,-75.2439024390244,16.585365853658537,-21.28048780487805,130,7
125,0.70068359375,-0.275390625,-0.4404296875,-76.64634146341464,15.731707317073171,-22.743902439024392,130,7
126,0.71826171875,-0.2412109375,-0.490234375,-81.34146341463415,16.463414634146343,-24.939024390243905,130,7
127,0.73583984375,-0.21728515625,-0.494140625,-85.97560975609757,17.012195121951223,-27.195121951219516,130,7
128,0.62646484375,-0.22802734375,-0.505859375,-90.67073170731707,16.76829268292683,-29.26829268292683,130,7
129,0.74658203125,-0.24365234375,-0.51953125,-94.87804878048782,17.012195121951223,-30.670731707317074,130,7
130,0.75048828125,-0.2373046875,-0.49365234375,-98.35365853658537,16.951219512195124,-32.25609756097561,130,7
131,0.76123046875,-0.2138671875,-0.51220703125,-104.20731707317074,18.04878048780488,-34.146341463414636,130,7
132,0.7900390625,-0.19287109375,-0.490234375,-109.75609756097562,18.231707317073173,-35.1219512195122,130,7
133,0.75634765625,-0.24755859375,-0.4677734375,-113.17073170731709,17.134146341463417,-36.34146341463415,130,7
134,0.7685546875,-0.24072265625,-0.4765625,-113.47560975609757,14.329268292682928,-38.53658536585366,130,7
135,0.783203125,-0.1796875,-0.49755859375,-115.00000000000001,13.29268292682927,-40.487804878048784,130,7
136,0.77880859375,-0.20654296875,-0.52685546875,-116.52439024390245,12.073170731707318,-42.804878048780495,130,7
137,0.78564453125,-0.17431640625,-0.58447265625,-119.20731707317074,12.682926829268293,-46.28048780487805,130,7
138,0.8310546875,-0.14892578125,-0.61572265625,-109.81707317073172,12.80487804878049,-50.0609756097561,130,7
139,0.87109375,-0.11181640625,-0.67822265625,-131.89024390243904,11.341463414634147,-54.32926829268293,130,7
140,0.88623046875,-0.12353515625,-0.66064453125,-137.9878048780488,12.682926829268293,-56.463414634146346,130,7
141,0.93896484375,-0.17578125,-0.6591796875,-145.4878048780488,13.719512195121952,-58.90243902439025,130,7
142,0.8837890625,-0.1572265625,-0.67138671875,-151.03658536585368,15.000000000000002,-60.79268292682927,130,7
143,0.890625,-0.177734375,-0.65869140625,-155.4268292682927,15.426829268292684,-62.01219512195122,130,7
144,0.87109375,-0.2158203125,-0.646484375,-157.7439024390244,14.085365853658537,-64.26829268292684,130,7
145,0.9140625,-0.1806640625,-0.66162109375,-160.0609756097561,12.987804878048781,-67.13414634146342,130,7
146,0.95458984375,-0.1455078125,-0.72509765625,-165.4878048780488,12.560975609756099,-70.54878048780489,130,7
147,0.94384765625,-0.13916015625,-0.76171875,-171.09756097560978,14.51219512195122,-74.81707317073172,130,7
148,0.96337890625,-0.11279296875,-0.73828125,-176.28048780487808,16.76829268292683,-78.84146341463415,130,7
149,1.03125,-0.06640625,-0.68701171875,-180.06097560975613,17.5609756097561,-82.01219512195122,130,7
150,1.03955078125,-0.0859375,-0.68115234375,-183.41463414634148,19.390243902439025,-84.51219512195122,130,7
151,1.04541015625,-0.0751953125,-0.67578125,-188.35365853658539,21.585365853658537,-88.53658536585367,130,7
152,1.07421875,-0.04150390625,-0.6279296875,-192.9878048780488,24.451219512195124,-92.31707317073172,130,7
153,1.12158203125,-0.00634765625,-0.58642578125,-197.37804878048783,26.707317073170735,-96.52439024390245,130,7
154,1.1796875,0.01171875,-0.50341796875,-202.6829268292683,26.76829268292683,-100.60975609756099,130,7
155,1.18017578125,0.0009765625,-0.689453125,-206.40243902439028,27.865853658536587,-106.58536585365854,130,7
156,1.2275390625,0.0361328125,-0.7109375,-208.59756097560978,28.475609756097562,-113.10975609756099,130,7
157,1.31494140625,0.15673828125,-0.7392578125,-212.07317073170734,30.426829268292686,-120.73170731707319,130,7
158,1.38037109375,0.16845703125,-0.7353515625,-219.63414634146343,34.75609756097561,-126.09756097560977,130,7
159,1.36328125,0.11279296875,-0.75634765625,-226.03658536585368,39.08536585365854,-131.34146341463415,130,7
160,1.34423828125,0.08203125,-0.734375,-230.12195121951223,44.451219512195124,-136.09756097560978,130,7
161,1.35693359375,0.10302734375,-0.708984375,-233.109756097561,47.86585365853659,-125.12195121951221,130,7
162,1.36962890625,0.12109375,-0.6982421875,-235.4268292682927,50.1219512195122,-145.4878048780488,130,7
163,1.3720703125,0.13330078125,-0.70068359375,-236.28048780487808,50.60975609756098,-149.08536585365854,130,7
164,1.37109375,0.10498046875,-0.703125,-236.15853658536588,50.91463414634147,-154.26829268292684,130,7
165,1.39599609375,0.115234375,-0.7587890625,-237.01219512195124,51.21951219512196,-160.7926829268293,130,7
166,1.4501953125,0.18359375,-0.751953125,-235.6707317073171,54.085365853658544,-167.07317073170734,130,7
167,1.50390625,0.2255859375,-0.71240234375,-237.13414634146343,57.743902439024396,-173.47560975609758,130,7
168,1.52197265625,0.20263671875,-0.66455078125,-240.5487804878049,46.82926829268293,-178.0487804878049,130,7
169,1.48193359375,0.1689453125,-0.560546875,-239.02439024390247,62.865853658536594,-180.4878048780488,130,7
170,1.4501953125,0.0,-0.61865234375,-235.5487804878049,61.95121951219513,-186.09756097560978,130,7
171,1.3837890625,0.23046875,-0.59765625,-230.7926829268293,65.42682926829269,-192.6219512195122,130,7
172,1.5830078125,0.2958984375,-0.54443359375,-229.75609756097563,68.59756097560977,-199.75609756097563,130,7
173,1.6376953125,0.29443359375,-0.61376953125,-229.20731707317074,72.5609756097561,-206.09756097560978,130,7
174,1.6494140625,0.275390625,-0.4501953125,-226.09756097560978,74.63414634146342,-213.47560975609758,130,7
175,1.6884765625,0.3134765625,-0.44921875,-219.81707317073173,71.03658536585367,-220.06097560975613,130,7
176,1.72412109375,0.310546875,-0.44189453125,-209.93902439024393,65.54878048780489,-224.51219512195124,130,7
177,1.71826171875,0.2802734375,-0.44873046875,-203.1707317073171,64.45121951219512,-227.01219512195124,130,7
178,1.65771484375,0.22705078125,-0.54345703125,-203.59756097560978,64.51219512195122,-228.47560975609758,130,7
179,1.55419921875,0.1357421875,-0.60498046875,-204.51219512195124,70.97560975609757,-232.8048780487805,130,7
180,1.57080078125,0.20263671875,-0.5244140625,-200.3048780487805,74.63414634146342,-236.34146341463418,130,7
181,1.59765625,0.26708984375,-0.47265625,-196.09756097560978,75.97560975609757,-239.75609756097563,130,7
182,1.57568359375,0.27001953125,-0.4169921875,-191.82926829268294,77.5,-241.89024390243904,130,7
183,1.62158203125,0.27294921875,-0.3837890625,-189.75609756097563,78.71951219512196,-244.39024390243904,130,7
184,1.4375,0.34912109375,-0.4296875,-190.7317073170732,85.00000000000001,-249.69512195121953,130,7
185,1.4833984375,0.396484375,-0.34765625,-192.43902439024393,91.28048780487806,-253.71951219512198,130,7
186,1.48876953125,0.509765625,-0.298828125,-195.1219512195122,94.14634146341464,-255.6707317073171,130,7
187,1.43798828125,0.38671875,-0.30029296875,-195.4878048780488,92.50000000000001,-254.81707317073173,130,7
188,1.34326171875,0.22314453125,-0.2685546875,-187.37804878048783,90.60975609756099,-253.96341463414637,130,7
189,1.2724609375,0.14892578125,-0.14208984375,-167.6219512195122,83.71951219512196,-251.70731707317074,130,7
190,1.12646484375,0.15185546875,-0.0283203125,-148.2926829268293,76.34146341463415,-249.87804878048783,130,7
191,1.24755859375,0.1611328125,-0.05810546875,-134.75609756097563,71.58536585365854,-247.62195121951223,130,7
192,1.21142578125,0.15625,-0.08740234375,-129.14634146341464,69.75609756097562,-249.39024390243904,130,7
193,1.23388671875,0.25830078125,0.02685546875,-120.85365853658537,70.1219512195122,-249.81707317073173,130,7
194,1.2421875,0.138671875,0.10693359375,-118.90243902439025,71.82926829268294,-246.95121951219514,130,7
195,1.04052734375,0.09423828125,0.1865234375,-114.45121951219514,75.54878048780489,-249.51219512195124,130,7
196,1.00341796875,0.119140625,0.06201171875,-119.93902439024392,74.63414634146342,-252.13414634146343,130,7
197,0.98583984375,0.2060546875,0.07861328125,-123.29268292682927,82.07317073170732,-254.93902439024393,130,7
198,0.9609375,0.19482421875,0.173828125,-123.78048780487806,86.52439024390245,-255.3658536585366,130,7
199,0.93359375,0.1376953125,0.25927734375,-122.98780487804879,88.90243902439025,-251.03658536585368,130,7
200,0.82177734375,-0.03857421875,0.26953125,-118.59756097560977,91.58536585365854,-247.13414634146343,130,7
201,0.73388671875,-0.1494140625,0.18798828125,-110.67073170731709,88.47560975609757,-241.46341463414637,130,7
202,0.66943359375,-0.1005859375,0.19921875,-99.57317073170732,88.78048780487805,-235.24390243902442,130,7
203,0.63671875,-0.08984375,0.3095703125,-96.40243902439025,92.13414634146342,-226.52439024390245,130,7
204,0.56494140625,-0.18896484375,0.3388671875,-96.89024390243904,95.48780487804879,-218.90243902439028,130,7
205,0.46240234375,-0.30029296875,0.3720703125,-91.82926829268294,96.70731707317074,-209.93902439024393,130,7
206,0.30029296875,-0.400390625,0.42919921875,-85.48780487804879,97.5609756097561,-218.109756097561,130,7
207,0.2529296875,-0.3701171875,0.47900390625,-71.82926829268294,89.87804878048782,-194.02439024390245,130,7
208,0.1796875,-0.419921875,0.50537109375,-60.243902439024396,81.70731707317074,-183.53658536585368,130,7
209,0.1318359375,-0.46826171875,0.50927734375,-44.451219512195124,73.59756097560977,-183.53658536585368,130,7
210,0.150390625,-0.38037109375,0.34033203125,-32.43902439024391,66.64634146341464,-175.85365853658539,130,7
211,0.06884765625,-0.5185546875,0.279296875,-23.719512195121954,57.37804878048781,-171.76829268292684,130,7
212,-0.0390625,-0.56201171875,0.2802734375,-14.573170731707318,48.963414634146346,-163.65853658536588,130,7
213,-0.052734375,-0.5419921875,0.22802734375,-10.609756097560977,48.71951219512196,-159.20731707317074,130,7
214,-0.0556640625,-0.50732421875,0.28369140625,-14.451219512195124,50.426829268292686,-151.28048780487805,130,7
215,-0.119140625,-0.57666015625,0.26806640625,-20.426829268292686,53.59756097560976,-155.3658536585366,130,7
216,-0.23193359375,-0.66162109375,0.35400390625,-22.25609756097561,55.365853658536594,-127.8048780487805,130,7
217,-0.32861328125,-0.73779296875,0.328125,-22.926829268292686,55.1219512195122,-113.47560975609757,130,7
218,-0.4453125,-0.76806640625,0.353515625,-17.743902439024392,48.59756097560976,-96.28048780487806,130,7
219,-0.56591796875,-0.8505859375,0.35205078125,-8.902439024390244,40.1829268292683,-79.69512195121952,130,7
220,-0.6572265625,-0.8857421875,0.3984375,-0.30487804878048785,35.1219512195122,-66.46341463414635,130,7
221,-0.6005859375,-0.85498046875,0.3984375,7.195121951219513,46.524390243902445,-53.65853658536586,130,7
222,-0.63037109375,-0.87255859375,0.30517578125,9.817073170731708,16.34146341463415,-39.390243902439025,130,7
223,-0.66015625,-0.955078125,0.31494140625,10.24390243902439,15.609756097560977,-24.26829268292683,130,7
224,-0.68603515625,-1.052734375,0.2314453125,8.231707317073171,30.182926829268297,-10.365853658536587,130,7
225,-0.65478515625,-1.10791015625,0.1748046875,6.951219512195123,32.926829268292686,4.390243902439025,130,7
226,-0.607421875,-1.1865234375,0.30419921875,10.731707317073171,33.04878048780488,20.670731707317074,130,7
227,-0.56005859375,-1.3046875,0.38134765625,19.81707317073171,32.37804878048781,38.65853658536586,130,7
228,-0.576171875,-1.48095703125,0.25048828125,29.26829268292683,28.04878048780488,59.63414634146342,130,7
229,-0.60400390625,-1.556640625,0.15576171875,38.23170731707317,25.30487804878049,81.28048780487805,130,7
230,-0.66748046875,-1.65283203125,0.19677734375,51.15853658536586,21.52439024390244,104.32926829268294,130,7
231,-0.6640625,-1.7197265625,0.2255859375,64.02439024390245,31.158536585365855,110.3048780487805,130,7
232,-0.60400390625,-1.77392578125,0.23681640625,74.08536585365854,8.536585365853659,145.7926829268293,130,7
233,-0.51611328125,-1.81591796875,0.0693359375,79.57317073170732,3.048780487804878,167.6219512195122,130,7
234,-0.44921875,-1.87841796875,0.09619140625,82.6829268292683,3.1097560975609757,172.7439024390244,130,7
235,-0.294921875,-1.88818359375,0.14111328125,85.79268292682927,-0.48780487804878053,211.58536585365854,130,7
236,-0.18505859375,-1.99609375,0.09423828125,91.70731707317074,-0.24390243902439027,237.07317073170734,130,7
237,-0.24560546875,-2.1845703125,0.04541015625,98.78048780487806,-4.51219512195122,264.75609756097566,130,7
238,-0.00927734375,-2.3310546875,-0.11669921875,107.07317073170732,-5.060975609756098,289.69512195121956,130,7
239,0.216796875,-2.34033203125,-0.09228515625,117.98780487804879,-8.597560975609756,310.5487804878049,130,7
240,0.3994140625,-2.33203125,-0.00439453125,126.15853658536587,-8.414634146341465,332.7439024390244,130,7
241,0.8076171875,-2.470703125,0.07958984375,132.37804878048783,-3.963414634146342,344.51219512195127,130,7
242,1.07470703125,-2.6474609375,0.06201171875,136.40243902439025,-2.9268292682926833,376.0365853658537,130,7
243,1.2958984375,-2.73193359375,0.1201171875,143.53658536585368,-4.75609756097561,425.36585365853665,130,7
244,1.5390625,-2.8154296875,-0.2119140625,154.26829268292684,-13.109756097560977,459.1463414634147,130,7
245,1.86181640625,-2.8828125,-0.3388671875,170.609756097561,-16.70731707317073,491.3414634146342,130,7
246,2.18115234375,-3.037109375,-0.48095703125,198.47560975609758,-24.81707317073171,523.4146341463415,130,7
247,2.794921875,-3.13720703125,-0.857421875,244.45121951219514,-39.024390243902445,548.8414634146342,130,7
248,3.40771484375,-3.47314453125,-1.18310546875,305.0,-43.10975609756098,568.1707317073171,130,7
249,4.03271484375,-3.62060546875,-1.41650390625,347.13414634146346,-38.29268292682927,582.7439024390244,130,7
250,5.02099609375,-3.748046875,-1.8525390625,410.24390243902445,-2.378048780487805,603.2317073170732,130,7
251,5.55908203125,-3.6279296875,-1.736328125,448.2317073170732,15.670731707317074,626.219512195122,130,7
252,5.7216796875,-3.90478515625,-1.77099609375,441.5853658536586,45.00000000000001,684.5731707317074,130,7
253,5.6640625,-4.09765625,-2.396484375,409.51219512195127,56.463414634146346,733.1707317073171,130,7
254,5.72265625,-4.05078125,-2.95654296875,383.4146341463415,50.36585365853659,765.4878048780488,130,7
255,6.091796875,-4.08740234375,-3.45263671875,377.56097560975616,35.0609756097561,815.2439024390245,130,7
256,6.8818359375,-3.98583984375,-4.091796875,414.45121951219517,14.085365853658537,874.939024390244,130,7
257,7.7470703125,-4.13818359375,-4.58251953125,471.6463414634147,-53.04878048780488,921.2804878048781,130,7
258,8.6875,-4.236328125,-4.921875,571.4024390243903,-80.3048780487805,943.1097560975611,130,7
259,9.46337890625,-3.71044921875,-5.20703125,685.3658536585366,-146.28048780487805,927.5000000000001,130,7
260,9.22802734375,-3.572265625,-5.287109375,787.9878048780489,-219.75609756097563,910.9756097560976,130,7
261,8.89306640625,-3.86767578125,-5.56982421875,908.3536585365855,-336.4024390243903,862.1951219512196,130,7
262,8.5693359375,-4.44921875,-6.49169921875,1046.9512195121952,-496.95121951219517,770.7317073170732,130,7
263,7.982421875,-4.71484375,-7.2255859375,1219.939024390244,-616.6463414634147,623.2317073170732,130,7
264,8.0146484375,-3.828125,-7.9775390625,1377.9268292682927,-687.7439024390244,413.5365853658537,130,7
265,5.51416015625,-0.00634765625,-15.98779296875,1997.987804878049,-197.62195121951223,133.96341463414635,130,7
266,13.533203125,1.326171875,-8.3154296875,1019.0853658536586,-665.6707317073171,85.00000000000001,130,7
267,3.712890625,3.61572265625,-9.59619140625,1189.1463414634147,-546.829268292683,133.53658536585368,130,7
268,6.11962890625,2.69580078125,-0.677734375,1198.3536585365855,-80.2439024390244,-144.02439024390245,130,7
269,5.53564453125,-2.0478515625,-0.26416015625,1085.8536585365855,-201.21951219512198,-123.59756097560977,130,7
270,2.6171875,-1.45654296875,-1.30322265625,865.548780487805,-84.02439024390245,-167.07317073170734,130,7
271,4.21142578125,-1.59375,1.2900390625,900.9146341463415,18.170731707317074,-176.82926829268294,130,7
272,3.53125,-4.1357421875,0.58544921875,861.1585365853659,-73.71951219512195,-276.0975609756098,130,7
273,3.603515625,-3.73974609375,-0.43994140625,796.1585365853659,-120.97560975609757,-385.4268292682927,130,7
274,3.97802734375,-4.10302734375,-1.24072265625,772.5000000000001,-171.40243902439025,-486.3414634146342,130,7
275,3.53564453125,-3.90087890625,-1.30029296875,699.8170731707318,-206.58536585365854,-611.8902439024391,130,7
276,3.716796875,-3.2880859375,-2.0625,582.0731707317074,-208.96341463414635,-702.8048780487806,130,7
277,3.3818359375,-2.767578125,-2.7041015625,478.2317073170732,-149.39024390243904,-750.3048780487806,130,7
278,3.31640625,-2.92724609375,-2.6279296875,349.32926829268297,-106.40243902439025,-765.0000000000001,130,7
279,2.7314453125,-3.173828125,-2.3173828125,246.89024390243904,-19.207317073170735,-796.0975609756098,130,7
280,2.58447265625,-2.80908203125,-2.0517578125,150.4878048780488,75.54878048780489,-810.6707317073171,130,7
281,2.80615234375,-2.5322265625,-1.80126953125,72.5,155.6707317073171,-803.4756097560976,130,7
282,2.7451171875,-2.763671875,-1.6611328125,39.390243902439025,225.00000000000003,-807.0121951219513,130,7
283,2.95263671875,-2.5595703125,-1.48876953125,10.670731707317074,278.2926829268293,-799.5121951219513,130,7
284,2.57177734375,-2.49267578125,-1.73974609375,-8.292682926829269,314.39024390243907,-769.6341463414635,130,7
285,1.93896484375,-2.49658203125,-2.02783203125,-20.0609756097561,312.5,-735.1829268292684,130,7
286,1.63916015625,-2.39599609375,-2.3134765625,-44.93902439024391,333.0487804878049,-692.1341463414635,130,7
287,1.20556640625,-2.3642578125,-2.16650390625,-64.14634146341464,337.9878048780488,-654.2682926829269,130,7
288,0.83154296875,-2.11572265625,-1.91455078125,-118.90243902439025,341.2804878048781,-586.6463414634147,130,7
289,0.40234375,-1.8544921875,-1.74658203125,-142.5,354.45121951219517,-533.4756097560976,130,7
290,0.17138671875,-1.54296875,-1.3974609375,-153.71951219512195,363.0487804878049,-493.8414634146342,130,7
291,0.23193359375,-1.14208984375,-1.2119140625,-164.20731707317074,370.609756097561,-461.95121951219517,130,7
292,0.41845703125,-0.8271484375,-1.14111328125,-178.65853658536588,382.9878048780488,-428.3536585365854,130,7
293,0.43212890625,-0.73095703125,-1.12060546875,-180.5487804878049,395.6707317073171,-396.5243902439025,130,7
294,0.42138671875,-0.7353515625,-0.9755859375,-194.26829268292684,398.109756097561,-372.50000000000006,130,7
295,0.54248046875,-0.5625,-1.052734375,-195.91463414634148,391.2804878048781,-351.6463414634147,130,7
296,0.64599609375,-0.40869140625,-1.3369140625,-192.13414634146343,378.109756097561,-338.5975609756098,130,7
297,0.80615234375,-0.251953125,-1.57470703125,-191.64634146341464,363.719512195122,-332.7439024390244,130,7
298,0.90087890625,-0.45703125,-1.640625,-191.40243902439025,349.75609756097566,-329.20731707317077,130,7
299,0.9541015625,-0.45263671875,-1.298828125,-191.21951219512198,341.6463414634147,-328.1707317073171,130,7
300,0.90380859375,-0.47607421875,-1.07373046875,-188.47560975609758,331.219512195122,-318.0487804878049,130,7
301,0.5439453125,-0.5302734375,-0.8896484375,-196.15853658536588,322.31707317073176,-305.4878048780488,130,7
302,0.25830078125,-0.634765625,-1.2353515625,-193.59756097560978,313.2317073170732,-297.5,130,7
303,0.1865234375,-0.34326171875,-1.00439453125,-178.84146341463415,293.6585365853659,-283.9634146341464,130,7
304,0.24462890625,-0.29541015625,-0.99560546875,-176.64634146341464,268.719512195122,-263.1707317073171,130,7
305,-0.03857421875,-0.25634765625,-0.80029296875,-164.69512195121953,269.51219512195127,-253.2317073170732,130,7
306,-0.10107421875,-0.35546875,-1.10107421875,-195.06097560975613,247.31707317073173,-239.02439024390247,130,7
307,-0.15869140625,-0.24462890625,-1.03173828125,-208.71951219512198,249.20731707317074,-220.4878048780488,130,7
308,-0.36279296875,-0.357421875,-0.96337890625,-217.37804878048783,223.96341463414637,-207.9878048780488,130,7
309,-0.46630859375,-0.44287109375,-0.939453125,-216.70731707317074,213.35365853658539,-202.19512195121953,130,7
310,-0.57666015625,-0.52587890625,-0.90869140625,-219.14634146341464,203.0487804878049,-195.4878048780488,130,7
311,-0.64208984375,-0.52294921875,-0.94677734375,-212.19512195121953,189.63414634146343,-181.03658536585368,130,7
312,-0.69873046875,-0.5498046875,-0.990234375,-201.64634146341464,176.95121951219514,-159.26829268292684,130,7
313,-0.85888671875,-0.66455078125,-0.986328125,-195.7926829268293,163.35365853658539,-135.4878048780488,130,7
314,-1.10986328125,-0.7666015625,-0.953125,-194.75609756097563,151.82926829268294,-112.92682926829269,130,7
315,-1.26806640625,-0.80908203125,-0.76025390625,-191.89024390243904,143.90243902439025,-95.67073170731709,130,7
316,-1.30078125,-0.76708984375,-0.728515625,-189.02439024390245,133.2926829268293,-85.3048780487805,130,7
317,-1.1904296875,-0.6591796875,-0.7763671875,-185.2439024390244,120.79268292682927,-80.73170731707317,130,7
318,-1.025390625,-0.46142578125,-0.791015625,-178.78048780487808,106.82926829268294,-77.6219512195122,130,7
319,-0.96240234375,-0.3330078125,-0.75,-171.76829268292684,94.26829268292684,-71.70731707317074,130,7
320,-0.93701171875,-0.27734375,-0.755859375,-165.2439024390244,86.40243902439025,-66.89024390243902,130,7
321,-0.8896484375,-0.2958984375,-0.74072265625,-159.20731707317074,78.53658536585367,-61.09756097560976,130,7
322,-1.12548828125,-0.326171875,-0.8056640625,-150.1219512195122,75.2439024390244,-54.57317073170732,130,7
323,-1.17919921875,-0.345703125,-0.828125,-138.78048780487805,72.13414634146342,-46.21951219512196,130,7
324,-1.1787109375,-0.365234375,-0.7333984375,-126.95121951219514,65.91463414634147,-40.487804878048784,130,7
325,-1.1865234375,-0.37060546875,-0.77880859375,-119.63414634146342,57.926829268292686,-37.07317073170732,130,7
326,-1.15283203125,-0.32861328125,-0.79052734375,-110.1829268292683,47.86585365853659,-32.19512195121951,130,7
327,-1.16162109375,-0.37451171875,-0.83203125,-101.28048780487806,38.41463414634147,-23.231707317073173,130,7
328,-1.17236328125,-0.22021484375,-0.79296875,-94.69512195121952,46.15853658536586,-12.987804878048781,130,7
329,-1.2451171875,-0.22607421875,-0.787109375,-88.71951219512196,21.646341463414636,-3.9024390243902443,130,7
330,-1.29296875,-0.23876953125,-0.8203125,-80.2439024390244,13.719512195121952,3.780487804878049,130,7
331,-1.31494140625,-0.24072265625,-0.8095703125,-69.63414634146342,2.804878048780488,10.975609756097562,130,7
332,-1.31494140625,-0.2353515625,-0.87158203125,-56.40243902439025,-8.109756097560977,18.04878048780488,130,7
333,-1.29638671875,-0.2275390625,-0.7109375,-45.85365853658537,-20.0,23.414634146341466,130,7
334,-1.25830078125,-0.16259765625,-0.6640625,-36.40243902439025,-30.853658536585368,27.5609756097561,130,7
335,-1.2109375,-0.09130859375,-0.650390625,-27.073170731707318,-41.890243902439025,32.19512195121951,130,7
336,-1.1875,-0.05712890625,-0.625,-17.5,-50.487804878048784,35.487804878048784,130,7
337,-1.15966796875,-0.02392578125,-0.5732421875,-9.146341463414634,-58.17073170731708,37.6829268292683,130,7
338,-1.13818359375,-0.00341796875,-0.5068359375,-1.5853658536585367,-66.03658536585367,40.243902439024396,130,7
339,-1.12158203125,0.0234375,-0.4892578125,3.8414634146341466,-73.04878048780489,41.82926829268293,130,7
340,-1.1103515625,0.05322265625,-0.4599609375,9.26829268292683,-80.60975609756099,42.804878048780495,130,7
341,-1.0947265625,0.08203125,-0.45703125,15.000000000000002,-86.09756097560977,43.963414634146346,130,7
342,-1.0888671875,0.0947265625,-0.4248046875,17.134146341463417,-92.31707317073172,44.87804878048781,130,7
343,-1.11083984375,0.10595703125,-0.39111328125,18.353658536585368,-98.41463414634147,46.03658536585366,130,7
344,-1.1181640625,0.10498046875,-0.36865234375,18.53658536585366,-103.84146341463415,47.25609756097561,130,7
345,-1.11669921875,0.10205078125,-0.34130859375,21.158536585365855,-110.3658536585366,48.29268292682927,130,7
346,-1.1162109375,0.1005859375,-0.314453125,25.670731707317074,-116.82926829268294,48.963414634146346,130,7
347,-1.09375,0.10400390625,-0.2880859375,31.03658536585366,-122.98780487804879,50.0609756097561,130,7
348,-1.06787109375,0.1162109375,-0.23388671875,35.79268292682927,-126.64634146341464,51.28048780487806,130,7
349,-1.04736328125,0.1455078125,-0.216796875,39.268292682926834,-130.3658536585366,53.23170731707317,130,7
350,-1.03759765625,0.173828125,-0.18994140625,42.743902439024396,-135.1829268292683,54.207317073170735,130,7
351,-1.02587890625,0.19384765625,-0.1708984375,47.5609756097561,-141.46341463414635,54.75609756097561,130,7
352,-0.99609375,0.2412109375,-0.13916015625,52.987804878048784,-147.8658536585366,55.365853658536594,130,7
353,-0.97314453125,0.2587890625,-0.0869140625,55.426829268292686,-151.64634146341464,55.67073170731708,130,7
354,-0.94482421875,0.2626953125,-0.02978515625,55.97560975609757,-155.91463414634148,55.54878048780488,130,7
355,-0.9521484375,0.27734375,-0.1240234375,55.60975609756098,-159.08536585365854,54.51219512195122,130,7
356,-0.94921875,0.283203125,0.03662109375,55.1829268292683,-162.7439024390244,53.23170731707317,130,7
357,-0.91357421875,0.28466796875,0.06103515625,56.707317073170735,-166.76829268292684,52.25609756097561,130,7
358,-0.88671875,0.27392578125,0.1064453125,57.987804878048784,-170.5487804878049,51.15853658536586,130,7
359,-0.86572265625,0.26318359375,0.166015625,59.51219512195122,-172.8048780487805,49.69512195121952,130,7
360,-0.86328125,0.25439453125,0.193359375,60.60975609756098,-172.6219512195122,48.41463414634147,130,7
361,-0.82373046875,0.2744140625,0.2216796875,62.13414634146342,-172.6829268292683,47.31707317073171,130,7
362,-0.80810546875,0.3095703125,0.24951171875,62.926829268292686,-173.2317073170732,47.43902439024391,130,7
363,-0.7900390625,0.30078125,0.27685546875,64.26829268292684,-173.109756097561,47.37804878048781,130,7
364,-0.77685546875,0.29541015625,0.30517578125,66.82926829268293,-173.2926829268293,47.01219512195122,130,7
365,-0.77001953125,0.3017578125,0.35546875,69.81707317073172,-174.02439024390245,46.646341463414636,130,7
366,-0.76123046875,0.30810546875,0.39404296875,70.97560975609757,-187.13414634146343,45.85365853658537,130,7
367,-0.744140625,0.3125,0.4052734375,72.7439024390244,-169.63414634146343,45.73170731707317,130,7
368,-0.70947265625,0.35205078125,0.39599609375,74.45121951219512,-169.75609756097563,46.463414634146346,130,7
369,-0.693359375,0.36279296875,0.380859375,76.58536585365854,-171.09756097560978,46.58536585365854,130,7
370,-0.66064453125,0.3740234375,0.38671875,78.65853658536587,-170.7317073170732,46.646341463414636,130,7
371,-0.6328125,0.4990234375,0.4013671875,79.08536585365854,-170.7926829268293,47.01219512195122,130,7
372,-0.63330078125,0.35986328125,0.41650390625,77.25609756097562,-169.93902439024393,47.743902439024396,130,7
373,-0.63720703125,0.33251953125,0.44775390625,75.91463414634147,-169.26829268292684,48.170731707317074,130,7
374,-0.662109375,0.30517578125,0.37548828125,76.40243902439025,-167.07317073170734,48.41463414634147,130,7
375,-0.65478515625,0.287109375,0.51904296875,77.8658536585366,-165.85365853658539,49.32926829268293,130,7
376,-0.6298828125,0.3046875,0.521484375,80.0609756097561,-164.32926829268294,50.91463414634147,130,7
377,-0.6015625,0.31689453125,0.5302734375,82.7439024390244,-164.57317073170734,52.987804878048784,130,7
378,-0.57568359375,0.30810546875,0.50146484375,86.70731707317074,-164.93902439024393,54.63414634146342,130,7
379,-0.54638671875,0.33251953125,0.52197265625,90.54878048780489,-164.39024390243904,54.93902439024391,130,7
380,-0.5107421875,0.33447265625,0.52490234375,91.76829268292684,-163.41463414634148,54.451219512195124,130,7
381,-0.46630859375,0.37109375,0.54931640625,88.78048780487805,-159.02439024390245,53.84146341463415,130,7
382,-0.44482421875,0.39111328125,0.51708984375,80.67073170731707,-155.7926829268293,53.53658536585366,130,7
383,-0.4443359375,0.41064453125,0.5302734375,73.41463414634147,-153.1707317073171,53.59756097560976,130,7
384,-0.4599609375,0.40625,0.5185546875,69.63414634146342,-154.26829268292684,54.93902439024391,130,7
385,-0.48291015625,0.3525390625,0.53564453125,67.7439024390244,-154.32926829268294,56.524390243902445,130,7
386,-0.45703125,0.33837890625,0.53271484375,68.04878048780489,-155.1219512195122,57.987804878048784,130,7
387,-0.41357421875,0.337890625,0.5107421875,70.42682926829269,-158.2926829268293,60.304878048780495,130,7
388,-0.38720703125,0.3359375,0.6240234375,73.35365853658537,-160.1219512195122,46.89024390243903,130,7
389,-0.3564453125,0.333984375,0.5166015625,76.46341463414635,-162.25609756097563,64.75609756097562,130,7
390,-0.3603515625,0.326171875,0.51171875,78.84146341463415,-163.2317073170732,66.95121951219512,130,7
391,-0.3330078125,0.33984375,0.52880859375,80.2439024390244,-163.109756097561,68.96341463414635,130,7
392,-0.318359375,0.359375,0.55419921875,75.85365853658537,-156.82926829268294,69.69512195121952,130,7
393,-0.2724609375,0.38916015625,0.53173828125,66.58536585365854,-149.51219512195124,70.48780487804879,130,7
394,-0.20654296875,0.42626953125,0.50830078125,59.146341463414636,-144.57317073170734,72.07317073170732,130,7
395,-0.17626953125,0.43212890625,0.48193359375,56.463414634146346,-144.51219512195124,74.14634146341464,130,7
396,-0.1689453125,0.4189453125,0.45166015625,55.73170731707317,-145.4878048780488,75.85365853658537,130,7
397,-0.15869140625,0.41455078125,0.45068359375,55.73170731707317,-146.70731707317074,77.6829268292683,130,7
398,-0.14306640625,0.4169921875,0.50244140625,55.60975609756098,-146.89024390243904,79.39024390243902,130,7
399,-0.1259765625,0.42529296875,0.51708984375,54.085365853658544,-146.21951219512195,80.79268292682927,130,7
400,-0.103515625,0.43408203125,0.51953125,52.5609756097561,-146.34146341463415,82.8658536585366,130,7
401,-0.0966796875,0.4296875,0.5439453125,52.743902439024396,-147.8658536585366,85.1829268292683,130,7
402,-0.0830078125,0.431640625,0.5703125,52.6829268292683,-147.5609756097561,86.40243902439025,130,7
403,-0.064453125,0.4326171875,0.57080078125,53.59756097560976,-148.71951219512195,88.35365853658537,130,7
404,-0.02880859375,0.43701171875,0.55029296875,55.79268292682927,-150.1829268292683,89.87804878048782,130,7
405,-0.1181640625,0.4482421875,0.53466796875,58.59756097560976,-152.37804878048783,91.89024390243904,130,7
406,0.0205078125,0.4384765625,0.50390625,58.35365853658537,-152.25609756097563,92.6829268292683,130,7
407,0.0419921875,0.3779296875,0.51513671875,55.67073170731708,-149.57317073170734,92.6829268292683,130,7
408,0.07421875,0.5234375,0.52587890625,47.31707317073171,-143.47560975609758,94.39024390243904,130,7
409,0.00244140625,0.5693359375,0.5078125,37.926829268292686,-137.9878048780488,95.60975609756099,130,7
410,0.17236328125,0.580078125,0.52490234375,46.707317073170735,-135.0609756097561,97.8658536585366,130,7
411,0.17041015625,0.5595703125,0.5322265625,27.31707317073171,-134.39024390243904,99.51219512195122,130,7
412,0.17333984375,0.57373046875,0.552734375,26.76829268292683,-135.1829268292683,99.93902439024392,130,7
413,0.18603515625,0.576171875,0.55859375,27.865853658536587,-137.6829268292683,101.09756097560977,130,7
414,0.19775390625,0.57666015625,0.5595703125,15.609756097560977,-140.3048780487805,101.95121951219512,130,7
415,0.2431640625,0.59228515625,0.55908203125,37.43902439024391,-144.51219512195124,103.41463414634147,130,7
416,0.26953125,0.5849609375,0.5361328125,43.65853658536586,-147.8048780487805,104.51219512195122,130,7
417,0.3037109375,0.57177734375,0.52001953125,47.926829268292686,-151.21951219512195,105.67073170731709,130,7
418,0.330078125,0.572265625,0.5126953125,50.00000000000001,-150.2439024390244,104.81707317073172,130,7
419,0.251953125,0.58837890625,0.5244140625,46.82926829268293,-146.03658536585368,103.96341463414635,130,7
420,0.44873046875,0.6328125,0.52685546875,41.463414634146346,-141.58536585365854,103.04878048780489,130,7
421,0.474609375,0.66357421875,0.55126953125,37.6219512195122,-139.14634146341464,103.71951219512196,130,7
422,0.4775390625,0.64013671875,0.572265625,36.28048780487805,-138.59756097560978,104.51219512195122,130,7
423,0.462890625,0.603515625,0.5556640625,35.73170731707317,-137.6829268292683,104.45121951219514,130,7
424,0.45654296875,0.58056640625,0.53369140625,37.987804878048784,-136.89024390243904,103.84146341463415,130,7
425,0.47412109375,0.59912109375,0.51220703125,42.07317073170732,-137.37804878048783,102.8048780487805,130,7
426,0.50439453125,0.62939453125,0.49169921875,46.463414634146346,-139.20731707317074,103.23170731707317,130,7
427,0.55029296875,0.630859375,0.43212890625,48.41463414634147,-139.32926829268294,103.41463414634147,130,7
428,0.58935546875,0.6484375,0.43994140625,46.09756097560976,-136.76829268292684,103.29268292682927,130,7
429,0.59423828125,0.63916015625,0.47021484375,39.75609756097561,-130.91463414634148,101.95121951219512,130,7
430,0.6455078125,0.68505859375,0.50244140625,34.81707317073171,-140.1219512195122,101.21951219512196,130,7
431,0.66357421875,0.66943359375,0.5166015625,31.707317073170735,-119.45121951219514,100.06097560975611,130,7
432,0.6728515625,0.6572265625,0.48095703125,31.03658536585366,-116.64634146341464,99.02439024390245,130,7
433,0.6611328125,0.62353515625,0.44873046875,32.25609756097561,-116.03658536585367,96.95121951219512,130,7
434,0.65576171875,0.6015625,0.4189453125,35.0,-119.14634146341464,97.13414634146342,130,7
435,0.6435546875,0.59619140625,0.3935546875,38.47560975609756,-120.67073170731709,96.58536585365854,130,7
436,0.6591796875,0.58984375,0.35986328125,39.57317073170732,-121.52439024390245,94.81707317073172,130,7
437,0.67236328125,0.61376953125,0.31640625,34.51219512195122,-118.53658536585367,108.90243902439025,130,7
438,0.70703125,0.66943359375,0.32763671875,27.25609756097561,-114.87804878048782,93.17073170731707,130,7
439,0.73193359375,0.677734375,0.3671875,16.76829268292683,-124.81707317073172,93.10975609756099,130,7
440,0.75927734375,0.6689453125,0.39208984375,7.01219512195122,-103.71951219512196,93.17073170731707,130,7
441,0.73193359375,0.61279296875,0.40869140625,1.1585365853658538,-100.48780487804879,94.02439024390245,130,7
442,0.69921875,0.53955078125,0.4111328125,0.6707317073170732,-100.91463414634147,78.17073170731707,130,7
443,0.66845703125,0.4833984375,0.3798828125,3.9024390243902443,-103.65853658536587,93.47560975609757,130,7
444,0.64404296875,0.4443359375,0.34619140625,9.26829268292683,-106.28048780487806,92.50000000000001,130,7
445,0.63134765625,0.41455078125,0.30126953125,14.695121951219514,-108.04878048780489,93.29268292682927,130,7
446,0.60791015625,0.41943359375,0.2421875,16.82926829268293,-106.76829268292684,93.78048780487806,130,7
447,0.63623046875,0.4423828125,0.216796875,16.52439024390244,-104.32926829268294,95.73170731707317,130,7
448,0.66357421875,0.46826171875,0.18701171875,12.74390243902439,-101.28048780487806,96.95121951219512,130,7
449,0.68603515625,0.37646484375,0.193359375,9.817073170731708,-99.08536585365854,97.5609756097561,130,7
450,0.69580078125,0.50244140625,0.12744140625,10.487804878048781,-97.8658536585366,97.31707317073172,130,7
451,0.68359375,0.47705078125,0.2509765625,12.195121951219512,-95.48780487804879,96.76829268292684,130,7
452,0.6875,0.4560546875,0.212890625,12.378048780487806,-89.93902439024392,94.32926829268294,130,7
453,0.7314453125,0.4677734375,0.18212890625,10.914634146341465,-86.70731707317074,94.69512195121952,130,7
454,0.76025390625,0.47314453125,0.0986328125,8.841463414634147,-84.32926829268294,94.26829268292684,130,7
455,0.7939453125,0.45654296875,0.06103515625,3.414634146341464,-80.3658536585366,93.71951219512196,130,7
456,0.80224609375,0.427734375,0.0498046875,-0.9146341463414634,-77.6829268292683,94.93902439024392,130,7
457,0.7890625,0.408203125,0.0771484375,-3.963414634146342,-76.82926829268294,94.51219512195122,130,7
458,0.78955078125,0.4052734375,0.15234375,-4.75609756097561,-76.64634146341464,93.47560975609757,130,7
459,0.7861328125,0.38037109375,0.19580078125,-3.963414634146342,-75.0609756097561,92.01219512195122,130,7
460,0.8046875,0.3837890625,0.21728515625,-1.1585365853658538,-73.71951219512195,89.26829268292684,130,7
461,0.8251953125,0.37939453125,0.19189453125,1.2195121951219514,-72.8658536585366,85.54878048780489,130,7
462,0.8642578125,0.380859375,0.115234375,1.402439024390244,-70.91463414634147,81.03658536585367,130,7
463,0.90087890625,0.40771484375,0.0888671875,0.24390243902439027,-68.23170731707317,77.43902439024392,130,7
464,0.91845703125,0.42626953125,0.1025390625,-0.5487804878048781,-65.67073170731707,75.3658536585366,130,7
465,0.91455078125,0.4150390625,0.08984375,-1.2804878048780488,-64.75609756097562,73.96341463414635,130,7
466,0.88427734375,0.376953125,0.08642578125,-0.5487804878048781,-64.75609756097562,72.8048780487805,130,7
467,0.84423828125,0.3505859375,0.08203125,0.426829268292683,-61.707317073170735,71.03658536585367,130,7
468,0.87060546875,0.3916015625,0.00927734375,-0.5487804878048781,-58.29268292682927,68.96341463414635,130,7
469,0.8955078125,0.4013671875,0.14990234375,-3.414634146341464,-53.47560975609757,66.40243902439025,130,7
470,0.91064453125,0.40771484375,0.189453125,-3.9024390243902443,-51.707317073170735,64.02439024390245,130,7
471,0.8896484375,0.494140625,0.16162109375,-3.4756097560975614,-50.85365853658537,59.146341463414636,130,7
472,0.8974609375,0.25439453125,0.142578125,-2.25609756097561,-49.57317073170732,54.87804878048781,130,7
473,0.90966796875,0.40966796875,0.1572265625,-2.0121951219512195,-45.73170731707317,49.81707317073171,130,7
474,0.95263671875,0.4462890625,0.1640625,-2.5,-42.01219512195122,45.304878048780495,130,7
475,0.951171875,0.427734375,0.14599609375,-3.5975609756097566,-40.304878048780495,41.463414634146346,130,7
476,0.8984375,0.38232421875,0.09716796875,-4.939024390243903,-38.84146341463415,38.04878048780488,130,7
477,0.86474609375,0.37646484375,0.09814453125,-5.182926829268293,-36.21951219512196,34.87804878048781,130,7
478,0.8916015625,0.41943359375,0.119140625,-6.707317073170732,-31.646341463414636,31.951219512195124,130,7
479,0.9169921875,0.41748046875,0.1318359375,-8.475609756097562,-27.31707317073171,29.695121951219516,130,7
480,0.89306640625,0.3955078125,0.13134765625,-10.060975609756099,-23.902439024390247,27.31707317073171,130,7
481,0.8701171875,0.4970703125,0.1142578125,-10.548780487804878,-21.03658536585366,24.146341463414636,130,7
482,0.8671875,0.37060546875,0.10498046875,-10.24390243902439,-18.719512195121954,21.097560975609756,130,7
483,0.86279296875,0.369140625,0.0947265625,-10.365853658536587,-16.70731707317073,18.170731707317074,130,7
484,0.837890625,0.361328125,0.0751953125,-11.097560975609756,-14.02439024390244,15.853658536585368,130,7
485,0.826171875,0.3544921875,0.0673828125,-11.402439024390246,-12.01219512195122,13.353658536585368,130,7
486,0.8310546875,0.36376953125,0.02587890625,-12.195121951219512,-9.26829268292683,10.792682926829269,130,7
487,0.84326171875,0.35546875,0.04052734375,-12.926829268292684,-6.036585365853659,8.414634146341465,130,7
488,0.84814453125,0.36767578125,0.04248046875,-14.329268292682928,-2.7439024390243905,5.731707317073171,130,7
489,0.8603515625,0.3671875,0.06298828125,-15.79268292682927,0.7926829268292683,3.9024390243902443,130,7
490,0.84033203125,0.341796875,0.0576171875,-17.134146341463417,4.024390243902439,1.2195121951219514,130,7
491,0.83203125,0.3388671875,0.05517578125,-18.475609756097562,7.500000000000001,-0.9756097560975611,130,7
492,0.8369140625,0.32421875,0.05810546875,-19.75609756097561,10.182926829268293,-3.048780487804878,130,7
493,0.82763671875,0.30908203125,0.0283203125,-19.878048780487806,11.646341463414634,-5.0,130,7
494,0.8173828125,0.28662109375,-0.0048828125,-19.573170731707318,12.317073170731708,-7.25609756097561,130,7
495,0.818359375,0.2724609375,-0.01904296875,-20.182926829268293,13.902439024390246,-9.329268292682928,130,7
496,0.8310546875,0.279296875,-0.00244140625,-21.890243902439025,0.06097560975609757,-11.341463414634147,130,7
497,0.82568359375,0.259765625,0.005859375,-23.475609756097562,17.25609756097561,-12.500000000000002,130,7
498,0.79541015625,0.23681640625,0.01025390625,-24.26829268292683,17.865853658536587,-14.26829268292683,130,7
499,0.76953125,0.21337890625,0.0029296875,-24.26829268292683,19.02439024390244,-15.365853658536587,130,7
