,Ax,Ay,Az,Gx,Gy,Gz,distance,shot_type
0,0.626953125,-0.49462890625,-0.31005859375,9.817073170731708,4.51219512195122,-2.8658536585365857,70,8
1,0.61181640625,-0.53271484375,-0.33447265625,7.987804878048781,6.7682926829268295,-1.524390243902439,70,8
2,0.5009765625,-0.5166015625,-0.33837890625,6.52439024390244,8.109756097560977,-0.6097560975609757,70,8
3,0.62939453125,-0.5244140625,-0.3330078125,2.9268292682926833,11.707317073170733,-0.30487804878048785,70,8
4,0.638671875,-0.51708984375,-0.31884765625,-4.634146341463415,16.76829268292683,-0.12195121951219513,70,8
5,0.654296875,-0.48486328125,-0.3173828125,-11.402439024390246,20.914634146341466,0.24390243902439027,70,8
6,0.63427734375,-0.38720703125,-0.29296875,-13.475609756097562,21.951219512195124,1.6463414634146343,70,8
7,0.62451171875,-0.5576171875,-0.26416015625,-10.792682926829269,20.670731707317074,2.5,70,8
8,0.6025390625,-0.5927734375,-0.25830078125,-6.036585365853659,18.475609756097562,3.7195121951219514,70,8
9,0.59716796875,-0.61083984375,-0.2802734375,-1.1585365853658538,16.03658536585366,5.182926829268293,70,8
10,0.591796875,-0.50341796875,-0.2841796875,3.658536585365854,11.951219512195124,6.463414634146342,70,8
11,0.5869140625,-0.650390625,-0.33544921875,7.01219512195122,7.500000000000001,7.500000000000001,70,8
12,0.57568359375,-0.662109375,-0.36474609375,8.78048780487805,5.121951219512195,7.621951219512196,70,8
13,0.57421875,-0.658203125,-0.35888671875,8.414634146341465,5.060975609756098,7.317073170731708,70,8
14,0.59814453125,-0.626953125,-0.3466796875,5.7926829268292686,7.317073170731708,6.707317073170732,70,8
15,0.62939453125,-0.57470703125,-0.33349609375,1.707317073170732,9.756097560975611,5.731707317073171,70,8
16,0.63037109375,-0.541015625,-0.3251953125,-3.1097560975609757,13.597560975609758,5.487804878048781,70,8
17,0.61669921875,-0.5419921875,-0.3037109375,-9.207317073170733,16.70731707317073,4.207317073170732,70,8
18,0.74560546875,-0.52294921875,-0.2724609375,-10.426829268292684,17.378048780487806,4.2682926829268295,70,8
19,0.61083984375,-0.515625,-0.23876953125,-8.109756097560977,14.939024390243905,4.939024390243903,70,8
20,0.587890625,-0.56103515625,-0.24658203125,-4.573170731707317,12.80487804878049,5.487804878048781,70,8
21,0.59521484375,-0.560546875,-0.26025390625,-0.6707317073170732,10.792682926829269,4.817073170731708,70,8
22,0.6162109375,-0.5517578125,-0.263671875,1.829268292682927,10.30487804878049,5.3048780487804885,70,8
23,0.62255859375,-0.55810546875,-0.2841796875,3.231707317073171,9.695121951219512,5.914634146341464,70,8
24,0.63330078125,-0.55322265625,-0.31005859375,4.2682926829268295,10.0,5.731707317073171,70,8
25,0.6669921875,-0.52294921875,-0.31396484375,2.1951219512195124,11.890243902439025,5.731707317073171,70,8
26,0.67041015625,-0.50048828125,-0.333984375,-1.707317073170732,15.000000000000002,5.426829268292684,70,8
27,0.6748046875,-0.49951171875,-0.33984375,-6.463414634146342,18.475609756097562,5.2439024390243905,70,8
28,0.68017578125,-0.4970703125,-0.32861328125,-11.52439024390244,22.743902439024392,5.0,70,8
29,0.67138671875,-0.5087890625,-0.28662109375,-14.02439024390244,25.243902439024392,5.0,70,8
30,0.666015625,-0.54296875,-0.25390625,-12.317073170731708,24.573170731707318,5.853658536585367,70,8
31,0.6494140625,-0.556640625,-0.2626953125,-8.475609756097562,22.926829268292686,6.036585365853659,70,8
32,0.6484375,-0.56103515625,-0.27783203125,-6.646341463414635,22.31707317073171,6.585365853658537,70,8
33,0.64453125,-0.54296875,-0.26318359375,-4.207317073170732,20.60975609756098,7.073170731707318,70,8
34,0.6474609375,-0.5751953125,-0.2587890625,-0.7926829268292683,18.53658536585366,7.134146341463415,70,8
35,0.669921875,-0.5830078125,-0.28466796875,1.6463414634146343,16.585365853658537,6.646341463414635,70,8
36,0.68701171875,-0.5595703125,-0.31494140625,0.9146341463414634,16.585365853658537,6.402439024390245,70,8
37,0.70556640625,-0.5302734375,-0.32373046875,-1.8902439024390245,18.53658536585366,5.853658536585367,70,8
38,0.7177734375,-0.5263671875,-0.30029296875,-5.853658536585367,21.402439024390247,4.817073170731708,70,8
39,0.70703125,-0.5341796875,-0.26416015625,-10.670731707317074,24.695121951219516,4.207317073170732,70,8
40,0.7119140625,-0.52099609375,-0.22900390625,-14.817073170731708,28.170731707317074,3.231707317073171,70,8
41,0.716796875,-0.4990234375,-0.2099609375,-17.439024390243905,30.121951219512198,1.9512195121951221,70,8
42,0.7451171875,-0.47119140625,-0.17333984375,-16.52439024390244,29.08536585365854,15.54878048780488,70,8
43,0.77734375,-0.4521484375,-0.1787109375,-11.707317073170733,25.000000000000004,-1.3414634146341464,70,8
44,0.75048828125,-0.3798828125,-0.19580078125,-6.036585365853659,19.390243902439025,0.30487804878048785,70,8
45,0.65771484375,-0.5771484375,-0.236328125,-15.487804878048783,13.353658536585368,2.1951219512195124,70,8
46,0.62353515625,-0.75,-0.2978515625,7.743902439024391,8.109756097560977,3.1707317073170733,70,8
47,0.6591796875,-0.58837890625,-0.298828125,12.317073170731708,6.890243902439025,3.353658536585366,70,8
48,0.693359375,-0.56201171875,-0.26513671875,11.036585365853659,9.817073170731708,3.5975609756097566,70,8
49,0.7041015625,-0.544921875,-0.24169921875,7.8048780487804885,13.719512195121952,2.804878048780488,70,8
50,0.689453125,-0.53955078125,-0.375,4.634146341463415,15.426829268292684,1.5853658536585367,70,8
51,0.67041015625,-0.53271484375,-0.291015625,3.2926829268292686,13.841463414634148,1.0365853658536586,70,8
52,0.65966796875,-0.55224609375,-0.3173828125,3.2926829268292686,14.146341463414636,0.3658536585365854,70,8
53,0.67626953125,-0.57080078125,-0.26611328125,2.682926829268293,15.914634146341465,0.06097560975609757,70,8
54,0.67724609375,-0.56640625,-0.21337890625,1.3414634146341464,17.865853658536587,0.30487804878048785,70,8
55,0.62841796875,-0.58203125,-0.20361328125,0.3658536585365854,19.512195121951223,0.9756097560975611,70,8
56,0.6064453125,-0.59716796875,-0.16357421875,0.06097560975609757,21.34146341463415,2.25609756097561,70,8
57,0.60888671875,-0.59228515625,-0.146484375,-0.3658536585365854,22.378048780487806,3.4756097560975614,70,8
58,0.6162109375,-0.58740234375,-0.16357421875,0.48780487804878053,22.682926829268293,4.695121951219512,70,8
59,0.61083984375,-0.5888671875,-0.1640625,2.682926829268293,21.34146341463415,4.939024390243903,70,8
60,0.60107421875,-0.59375,-0.17041015625,6.585365853658537,19.81707317073171,5.609756097560976,70,8
61,0.6083984375,-0.5927734375,-0.1826171875,9.26829268292683,19.390243902439025,5.548780487804878,70,8
62,0.6298828125,-0.556640625,-0.1923828125,9.817073170731708,20.670731707317074,5.0,70,8
63,0.6416015625,-0.55224609375,-0.2041015625,9.390243902439025,22.073170731707318,4.634146341463415,70,8
64,0.66796875,-0.53271484375,-0.2060546875,8.719512195121952,23.04878048780488,3.5975609756097566,70,8
65,0.67333984375,-0.53369140625,-0.201171875,8.475609756097562,22.682926829268293,2.987804878048781,70,8
66,0.6865234375,-0.52392578125,-0.21142578125,9.329268292682928,21.890243902439025,2.6219512195121952,70,8
67,0.67138671875,-0.54541015625,-0.228515625,8.231707317073171,22.682926829268293,2.439024390243903,70,8
68,0.67822265625,-0.5322265625,-0.20751953125,6.463414634146342,25.121951219512198,1.829268292682927,70,8
69,0.6845703125,-0.53857421875,-0.17724609375,3.231707317073171,28.353658536585368,1.5853658536585367,70,8
70,0.6806640625,-0.544921875,-0.14794921875,0.853658536585366,30.975609756097565,1.9512195121951221,70,8
71,0.6533203125,-0.57958984375,-0.13720703125,2.25609756097561,32.19512195121951,2.378048780487805,70,8
72,0.63330078125,-0.5947265625,-0.140625,6.036585365853659,32.86585365853659,2.439024390243903,70,8
73,0.6376953125,-0.5849609375,-0.14697265625,9.146341463414634,34.57317073170732,2.1951219512195124,70,8
74,0.65087890625,-0.57177734375,-0.13671875,10.487804878048781,37.43902439024391,1.0365853658536586,70,8
75,0.66650390625,-0.55712890625,-0.1484375,11.28048780487805,39.32926829268293,0.12195121951219513,70,8
76,0.68701171875,-0.537109375,-0.1728515625,12.439024390243903,42.01219512195122,-0.48780487804878053,70,8
77,0.72900390625,-0.50341796875,-0.177734375,10.853658536585368,45.0609756097561,-2.1341463414634148,70,8
78,0.74609375,-0.47900390625,-0.19189453125,6.158536585365854,48.65853658536586,-2.682926829268293,70,8
79,0.748046875,-0.484375,-0.16455078125,-2.804878048780488,52.926829268292686,-3.1707317073170733,70,8
80,0.73876953125,-0.494140625,-0.1416015625,-9.390243902439025,53.963414634146346,-4.146341463414634,70,8
81,0.712890625,-0.5244140625,-0.142578125,-10.487804878048781,49.63414634146342,-4.390243902439025,70,8
82,0.689453125,-0.5634765625,-0.14013671875,-5.975609756097562,44.207317073170735,-3.4756097560975614,70,8
83,0.65869140625,-0.50244140625,-0.12646484375,-0.1829268292682927,38.90243902439025,-2.378048780487805,70,8
84,0.65283203125,-0.62890625,-0.01025390625,6.707317073170732,33.90243902439025,-1.829268292682927,70,8
85,0.66455078125,-0.6015625,-0.1259765625,11.890243902439025,30.60975609756098,-1.0975609756097562,70,8
86,0.66455078125,-0.5751953125,-0.12890625,13.963414634146343,28.475609756097562,-15.609756097560977,70,8
87,0.63134765625,-0.578125,-0.15283203125,13.963414634146343,27.500000000000004,0.9756097560975611,70,8
88,0.619140625,-0.57080078125,-0.16552734375,13.719512195121952,26.707317073170735,1.8902439024390245,70,8
89,0.6162109375,-0.5546875,-0.208984375,12.987804878048781,24.512195121951223,2.1341463414634148,70,8
90,0.65771484375,-0.48291015625,-0.24267578125,10.0,24.939024390243905,2.073170731707317,70,8
91,0.6767578125,-0.478515625,-0.275390625,4.024390243902439,26.34146341463415,1.8902439024390245,70,8
92,0.70263671875,-0.45166015625,-0.28466796875,-1.2804878048780488,28.59756097560976,1.2195121951219514,70,8
93,0.7236328125,-0.43212890625,-0.29833984375,-6.463414634146342,29.75609756097561,0.9146341463414634,70,8
94,0.73974609375,-0.4169921875,-0.3125,-11.097560975609756,31.463414634146343,0.12195121951219513,70,8
95,0.73828125,-0.4248046875,-0.298828125,-16.28048780487805,32.6829268292683,-0.1829268292682927,70,8
96,0.712890625,-0.447265625,-0.287109375,-18.658536585365855,33.90243902439025,0.48780487804878053,70,8
97,0.68701171875,-0.4736328125,-0.36328125,-19.695121951219512,35.609756097560975,1.2804878048780488,70,8
98,0.67431640625,-0.48486328125,-0.2109375,-21.890243902439025,36.03658536585366,2.7439024390243905,70,8
99,0.66748046875,-0.4736328125,-0.2294921875,-24.085365853658537,35.73170731707317,3.8414634146341466,70,8
100,0.67626953125,-0.455078125,-0.24853515625,-25.792682926829272,34.75609756097561,3.536585365853659,70,8
101,0.66650390625,-0.45751953125,-0.24072265625,-26.03658536585366,32.80487804878049,3.2926829268292686,70,8
102,0.69482421875,-0.46337890625,-0.23193359375,-23.59756097560976,29.695121951219516,2.3170731707317076,70,8
103,0.71142578125,-0.4833984375,-0.26123046875,-19.512195121951223,24.390243902439025,1.402439024390244,70,8
104,0.7109375,-0.490234375,-0.30810546875,-15.853658536585368,20.182926829268293,0.30487804878048785,70,8
105,0.69091796875,-0.4873046875,-0.298828125,-12.987804878048781,16.951219512195124,-0.48780487804878053,70,8
106,0.6796875,-0.48583984375,-0.3017578125,-12.500000000000002,15.060975609756099,-1.3414634146341464,70,8
107,0.685546875,-0.44580078125,-0.25634765625,-0.3658536585365854,16.097560975609756,-2.378048780487805,70,8
108,0.68603515625,-0.4267578125,-0.228515625,-22.073170731707318,18.53658536585366,-3.5975609756097566,70,8
109,0.669921875,-0.40673828125,-0.2109375,-26.402439024390247,19.207317073170735,-4.024390243902439,70,8
110,0.64501953125,-0.43017578125,-0.21435546875,-27.621951219512198,18.475609756097562,-4.024390243902439,70,8
111,0.64697265625,-0.4375,-0.2236328125,-25.853658536585368,15.609756097560977,-4.695121951219512,70,8
112,0.65283203125,-0.45556640625,-0.25927734375,-23.53658536585366,12.01219512195122,-5.548780487804878,70,8
113,0.68701171875,-0.4169921875,-0.2900390625,-23.53658536585366,10.30487804878049,-5.731707317073171,70,8
114,0.6884765625,-0.41455078125,-0.29833984375,-26.28048780487805,10.365853658536587,-7.073170731707318,70,8
115,0.6845703125,-0.404296875,-0.30712890625,-29.207317073170735,10.792682926829269,-8.414634146341465,70,8
116,0.70263671875,-0.388671875,-0.31982421875,-32.5,10.548780487804878,-9.939024390243903,70,8
117,0.71630859375,-0.361328125,-0.3076171875,-37.6219512195122,12.439024390243903,-11.219512195121952,70,8
118,0.693359375,-0.37158203125,-0.27099609375,-44.57317073170732,14.51219512195122,-11.585365853658537,70,8
119,0.69189453125,-0.36572265625,-0.25830078125,-50.243902439024396,16.34146341463415,-12.80487804878049,70,8
120,0.67529296875,-0.3505859375,-0.2412109375,-54.63414634146342,17.926829268292686,-13.536585365853659,70,8
121,0.685546875,-0.25341796875,-0.2568359375,-58.35365853658537,18.231707317073173,-13.902439024390246,70,8
122,0.68310546875,-0.392578125,-0.287109375,-59.207317073170735,17.134146341463417,-14.695121951219514,70,8
123,0.67724609375,-0.3935546875,-0.2802734375,-58.78048780487806,16.158536585365855,-15.426829268292684,70,8
124,0.6982421875,-0.3701171875,-0.31689453125,-60.243902439024396,15.975609756097562,-16.585365853658537,70,8
125,0.71044921875,-0.35302734375,-0.33837890625,-64.20731707317074,16.463414634146343,-18.597560975609756,70,8
126,0.744140625,-0.298828125,-0.3359375,-71.21951219512195,19.085365853658537,-20.48780487804878,70,8
127,0.73779296875,-0.31298828125,-0.31396484375,-78.71951219512196,21.951219512195124,-21.585365853658537,70,8
128,0.734375,-0.32373046875,-0.2939453125,-84.08536585365854,23.414634146341466,-22.80487804878049,70,8
129,0.71826171875,-0.328125,-0.29052734375,-86.82926829268294,24.32926829268293,-23.902439024390247,70,8
130,0.71728515625,-0.3271484375,-0.2705078125,-90.2439024390244,24.75609756097561,-24.695121951219516,70,8
131,0.71533203125,-0.33447265625,-0.26708984375,-92.8048780487805,25.30487804878049,-25.670731707317074,70,8
132,0.7099609375,-0.32763671875,-0.275390625,-94.51219512195122,25.30487804878049,-26.463414634146343,70,8
133,0.7509765625,-0.29736328125,-0.29443359375,-97.31707317073172,25.60975609756098,-28.53658536585366,70,8
134,0.77392578125,-0.29345703125,-0.30615234375,-102.8048780487805,27.743902439024392,-29.695121951219516,70,8
135,0.78466796875,-0.2705078125,-0.32666015625,-109.14634146341464,30.182926829268297,-31.463414634146343,70,8
136,0.79150390625,-0.25537109375,-0.32861328125,-116.28048780487806,33.90243902439025,-34.32926829268293,70,8
137,0.79931640625,-0.2353515625,-0.33056640625,-123.17073170731709,37.43902439024391,-36.15853658536586,70,8
138,0.7958984375,-0.2705078125,-0.330078125,-127.50000000000001,38.35365853658537,-38.47560975609756,70,8
139,0.80322265625,-0.27099609375,-0.36083984375,-129.20731707317074,36.646341463414636,-41.28048780487805,70,8
140,0.7958984375,-0.259765625,-0.37060546875,-128.90243902439025,36.09756097560976,-43.41463414634147,70,8
141,0.833984375,-0.2666015625,-0.40576171875,-130.0,34.024390243902445,-45.91463414634147,70,8
142,0.8271484375,-0.2578125,-0.42236328125,-132.5,34.024390243902445,-47.804878048780495,70,8
143,0.82666015625,-0.23779296875,-0.44384765625,-135.7317073170732,33.109756097560975,-50.0609756097561,70,8
144,0.8583984375,-0.19189453125,-0.46923828125,-140.1829268292683,35.0609756097561,-53.84146341463415,70,8
145,0.8671875,-0.18798828125,-0.4462890625,-147.9878048780488,37.5609756097561,-55.79268292682927,70,8
146,0.9970703125,-0.189453125,-0.4189453125,-152.31707317073173,39.57317073170732,-57.19512195121952,70,8
147,0.888671875,-0.18212890625,-0.44873046875,-157.19512195121953,41.34146341463415,-59.63414634146342,70,8
148,0.87841796875,-0.18359375,-0.42724609375,-160.4878048780488,41.40243902439025,-61.585365853658544,70,8
149,0.890625,-0.18115234375,-0.4765625,-162.07317073170734,39.63414634146342,-64.63414634146342,70,8
150,0.91455078125,-0.16357421875,-0.4853515625,-162.5609756097561,38.71951219512196,-68.59756097560977,70,8
151,0.95947265625,-0.142578125,-0.4951171875,-163.78048780487805,38.65853658536586,-71.76829268292684,70,8
152,0.9775390625,-0.14208984375,-0.513671875,-166.28048780487805,38.53658536585366,-75.97560975609757,70,8
153,0.99560546875,-0.11181640625,-0.515625,-168.2317073170732,39.08536585365854,-80.0609756097561,70,8
154,1.01953125,-0.12060546875,-0.505859375,-171.03658536585368,38.71951219512196,-83.53658536585367,70,8
155,1.0126953125,-0.12255859375,-0.5068359375,-173.53658536585368,38.59756097560976,-87.43902439024392,70,8
156,1.029296875,-0.06982421875,-0.537109375,-173.109756097561,37.80487804878049,-92.50000000000001,70,8
157,1.0458984375,-0.044921875,-0.53125,-175.6707317073171,38.59756097560976,-97.37804878048782,70,8
158,1.09375,-0.0263671875,-0.56005859375,-178.90243902439025,39.69512195121951,-101.76829268292684,70,8
159,1.115234375,-0.02294921875,-0.55029296875,-181.95121951219514,41.768292682926834,-106.70731707317074,70,8
160,1.13134765625,-0.03759765625,-0.546875,-182.8048780487805,41.951219512195124,-110.1219512195122,70,8
161,1.14111328125,-0.0400390625,-0.55908203125,-183.71951219512198,42.6219512195122,-114.08536585365854,70,8
162,1.142578125,-0.01708984375,-0.57080078125,-186.40243902439025,43.41463414634147,-117.7439024390244,70,8
163,1.15234375,0.0078125,-0.56787109375,-187.37804878048783,43.10975609756098,-122.6829268292683,70,8
164,1.18994140625,0.02587890625,-0.55126953125,-189.02439024390245,44.57317073170732,-127.19512195121952,70,8
165,1.1953125,0.0087890625,-0.56103515625,-191.64634146341464,46.09756097560976,-130.7317073170732,70,8
166,1.20068359375,0.029296875,-0.5458984375,-193.2926829268293,46.707317073170735,-134.9390243902439,70,8
167,1.203125,0.0498046875,-0.54736328125,-191.46341463414635,45.79268292682927,-139.08536585365854,70,8
168,1.22802734375,0.07861328125,-0.55908203125,-188.59756097560978,43.170731707317074,-143.71951219512195,70,8
169,1.28564453125,0.00048828125,-0.6083984375,-190.97560975609758,45.73170731707317,-150.3658536585366,70,8
170,1.31640625,0.169921875,-0.59814453125,-198.65853658536588,50.426829268292686,-156.89024390243904,70,8
171,1.33740234375,0.16845703125,-0.583984375,-206.40243902439028,54.81707317073171,-161.82926829268294,70,8
172,1.33251953125,0.091796875,-0.5654296875,-210.2439024390244,58.59756097560976,-168.65853658536588,70,8
173,1.35107421875,0.07080078125,-0.56396484375,-207.50000000000003,60.1219512195122,-174.20731707317074,70,8
174,1.416015625,0.0,-0.61962890625,-203.65853658536588,60.1219512195122,-177.07317073170734,70,8
175,1.47412109375,0.162109375,-0.45263671875,-200.609756097561,60.487804878048784,-179.14634146341464,70,8
176,1.52685546875,0.21240234375,-0.43310546875,-199.75609756097563,61.646341463414636,-181.82926829268294,70,8
177,1.57763671875,0.29833984375,-0.40625,-200.00000000000003,64.32926829268293,-186.28048780487808,70,8
178,1.5869140625,0.3193359375,-0.34423828125,-200.4878048780488,67.6829268292683,-191.64634146341464,70,8
179,1.6083984375,0.298828125,-0.35791015625,-199.08536585365854,68.84146341463415,-198.59756097560978,70,8
180,1.5966796875,0.31298828125,-0.3310546875,-192.9878048780488,67.31707317073172,-205.06097560975613,70,8
181,1.60400390625,0.3271484375,-0.2900390625,-183.109756097561,63.41463414634147,-210.00000000000003,70,8
182,1.60693359375,0.31787109375,-0.2802734375,-174.08536585365854,61.09756097560976,-214.69512195121953,70,8
183,1.61083984375,0.3232421875,-0.291015625,-166.89024390243904,59.451219512195124,-219.57317073170734,70,8
184,1.5888671875,0.306640625,-0.13330078125,-162.19512195121953,58.47560975609757,-224.81707317073173,70,8
185,1.5810546875,0.30517578125,-0.20068359375,-157.6219512195122,58.963414634146346,-229.14634146341464,70,8
186,1.5791015625,0.31591796875,-0.1533203125,-153.65853658536588,58.78048780487806,-232.31707317073173,70,8
187,1.58544921875,0.32666015625,-0.11572265625,-148.35365853658539,57.43902439024391,-234.93902439024393,70,8
188,1.58544921875,0.32470703125,-0.1162109375,-143.2317073170732,56.463414634146346,-237.01219512195124,70,8
189,1.5751953125,0.30712890625,-0.05810546875,-135.609756097561,54.024390243902445,-238.71951219512198,70,8
190,1.58642578125,0.33984375,-0.03515625,-127.07317073170732,50.54878048780488,-241.40243902439028,70,8
191,1.591796875,0.37890625,-0.03271484375,-120.67073170731709,48.23170731707317,-243.65853658536588,70,8
192,1.58056640625,0.39453125,-0.01171875,-117.7439024390244,48.71951219512196,-248.90243902439028,70,8
193,1.5810546875,0.41845703125,-0.021484375,-115.73170731707319,48.35365853658537,-253.59756097560978,70,8
194,1.546875,0.43994140625,0.00244140625,-115.91463414634147,49.32926829268293,-257.13414634146346,70,8
195,1.5,0.41845703125,-0.0048828125,-118.10975609756099,52.19512195121952,-259.7560975609756,70,8
196,1.4501953125,0.36865234375,0.03662109375,-119.57317073170732,54.39024390243903,-260.6707317073171,70,8
197,1.39697265625,0.3173828125,0.0712890625,-116.76829268292684,56.28048780487806,-261.0975609756098,70,8
198,1.36474609375,0.25732421875,0.09228515625,-110.06097560975611,56.463414634146346,-260.3048780487805,70,8
199,1.3076171875,0.2109375,0.12109375,-101.64634146341464,54.51219512195122,-259.20731707317077,70,8
200,1.27099609375,0.1611328125,0.07568359375,-92.5609756097561,51.34146341463415,-256.3414634146342,70,8
201,1.20166015625,0.14404296875,0.08349609375,-84.02439024390245,49.75609756097561,-256.2804878048781,70,8
202,1.15380859375,0.24853515625,0.078125,-76.52439024390245,48.53658536585366,-254.75609756097563,70,8
203,1.099609375,0.1181640625,0.0625,-72.37804878048782,46.82926829268293,-254.14634146341464,70,8
204,1.06982421875,0.11181640625,0.0810546875,-67.31707317073172,46.89024390243903,-255.24390243902442,70,8
205,1.0302734375,0.1025390625,0.1201171875,-64.57317073170732,46.463414634146346,-253.84146341463418,70,8
206,1.00048828125,0.06884765625,0.130859375,-61.82926829268293,46.21951219512196,-252.8658536585366,70,8
207,0.94775390625,0.04345703125,0.14111328125,-59.207317073170735,45.304878048780495,-251.46341463414637,70,8
208,0.88427734375,-0.00927734375,0.12841796875,-55.0609756097561,44.390243902439025,-247.43902439024393,70,8
209,0.77783203125,-0.10546875,0.1259765625,-48.53658536585366,42.6219512195122,-241.21951219512198,70,8
210,0.7041015625,-0.16552734375,0.15087890625,-39.75609756097561,41.15853658536586,-235.18292682926833,70,8
211,0.65185546875,-0.2255859375,0.1064453125,-33.109756097560975,38.10975609756098,-228.53658536585368,70,8
212,0.587890625,-0.27880859375,0.11328125,-29.32926829268293,35.85365853658537,-222.25609756097563,70,8
213,0.50732421875,-0.357421875,0.12548828125,-26.28048780487805,35.30487804878049,-216.52439024390245,70,8
214,0.4423828125,-0.44580078125,0.18212890625,-23.29268292682927,33.65853658536586,-208.0487804878049,70,8
215,0.49560546875,-0.52001953125,0.22265625,-20.48780487804878,33.78048780487805,-198.84146341463418,70,8
216,0.3271484375,-0.560546875,0.3056640625,-17.012195121951223,35.30487804878049,-189.39024390243904,70,8
217,0.20849609375,-0.50537109375,0.3212890625,-17.5609756097561,36.40243902439025,-178.109756097561,70,8
218,0.10595703125,-0.67041015625,0.3828125,-17.804878048780488,39.63414634146342,-167.7439024390244,70,8
219,-0.0146484375,-0.72216796875,0.45068359375,-16.76829268292683,40.97560975609756,-158.0487804878049,70,8
220,-0.083984375,-0.763671875,0.46240234375,-15.243902439024392,40.97560975609756,-148.90243902439025,70,8
221,-0.1865234375,-0.87353515625,0.46240234375,-11.28048780487805,39.146341463414636,-137.8048780487805,70,8
222,-0.28759765625,-0.96826171875,0.46337890625,-2.8658536585365857,35.79268292682927,-125.00000000000001,70,8
223,-0.43701171875,-1.13623046875,0.5205078125,7.073170731707318,32.31707317073171,-123.90243902439026,70,8
224,-0.55322265625,-1.37451171875,0.5439453125,17.98780487804878,29.512195121951223,-88.65853658536587,70,8
225,-0.703125,-1.40283203125,0.478515625,25.914634146341466,27.439024390243905,-67.07317073170732,70,8
226,-0.76953125,-1.45947265625,0.3779296875,33.170731707317074,25.426829268292686,-42.19512195121951,70,8
227,-0.8505859375,-1.5322265625,0.52978515625,36.03658536585366,27.073170731707318,-18.719512195121954,70,8
228,-0.82421875,-1.52978515625,0.6240234375,32.987804878048784,32.80487804878049,3.5975609756097566,70,8
229,-0.798828125,-1.58154296875,0.63916015625,29.146341463414636,39.51219512195122,25.60975609756098,70,8
230,-0.75,-1.6572265625,0.5966796875,29.573170731707318,41.03658536585366,46.40243902439025,70,8
231,-0.7490234375,-1.82275390625,0.50341796875,35.1219512195122,44.390243902439025,69.26829268292684,70,8
232,-0.6298828125,-1.90478515625,0.48095703125,48.65853658536586,41.524390243902445,91.21951219512196,70,8
233,-0.55126953125,-2.02587890625,0.4453125,66.34146341463415,39.57317073170732,114.20731707317074,70,8
234,-0.41357421875,-2.08154296875,0.4765625,82.7439024390244,37.5,135.91463414634148,70,8
235,-0.25927734375,-2.0009765625,0.37646484375,95.85365853658537,37.80487804878049,155.91463414634148,70,8
236,-0.08740234375,-2.15234375,0.35791015625,105.1219512195122,41.21951219512196,176.40243902439025,70,8
237,0.0439453125,-2.2119140625,0.318359375,111.52439024390245,42.987804878048784,197.8658536585366,70,8
238,0.12060546875,-2.33984375,0.31787109375,123.17073170731709,45.0609756097561,223.0487804878049,70,8
239,0.20068359375,-2.49951171875,0.33203125,134.08536585365854,48.59756097560976,253.41463414634148,70,8
240,0.26318359375,-2.65625,0.49658203125,142.19512195121953,51.09756097560976,286.82926829268297,70,8
241,0.26611328125,-2.78759765625,0.33935546875,149.93902439024393,56.03658536585366,321.95121951219517,70,8
242,0.6201171875,-2.93212890625,0.28125,159.26829268292684,59.57317073170732,357.9268292682927,70,8
243,0.7529296875,-3.00927734375,0.1318359375,170.5487804878049,62.25609756097562,375.7317073170732,70,8
244,1.21484375,-3.3017578125,-0.03955078125,181.76829268292684,62.926829268292686,407.68292682926835,70,8
245,1.6435546875,-3.5498046875,-0.1103515625,202.19512195121953,63.90243902439025,438.5365853658537,70,8
246,2.1181640625,-3.80029296875,-0.31103515625,203.78048780487808,52.86585365853659,470.7926829268293,70,8
247,2.58349609375,-3.890625,-0.46728515625,255.4268292682927,43.963414634146346,522.5,70,8
248,3.482421875,-4.21142578125,-0.7431640625,294.20731707317077,35.670731707317074,556.219512195122,70,8
249,4.041015625,-4.26025390625,-1.1220703125,339.0243902439025,38.59756097560976,580.1829268292684,70,8
250,4.81396484375,-4.3349609375,-1.37744140625,343.5975609756098,57.6829268292683,593.2926829268293,70,8
251,5.17041015625,-4.47119140625,-1.47021484375,376.0975609756098,82.43902439024392,627.2560975609757,70,8
252,5.64013671875,-4.70263671875,-1.83935546875,400.4268292682927,100.85365853658537,683.4756097560976,70,8
253,6.16552734375,-4.8046875,-2.263671875,427.80487804878055,108.65853658536587,727.5609756097562,70,8
254,7.13330078125,-4.70361328125,-3.109375,456.5243902439025,129.75609756097563,749.329268292683,70,8
255,8.01123046875,-4.16162109375,-3.6962890625,482.68292682926835,163.59756097560978,795.6707317073171,70,8
256,9.216796875,-3.64794921875,-4.20849609375,501.5853658536586,159.45121951219514,813.2317073170732,70,8
257,9.1376953125,-2.9931640625,-4.68603515625,523.2317073170732,112.07317073170732,831.6463414634147,70,8
258,9.43310546875,-2.7783203125,-5.44873046875,542.2560975609756,55.85365853658537,819.8780487804879,70,8
259,9.5859375,-2.53662109375,-5.77783203125,605.9756097560976,-20.365853658536587,797.6829268292684,70,8
260,8.98779296875,-2.86865234375,-5.4765625,682.3780487804879,-131.52439024390245,759.0243902439025,70,8
261,8.23486328125,-3.7109375,-5.31396484375,805.6707317073171,-322.9878048780488,713.048780487805,70,8
262,6.78515625,-4.95703125,-6.84130859375,1002.9268292682927,-530.9146341463415,621.0975609756098,70,8
263,5.93212890625,-4.86474609375,-8.939453125,1193.4756097560976,-771.1585365853659,829.1463414634147,70,8
264,7.12255859375,-16.0,-13.2490234375,716.8902439024391,-612.1341463414635,-355.3048780487805,70,8
265,12.74951171875,15.99951171875,-4.1181640625,912.9878048780489,-302.25609756097566,317.31707317073176,70,8
266,-5.7763671875,-12.25,-1.6689453125,1373.59756097561,-533.5365853658537,-32.43902439024391,70,8
267,12.05224609375,-1.29248046875,0.19287109375,1112.5609756097563,-343.4146341463415,-158.47560975609758,70,8
268,1.86962890625,2.87060546875,-4.68017578125,1127.6219512195123,15.853658536585368,-203.2317073170732,70,8
269,4.89599609375,-1.171875,-1.03857421875,797.8048780487806,-69.20731707317074,-279.39024390243907,70,8
270,4.845703125,2.10791015625,-0.8173828125,936.9512195121952,-87.8658536585366,-352.9878048780488,70,8
271,4.6083984375,-1.66845703125,-2.1220703125,812.6829268292684,-82.13414634146342,-452.9878048780488,70,8
272,3.4853515625,-2.11328125,-2.12548828125,704.8780487804879,-78.35365853658537,-561.0975609756098,70,8
273,3.2998046875,-1.400390625,-2.67236328125,628.5365853658537,-67.6219512195122,-609.6341463414635,70,8
274,3.14697265625,-1.61083984375,-2.7294921875,555.548780487805,-53.10975609756098,-674.8170731707318,70,8
275,2.71337890625,-1.7568359375,-1.9970703125,426.4634146341464,7.621951219512196,-684.8780487804879,70,8
276,1.85888671875,-2.41455078125,-1.1298828125,332.13414634146346,89.51219512195122,-676.8902439024391,70,8
277,1.513671875,-2.20556640625,-0.76904296875,274.63414634146346,140.6707317073171,-666.8902439024391,70,8
278,1.2978515625,-2.02197265625,-0.89794921875,259.51219512195127,179.08536585365854,-667.8658536585366,70,8
279,1.0205078125,-1.77587890625,-1.24169921875,247.19512195121953,206.40243902439028,-665.1219512195122,70,8
280,1.45703125,-1.2626953125,-1.2255859375,249.20731707317074,203.2317073170732,-661.0975609756098,70,8
281,1.71875,-0.95166015625,-0.966796875,217.25609756097563,228.65853658536588,-655.2439024390244,70,8
282,2.208984375,-0.64404296875,-1.115234375,153.53658536585368,240.3048780487805,-651.219512195122,70,8
283,3.083984375,-0.61572265625,-1.36376953125,72.6829268292683,234.81707317073173,-639.1463414634147,70,8
284,2.69580078125,-0.91064453125,-1.6767578125,-25.731707317073173,263.109756097561,-598.5365853658537,70,8
285,2.6484375,-1.1591796875,-1.59521484375,-99.02439024390245,279.75609756097566,-572.1341463414635,70,8
286,2.3486328125,-1.5654296875,-1.3388671875,-137.9878048780488,280.2439024390244,-543.1707317073171,70,8
287,1.955078125,-1.74365234375,-1.12744140625,-162.8048780487805,287.31707317073176,-516.5853658536586,70,8
288,1.3876953125,-1.58837890625,-0.79638671875,-179.75609756097563,287.7439024390244,-488.8414634146342,70,8
289,0.9228515625,-1.435546875,-0.6396484375,-182.50000000000003,280.9756097560976,-458.4146341463415,70,8
290,0.7626953125,-1.07177734375,-0.6953125,-172.25609756097563,306.0975609756098,-430.4268292682927,70,8
291,0.65478515625,-0.8056640625,-0.65966796875,-196.95121951219514,306.70731707317077,-420.06097560975616,70,8
292,0.587890625,-0.796875,-0.8056640625,-200.97560975609758,306.3414634146342,-381.95121951219517,70,8
293,0.46142578125,-0.677734375,-0.9609375,-204.39024390243904,303.5975609756098,-359.32926829268297,70,8
294,0.61572265625,-0.63720703125,-1.21630859375,-216.15853658536588,311.1585365853659,-345.609756097561,70,8
295,0.53759765625,-0.65087890625,-1.32470703125,-214.69512195121953,293.8414634146342,-317.07317073170736,70,8
296,0.3984375,-0.5888671875,-1.13330078125,-203.96341463414635,287.5609756097561,-293.4756097560976,70,8
297,0.19189453125,-0.5166015625,-1.0439453125,-203.59756097560978,286.219512195122,-271.95121951219517,70,8
298,0.0361328125,-0.42041015625,-0.966796875,-204.02439024390245,291.1585365853659,-254.45121951219514,70,8
299,-0.05419921875,-0.3173828125,-0.9482421875,-220.7926829268293,293.9024390243903,-246.82926829268294,70,8
300,0.02392578125,-0.1650390625,-1.0263671875,-210.4878048780488,280.3048780487805,-231.76829268292684,70,8
301,-0.107421875,-0.05615234375,-0.9287109375,-214.39024390243904,265.4268292682927,-223.53658536585368,70,8
302,-0.1708984375,-0.05712890625,-0.8798828125,-208.96341463414635,247.13414634146343,-212.62195121951223,70,8
303,-0.15771484375,-0.0830078125,-0.82275390625,-208.2317073170732,226.21951219512198,-201.58536585365854,70,8
304,-0.24169921875,-0.240234375,-0.74658203125,-210.97560975609758,234.02439024390245,-188.65853658536588,70,8
305,-0.40625,-0.24609375,-0.66943359375,-225.4268292682927,215.18292682926833,-181.70731707317074,70,8
306,-0.51513671875,-0.2294921875,-0.6552734375,-232.68292682926833,209.51219512195124,-173.35365853658539,70,8
307,-0.56640625,-0.140625,-0.6845703125,-226.46341463414637,192.19512195121953,-165.7317073170732,70,8
308,-0.50439453125,-0.18896484375,-0.82421875,-215.5487804878049,172.43902439024393,-171.15853658536588,70,8
309,-0.666015625,-0.21728515625,-0.828125,-200.12195121951223,156.95121951219514,-144.20731707317074,70,8
310,-0.791015625,-0.13427734375,-0.69775390625,-188.41463414634148,146.64634146341464,-131.46341463414635,70,8
311,-0.76025390625,-0.2939453125,-0.5068359375,-186.28048780487808,142.31707317073173,-118.84146341463416,70,8
312,-0.96728515625,-0.287109375,-0.43798828125,-188.47560975609758,140.6707317073171,-107.6829268292683,70,8
313,-1.025390625,-0.26513671875,-0.38671875,-191.34146341463418,142.07317073170734,-100.67073170731709,70,8
314,-0.96875,-0.14208984375,-0.55712890625,-183.59756097560978,137.8048780487805,-92.37804878048782,70,8
315,-1.041015625,-0.2568359375,-0.79931640625,-178.71951219512198,129.32926829268294,-87.8658536585366,70,8
316,-0.98876953125,-0.14111328125,-0.71435546875,-160.6707317073171,121.70731707317074,-82.19512195121952,70,8
317,-1.01904296875,-0.296875,-0.69775390625,-151.70731707317074,112.37804878048782,-73.29268292682927,70,8
318,-1.103515625,-0.33154296875,-0.6845703125,-137.6829268292683,104.69512195121952,-62.987804878048784,70,8
319,-1.20458984375,-0.361328125,-0.6650390625,-127.50000000000001,94.81707317073172,-52.987804878048784,70,8
320,-1.26904296875,-0.37109375,-0.69287109375,-115.67073170731709,84.87804878048782,-46.09756097560976,70,8
321,-1.24609375,-0.3212890625,-0.53271484375,-102.25609756097562,80.1219512195122,-38.78048780487805,70,8
322,-1.25146484375,-0.35693359375,-0.6025390625,-103.84146341463415,72.5609756097561,-33.35365853658537,70,8
323,-1.15869140625,-0.25927734375,-0.74462890625,-99.45121951219512,66.64634146341464,-27.378048780487806,70,8
324,-1.1962890625,-0.3720703125,-0.72216796875,-96.28048780487806,55.79268292682927,-21.34146341463415,70,8
325,-1.19482421875,-0.267578125,-0.78662109375,-86.21951219512196,45.670731707317074,-16.951219512195124,70,8
326,-1.1611328125,-0.27099609375,-0.71240234375,-75.91463414634147,36.28048780487805,-11.52439024390244,70,8
327,-1.17822265625,-0.271484375,-0.642578125,-66.89024390243902,25.121951219512198,-5.853658536585367,70,8
328,-1.212890625,-0.28076171875,-0.58642578125,-58.47560975609757,12.74390243902439,-1.5853658536585367,70,8
329,-1.23974609375,-0.2734375,-0.61083984375,-48.10975609756098,1.402439024390244,2.6219512195121952,70,8
330,-1.24609375,-0.27392578125,-0.59521484375,-42.804878048780495,-6.829268292682928,6.951219512195123,70,8
331,-1.25341796875,-0.255859375,-0.5546875,-40.243902439024396,-15.609756097560977,10.548780487804878,70,8
332,-1.24560546875,-0.2373046875,-0.54638671875,-36.951219512195124,-22.743902439024392,15.182926829268293,70,8
333,-1.25732421875,-0.23046875,-0.5439453125,-33.47560975609756,-30.000000000000004,19.878048780487806,70,8
334,-1.12890625,-0.21923828125,-0.5478515625,-27.378048780487806,-36.524390243902445,25.182926829268293,70,8
335,-1.25048828125,-0.20166015625,-0.51025390625,-18.29268292682927,-43.29268292682927,30.792682926829272,70,8
336,-1.2431640625,-0.166015625,-0.49609375,-10.365853658536587,-48.29268292682927,34.93902439024391,70,8
337,-1.2236328125,-0.1259765625,-0.4814453125,-3.658536585365854,-51.89024390243903,37.43902439024391,70,8
338,-1.20263671875,-0.0703125,-0.4521484375,2.25609756097561,-56.28048780487806,39.390243902439025,70,8
339,-1.18701171875,-0.0390625,-0.39453125,6.707317073170732,-60.67073170731708,40.85365853658537,70,8
340,-1.166015625,-0.001953125,-0.3671875,10.548780487804878,-64.45121951219512,41.951219512195124,70,8
341,-1.1611328125,0.00634765625,-0.3154296875,14.451219512195124,-68.53658536585367,42.6829268292683,70,8
342,-1.16015625,0.04150390625,-0.31884765625,18.719512195121954,-73.47560975609757,42.926829268292686,70,8
343,-1.142578125,0.06494140625,-0.3173828125,24.32926829268293,-62.987804878048784,43.170731707317074,70,8
344,-1.12939453125,0.08349609375,-0.30224609375,29.634146341463417,-83.84146341463415,42.37804878048781,70,8
345,-1.12255859375,0.11572265625,-0.27587890625,33.84146341463415,-88.23170731707317,42.01219512195122,70,8
346,-1.11328125,0.13330078125,-0.37109375,37.743902439024396,-91.40243902439025,41.768292682926834,70,8
347,-1.1103515625,0.15380859375,-0.22802734375,40.54878048780488,-95.67073170731709,41.28048780487805,70,8
348,-1.11376953125,0.158203125,-0.1953125,43.59756097560976,-99.63414634146342,40.97560975609756,70,8
349,-1.12744140625,0.15625,-0.16845703125,45.670731707317074,-103.65853658536587,40.670731707317074,70,8
350,-1.134765625,0.16015625,-0.13330078125,46.951219512195124,-107.6829268292683,40.1829268292683,70,8
351,-1.14306640625,0.15966796875,-0.1015625,47.743902439024396,-111.09756097560977,39.69512195121951,70,8
352,-1.1416015625,0.16015625,-0.0712890625,48.65853658536586,-114.26829268292684,39.390243902439025,70,8
353,-1.13623046875,0.166015625,-0.0546875,49.32926829268293,-116.09756097560977,38.90243902439025,70,8
354,-1.24267578125,0.197265625,-0.0517578125,50.79268292682927,-117.56097560975611,38.53658536585366,70,8
355,-1.10595703125,0.20263671875,-0.02587890625,52.50000000000001,-121.03658536585367,37.926829268292686,70,8
356,-1.099609375,0.220703125,-0.02392578125,54.75609756097561,-109.45121951219514,37.19512195121951,70,8
357,-1.0693359375,0.23583984375,-0.0224609375,57.01219512195122,-128.2926829268293,35.1829268292683,70,8
358,-1.01806640625,0.26025390625,-0.12158203125,56.82926829268293,-128.41463414634148,33.65853658536586,70,8
359,-1.125,0.2890625,0.03515625,55.54878048780488,-130.1829268292683,32.6219512195122,70,8
360,-0.9951171875,0.27783203125,0.04931640625,54.451219512195124,-132.6219512195122,31.646341463414636,70,8
361,-1.1201171875,0.26953125,0.0947265625,53.963414634146346,-134.75609756097563,30.243902439024392,70,8
362,-0.99169921875,0.26220703125,0.14111328125,54.451219512195124,-134.69512195121953,28.353658536585368,70,8
363,-0.9501953125,0.2734375,0.15478515625,54.146341463414636,-134.9390243902439,27.073170731707318,70,8
364,-0.931640625,0.29345703125,0.17919921875,55.0609756097561,-136.03658536585368,25.792682926829272,70,8
365,-0.90966796875,0.298828125,0.19873046875,57.926829268292686,-138.0487804878049,25.121951219512198,70,8
366,-0.8955078125,0.30078125,0.228515625,62.37804878048781,-141.15853658536588,24.695121951219516,70,8
367,-0.8857421875,0.30224609375,0.25830078125,65.60975609756098,-140.6707317073171,23.10975609756098,70,8
368,-0.84814453125,0.3291015625,0.36865234375,66.95121951219512,-140.3048780487805,21.402439024390247,70,8
369,-0.82421875,0.35986328125,0.2353515625,66.64634146341464,-139.26829268292684,19.939024390243905,70,8
370,-0.8017578125,0.37158203125,0.236328125,65.3658536585366,-140.3658536585366,19.02439024390244,70,8
371,-0.79736328125,0.373046875,0.2353515625,64.75609756097562,-142.13414634146343,18.29268292682927,70,8
372,-0.80859375,0.3515625,0.283203125,65.48780487804879,-145.3048780487805,18.414634146341466,70,8
373,-0.81201171875,0.318359375,0.3349609375,68.04878048780489,-148.0487804878049,18.04878048780488,70,8
374,-0.806640625,0.2939453125,0.37841796875,69.93902439024392,-146.89024390243904,16.28048780487805,70,8
375,-0.77392578125,0.30517578125,0.40234375,69.51219512195122,-145.6707317073171,15.182926829268293,70,8
376,-0.74267578125,0.32958984375,0.36865234375,69.20731707317074,-145.0609756097561,13.902439024390246,70,8
377,-0.72265625,0.35205078125,0.3681640625,70.3048780487805,-146.70731707317074,12.987804878048781,70,8
378,-0.697265625,0.36474609375,0.49365234375,71.64634146341464,-148.47560975609758,13.231707317073171,70,8
379,-0.65869140625,0.3857421875,0.37841796875,70.48780487804879,-149.08536585365854,12.865853658536587,70,8
380,-0.615234375,0.41162109375,0.37841796875,67.07317073170732,-148.1707317073171,12.317073170731708,70,8
381,-0.58056640625,0.43310546875,0.3916015625,62.926829268292686,-148.65853658536588,11.52439024390244,70,8
382,-0.56298828125,0.4169921875,0.39111328125,60.1829268292683,-148.96341463414635,10.548780487804878,70,8
383,-0.55078125,0.3984375,0.41943359375,59.451219512195124,-150.4878048780488,9.390243902439025,70,8
384,-0.5400390625,0.392578125,0.427734375,60.73170731707317,-152.19512195121953,7.743902439024391,70,8
385,-0.50439453125,0.38525390625,0.4716796875,62.804878048780495,-152.9268292682927,6.463414634146342,70,8
386,-0.47119140625,0.39501953125,0.5205078125,63.35365853658537,-152.07317073170734,5.548780487804878,70,8
387,-0.4365234375,0.40478515625,0.54931640625,77.98780487804879,-150.7317073170732,4.146341463414634,70,8
388,-0.416015625,0.41552734375,0.55419921875,61.95121951219513,-150.2439024390244,2.5,70,8
389,-0.40087890625,0.4541015625,0.5185546875,62.987804878048784,-150.3048780487805,0.48780487804878053,70,8
390,-0.35693359375,0.4873046875,0.51611328125,64.14634146341464,-151.09756097560978,-1.0975609756097562,70,8
391,-0.32470703125,0.49169921875,0.49560546875,63.47560975609757,-150.7926829268293,-2.8658536585365857,70,8
392,-0.30078125,0.6240234375,0.4716796875,63.84146341463415,-151.89024390243904,-5.060975609756098,70,8
393,-0.3095703125,0.50537109375,0.4599609375,64.02439024390245,-153.47560975609758,-7.073170731707318,70,8
394,-0.30859375,0.51220703125,0.4814453125,63.963414634146346,-155.0609756097561,-9.26829268292683,70,8
395,-0.2958984375,0.6240234375,0.5439453125,63.90243902439025,-155.97560975609758,-10.24390243902439,70,8
396,-0.298828125,0.49072265625,0.59228515625,64.26829268292684,-155.7926829268293,-11.707317073170733,70,8
397,-0.31005859375,0.48779296875,0.626953125,64.45121951219512,-154.26829268292684,-12.74390243902439,70,8
398,-0.3076171875,0.49072265625,0.642578125,65.67073170731707,-153.2317073170732,-12.621951219512196,70,8
399,-0.30517578125,0.48779296875,0.64208984375,66.58536585365854,-151.46341463414635,-13.109756097560977,70,8
400,-0.283203125,0.5009765625,0.6142578125,68.29268292682927,-151.95121951219514,-12.80487804878049,70,8
401,-0.2568359375,0.52099609375,0.57275390625,70.3658536585366,-154.45121951219514,-12.195121951219512,70,8
402,-0.22900390625,0.5556640625,0.5263671875,72.8048780487805,-158.71951219512198,-12.01219512195122,70,8
403,-0.2001953125,0.59912109375,0.5087890625,73.23170731707317,-163.0487804878049,-11.76829268292683,70,8
404,-0.158203125,0.64453125,0.51318359375,70.85365853658537,-166.40243902439025,-13.170731707317074,70,8
405,-0.09375,0.67431640625,0.53515625,64.9390243902439,-167.50000000000003,-14.878048780487806,70,8
406,-0.0712890625,0.6796875,0.5712890625,58.53658536585366,-167.25609756097563,-0.06097560975609757,70,8
407,-0.0703125,0.68505859375,0.50390625,51.463414634146346,-165.85365853658539,-16.82926829268293,70,8
408,-0.05615234375,0.66015625,0.689453125,46.463414634146346,-163.84146341463415,-18.902439024390244,70,8
409,-0.0263671875,0.64697265625,0.732421875,46.58536585365854,-162.37804878048783,-20.670731707317074,70,8
410,-0.12158203125,0.640625,0.6328125,49.93902439024391,-161.64634146341464,-22.134146341463417,70,8
411,0.03662109375,0.65380859375,0.7421875,53.65853658536586,-161.03658536585368,-23.84146341463415,70,8
412,0.0810546875,0.6708984375,0.7158203125,55.97560975609757,-159.20731707317074,-25.792682926829272,70,8
413,0.13427734375,0.70751953125,0.69970703125,57.07317073170732,-158.71951219512198,-28.231707317073173,70,8
414,0.17529296875,0.732421875,0.64892578125,55.243902439024396,-158.78048780487805,-30.975609756097565,70,8
415,0.2080078125,0.7578125,0.59716796875,51.463414634146346,-159.87804878048783,-34.451219512195124,70,8
416,0.19189453125,0.80908203125,0.5625,46.951219512195124,-162.43902439024393,-38.59756097560976,70,8
417,0.2138671875,0.81298828125,0.56494140625,42.5609756097561,-165.1219512195122,-41.524390243902445,70,8
418,0.2353515625,0.8125,0.587890625,38.04878048780488,-167.8048780487805,-43.10975609756098,70,8
419,0.21826171875,0.7734375,0.63671875,34.75609756097561,-170.3048780487805,-43.170731707317074,70,8
420,0.197265625,0.736328125,0.69580078125,32.19512195121951,-171.09756097560978,-43.04878048780488,70,8
421,0.18310546875,0.7119140625,0.72802734375,30.182926829268297,-170.6707317073171,-42.926829268292686,70,8
422,0.2001953125,0.7138671875,0.765625,29.695121951219516,-169.51219512195124,-42.50000000000001,70,8
423,0.201171875,0.71044921875,0.80712890625,29.695121951219516,-168.0487804878049,-41.82926829268293,70,8
424,0.1982421875,0.7001953125,0.837890625,29.512195121951223,-167.19512195121953,-41.28048780487805,70,8
425,0.189453125,0.7216796875,0.80322265625,28.902439024390247,-167.37804878048783,-41.463414634146346,70,8
426,0.19921875,0.76611328125,0.74365234375,27.865853658536587,-168.59756097560978,-42.987804878048784,70,8
427,0.22314453125,0.7939453125,0.68701171875,24.26829268292683,-170.1219512195122,-44.390243902439025,70,8
428,0.2666015625,0.80908203125,0.65087890625,18.53658536585366,-172.9878048780488,-44.81707317073171,70,8
429,0.2763671875,0.7744140625,0.6337890625,11.890243902439025,-176.09756097560978,-45.304878048780495,70,8
430,0.29296875,0.76904296875,0.6181640625,7.01219512195122,-178.90243902439025,-46.768292682926834,70,8
431,0.28466796875,0.72802734375,0.71875,4.2682926829268295,-180.1829268292683,-46.951219512195124,70,8
432,0.2939453125,0.69775390625,0.7685546875,3.414634146341464,-180.3658536585366,-46.58536585365854,70,8
433,0.3115234375,0.6767578125,0.7900390625,3.048780487804878,-179.51219512195124,-31.34146341463415,70,8
434,0.32275390625,0.642578125,0.82568359375,3.4756097560975614,-178.71951219512198,-47.43902439024391,70,8
435,0.31494140625,0.59765625,0.84521484375,3.7195121951219514,-176.03658536585368,-47.6219512195122,70,8
436,0.32470703125,0.6240234375,0.81298828125,2.6219512195121952,-172.9878048780488,-47.987804878048784,70,8
437,0.3291015625,0.662109375,0.78564453125,1.0365853658536586,-170.4268292682927,-48.41463414634147,70,8
438,0.35888671875,0.71044921875,0.740234375,-0.6707317073170732,-169.02439024390245,-62.37804878048781,70,8
439,0.498046875,0.7001953125,0.68408203125,-3.4756097560975614,-169.20731707317074,-44.268292682926834,70,8
440,0.3896484375,0.70751953125,0.64013671875,-5.548780487804878,-170.4268292682927,-43.29268292682927,70,8
441,0.39453125,0.705078125,0.6142578125,-8.536585365853659,-170.5487804878049,-44.268292682926834,70,8
442,0.4267578125,0.69580078125,0.65869140625,-11.341463414634147,-170.1829268292683,-45.00000000000001,70,8
443,0.44677734375,0.7119140625,0.69580078125,-12.865853658536587,-169.02439024390245,-46.646341463414636,70,8
444,0.455078125,0.70556640625,0.7451171875,-14.695121951219514,-166.09756097560978,-48.90243902439025,70,8
445,0.45654296875,0.69921875,0.76611328125,-0.06097560975609757,-162.9878048780488,-50.304878048780495,70,8
446,0.4375,0.681640625,0.7333984375,-14.878048780487806,-161.52439024390245,-51.34146341463415,70,8
447,0.40771484375,0.67626953125,0.68505859375,-11.951219512195124,-162.25609756097563,-51.40243902439025,70,8
448,0.3984375,0.6689453125,0.64208984375,-8.841463414634147,-163.1707317073171,-50.79268292682927,70,8
449,0.41259765625,0.6708984375,0.587890625,-7.134146341463415,-164.08536585365854,-49.32926829268293,70,8
450,0.4169921875,0.681640625,0.5546875,-8.597560975609756,-163.109756097561,-48.84146341463415,70,8
451,0.43115234375,0.6494140625,0.52490234375,-12.134146341463415,-162.6219512195122,-47.926829268292686,70,8
452,0.412109375,0.748046875,0.51171875,-14.878048780487806,-162.07317073170734,-47.25609756097561,70,8
453,0.4150390625,0.6162109375,0.55712890625,-19.878048780487806,-158.65853658536588,-47.926829268292686,70,8
454,0.4326171875,0.61767578125,0.59423828125,-24.32926829268293,-154.51219512195124,-47.743902439024396,70,8
455,0.41748046875,0.61083984375,0.67529296875,-25.914634146341466,-149.02439024390245,-47.5609756097561,70,8
456,0.39794921875,0.5703125,0.65576171875,-25.0609756097561,-143.71951219512195,-48.47560975609756,70,8
457,0.40625,0.59912109375,0.6455078125,-22.25609756097561,-140.91463414634148,-47.19512195121952,70,8
458,0.40625,0.63427734375,0.6005859375,-16.70731707317073,-139.81707317073173,-44.451219512195124,70,8
459,0.36572265625,0.5966796875,0.53173828125,-15.853658536585368,-137.9268292682927,-42.01219512195122,70,8
460,0.369140625,0.6044921875,0.61865234375,-15.365853658536587,-136.28048780487805,-39.51219512195122,70,8
461,0.38134765625,0.60302734375,0.4755859375,-14.756097560975611,-136.52439024390245,-37.987804878048784,70,8
462,0.38671875,0.607421875,0.42431640625,-11.890243902439025,-137.37804878048783,-35.0609756097561,70,8
463,0.384765625,0.5810546875,0.431640625,-10.853658536585368,-137.25609756097563,-33.170731707317074,70,8
464,0.3984375,0.5830078125,0.48046875,-12.560975609756099,-133.84146341463415,-31.89024390243903,70,8
465,0.3974609375,0.5849609375,0.48681640625,-13.170731707317074,-130.0,-31.158536585365855,70,8
466,0.4091796875,0.58740234375,0.5166015625,-9.146341463414634,-127.43902439024392,-29.26829268292683,70,8
467,0.390625,0.56591796875,0.556640625,-2.378048780487805,-122.31707317073172,-27.378048780487806,70,8
468,0.37451171875,0.548828125,0.58349609375,-1.4634146341463417,-112.31707317073172,-26.82926829268293,70,8
469,0.39794921875,0.5654296875,0.5751953125,-7.439024390243903,-101.76829268292684,-27.31707317073171,70,8
470,0.462890625,0.640625,0.505859375,-10.121951219512196,-94.63414634146342,-26.646341463414636,70,8
471,0.43701171875,0.6142578125,0.48388671875,-10.487804878048781,-88.84146341463415,-26.34146341463415,70,8
472,0.4365234375,0.6171875,0.46142578125,-10.853658536585368,-85.00000000000001,-26.646341463414636,70,8
473,0.44677734375,0.64404296875,0.43505859375,-12.073170731707318,-81.03658536585367,-25.975609756097562,70,8
474,0.4384765625,0.6103515625,0.3857421875,-14.26829268292683,-93.53658536585367,-25.182926829268293,70,8
475,0.41015625,0.5888671875,0.353515625,-16.158536585365855,-76.15853658536587,-25.426829268292686,70,8
476,0.41943359375,0.60693359375,0.35107421875,-17.134146341463417,-74.75609756097562,-25.60975609756098,70,8
477,0.421875,0.59521484375,0.328125,-19.32926829268293,-72.92682926829269,-25.54878048780488,70,8
478,0.416015625,0.59130859375,0.3251953125,-21.82926829268293,-69.63414634146342,-25.60975609756098,70,8
479,0.40234375,0.5517578125,0.30859375,-27.5609756097561,-64.08536585365854,-26.219512195121954,70,8
480,0.41650390625,0.544921875,0.2900390625,-31.09756097560976,-60.1219512195122,-25.365853658536587,70,8
481,0.40380859375,0.5390625,0.29150390625,-33.23170731707317,-56.89024390243903,-24.02439024390244,70,8
482,0.39697265625,0.53466796875,0.26025390625,-34.207317073170735,-53.10975609756098,-22.98780487804878,70,8
483,0.3935546875,0.5400390625,0.23583984375,-34.08536585365854,-50.304878048780495,-21.219512195121954,70,8
484,0.38818359375,0.5283203125,0.24560546875,-32.6829268292683,-47.743902439024396,-19.451219512195124,70,8
485,0.39892578125,0.5419921875,0.2431640625,-30.365853658536587,-45.73170731707317,-17.682926829268293,70,8
486,0.39208984375,0.54150390625,0.240234375,-27.31707317073171,-43.35365853658537,-16.52439024390244,70,8
487,0.392578125,0.544921875,0.2353515625,-24.75609756097561,-41.34146341463415,-15.54878048780488,70,8
488,0.39013671875,0.5439453125,0.20849609375,-22.80487804878049,-38.78048780487805,-15.30487804878049,70,8
489,0.40576171875,0.556640625,0.20947265625,-21.219512195121954,-35.609756097560975,-15.060975609756099,70,8
490,0.40673828125,0.56884765625,0.2099609375,-19.695121951219512,-32.43902439024391,-14.756097560975611,70,8
491,0.40966796875,0.57080078125,0.2216796875,-17.5,-29.695121951219516,-14.26829268292683,70,8
492,0.40380859375,0.568359375,0.20458984375,-13.536585365853659,-27.80487804878049,-13.963414634146343,70,8
493,0.4013671875,0.5654296875,0.18359375,-9.146341463414634,-26.34146341463415,-13.597560975609758,70,8
494,0.408203125,0.57373046875,0.181640625,-4.573170731707317,-25.914634146341466,-12.987804878048781,70,8
495,0.408203125,0.55615234375,0.16748046875,-1.3414634146341464,-24.451219512195124,-12.621951219512196,70,8
496,0.40625,0.55712890625,0.1767578125,0.0,-22.682926829268293,-12.195121951219512,70,8
497,0.408203125,0.57177734375,0.1728515625,-0.24390243902439027,-20.48780487804878,-12.256097560975611,70,8
498,0.39892578125,0.5732421875,0.1494140625,-0.3658536585365854,-18.84146341463415,-11.52439024390244,70,8
499,0.3828125,0.58740234375,0.15966796875,1.402439024390244,-18.475609756097562,-10.30487804878049,70,8
