,Ax,Ay,Az,Gx,Gy,Gz,distance,shot_type
0,0.70654296875,-0.458984375,-0.21240234375,5.975609756097562,0.48780487804878053,0.853658536585366,20,2
1,0.70654296875,-0.458984375,-0.20361328125,6.463414634146342,-0.24390243902439027,0.7926829268292683,20,2
2,0.70166015625,-0.46142578125,-0.20947265625,6.707317073170732,15.54878048780488,0.3658536585365854,20,2
3,0.703125,-0.45263671875,-0.21240234375,6.036585365853659,0.30487804878048785,0.3658536585365854,20,2
4,0.701171875,-0.44482421875,-0.2109375,5.365853658536586,0.06097560975609757,0.853658536585366,20,2
5,0.7001953125,-0.43359375,-0.1923828125,5.975609756097562,-0.06097560975609757,0.7926829268292683,20,2
6,0.69970703125,-0.43505859375,-0.20654296875,5.7926829268292686,0.48780487804878053,0.6707317073170732,20,2
7,0.7060546875,-0.43896484375,-0.19970703125,5.365853658536586,0.7317073170731708,0.9146341463414634,20,2
8,0.7109375,-0.4326171875,-0.18603515625,4.634146341463415,0.853658536585366,0.9756097560975611,20,2
9,0.7099609375,-0.43017578125,-0.19384765625,2.8658536585365857,2.1951219512195124,0.7926829268292683,20,2
10,0.71435546875,-0.431640625,-0.18798828125,1.4634146341463417,2.6219512195121952,1.402439024390244,20,2
11,0.7177734375,-0.4306640625,-0.197265625,0.9756097560975611,3.2926829268292686,1.0365853658536586,20,2
12,0.728515625,-0.42431640625,-0.19384765625,0.1829268292682927,4.390243902439025,0.6097560975609757,20,2
13,0.71875,-0.4208984375,-0.19775390625,-0.9756097560975611,5.365853658536586,0.48780487804878053,20,2
14,0.705078125,-0.4404296875,-0.1865234375,-1.2195121951219514,5.548780487804878,0.6097560975609757,20,2
15,0.70654296875,-0.44140625,-0.19140625,-0.48780487804878053,5.487804878048781,0.6707317073170732,20,2
16,0.6953125,-0.44921875,-0.19384765625,0.9756097560975611,3.780487804878049,0.9756097560975611,20,2
17,0.68994140625,-0.45361328125,-0.20751953125,2.987804878048781,3.231707317073171,0.6097560975609757,20,2
18,0.70166015625,-0.44580078125,-0.21630859375,3.8414634146341466,2.804878048780488,0.6707317073170732,20,2
19,0.70556640625,-0.43798828125,-0.220703125,4.390243902439025,2.1951219512195124,0.5487804878048781,20,2
20,0.6962890625,-0.43701171875,-0.21240234375,5.121951219512195,2.1951219512195124,0.6707317073170732,20,2
21,0.71337890625,-0.4345703125,-0.2177734375,4.329268292682928,2.1341463414634148,1.2195121951219514,20,2
22,0.7177734375,-0.44140625,-0.19775390625,3.2926829268292686,2.8658536585365857,1.4634146341463417,20,2
23,0.7099609375,-0.43896484375,-0.18359375,2.682926829268293,2.8658536585365857,2.1341463414634148,20,2
24,0.7021484375,-0.4423828125,-0.181640625,2.439024390243903,2.9268292682926833,2.439024390243903,20,2
25,0.7080078125,-0.45263671875,-0.17236328125,3.048780487804878,2.1341463414634148,2.7439024390243905,20,2
26,0.69873046875,-0.45458984375,-0.19189453125,3.780487804878049,1.402439024390244,2.804878048780488,20,2
27,0.7021484375,-0.44677734375,-0.2099609375,5.7926829268292686,-0.30487804878048785,3.048780487804878,20,2
28,0.7119140625,-0.4560546875,-0.24658203125,5.7926829268292686,-0.9146341463414634,2.7439024390243905,20,2
29,0.70849609375,-0.4736328125,-0.26416015625,3.9024390243902443,-0.5487804878048781,3.9024390243902443,20,2
30,0.6767578125,-0.55712890625,-0.26904296875,1.0365853658536586,1.8902439024390245,5.548780487804878,20,2
31,0.59423828125,-0.609375,-0.216796875,-0.853658536585366,5.975609756097562,2.682926829268293,20,2
32,0.6748046875,-0.4453125,-0.19384765625,-0.1829268292682927,4.51219512195122,-0.6097560975609757,20,2
33,0.7509765625,-0.359375,-0.2060546875,3.414634146341464,2.1951219512195124,-0.06097560975609757,20,2
34,0.73583984375,-0.3935546875,-0.20947265625,1.5853658536585367,2.682926829268293,-0.1829268292682927,20,2
35,0.677734375,-0.47998046875,-0.23974609375,-1.5853658536585367,2.8658536585365857,-0.426829268292683,20,2
36,0.65771484375,-0.4658203125,-0.2158203125,-0.24390243902439027,0.5487804878048781,-0.7926829268292683,20,2
37,0.689453125,-0.4287109375,-0.1552734375,1.2804878048780488,-1.2804878048780488,-0.48780487804878053,20,2
38,0.7001953125,-0.4287109375,-0.150390625,0.9756097560975611,-2.1951219512195124,0.12195121951219513,20,2
39,0.6650390625,-0.462890625,-0.14990234375,2.3170731707317076,-3.658536585365854,0.426829268292683,20,2
40,0.6416015625,-0.4892578125,-0.1630859375,4.75609756097561,-5.182926829268293,-0.1829268292682927,20,2
41,0.64892578125,-0.4775390625,-0.166015625,7.378048780487806,-6.951219512195123,-0.06097560975609757,20,2
42,0.65625,-0.474609375,-0.1591796875,9.329268292682928,-7.560975609756098,0.06097560975609757,20,2
43,0.6640625,-0.474609375,-0.1591796875,10.182926829268293,-7.134146341463415,-0.853658536585366,20,2
44,0.6962890625,-0.44580078125,-0.154296875,9.451219512195122,-5.670731707317073,-1.5853658536585367,20,2
45,0.72412109375,-0.42529296875,-0.15087890625,8.963414634146343,-5.0,-1.6463414634146343,20,2
46,0.73046875,-0.44482421875,-0.1572265625,9.085365853658537,-4.207317073170732,-0.9146341463414634,20,2
47,0.73095703125,-0.470703125,-0.17138671875,9.329268292682928,-3.9024390243902443,-0.30487804878048785,20,2
48,0.744140625,-0.46484375,-0.1669921875,9.207317073170733,-2.5,0.426829268292683,20,2
49,0.7470703125,-0.45751953125,-0.15673828125,8.78048780487805,-0.853658536585366,0.9146341463414634,20,2
50,0.74169921875,-0.46875,-0.18212890625,6.341463414634147,1.829268292682927,0.3658536585365854,20,2
51,0.79638671875,-0.4013671875,-0.1435546875,2.682926829268293,5.914634146341464,1.2195121951219514,20,2
52,0.70556640625,-0.46728515625,-0.1669921875,-0.9146341463414634,7.682926829268293,1.7682926829268295,20,2
53,0.630859375,-0.4453125,-0.14697265625,-1.4634146341463417,8.78048780487805,1.402439024390244,20,2
54,0.71337890625,-0.6142578125,-0.1455078125,-3.048780487804878,11.76829268292683,1.6463414634146343,20,2
55,0.72607421875,-0.48681640625,-0.130859375,-4.2682926829268295,13.231707317073171,1.8902439024390245,20,2
56,0.68359375,-0.5244140625,-0.13623046875,1.1585365853658538,8.658536585365855,2.1951219512195124,20,2
57,0.68359375,-0.5419921875,-0.10791015625,9.756097560975611,3.353658536585366,2.378048780487805,20,2
58,0.69873046875,-0.5390625,-0.1025390625,16.219512195121954,-0.30487804878048785,1.402439024390244,20,2
59,0.716796875,-0.53564453125,-0.1123046875,19.02439024390244,-2.5609756097560976,1.0365853658536586,20,2
60,0.71826171875,-0.51611328125,-0.087890625,22.926829268292686,-3.4756097560975614,0.6707317073170732,20,2
61,0.7353515625,-0.515625,-0.0771484375,22.134146341463417,-1.3414634146341464,0.06097560975609757,20,2
62,0.7451171875,-0.48779296875,-0.0693359375,19.695121951219512,1.5853658536585367,-0.48780487804878053,20,2
63,0.7333984375,-0.47998046875,-0.0771484375,17.743902439024392,4.024390243902439,-0.6097560975609757,20,2
64,0.72412109375,-0.4833984375,-0.08154296875,16.28048780487805,7.560975609756098,-0.6097560975609757,20,2
65,0.7275390625,-0.48291015625,-0.06005859375,13.78048780487805,12.073170731707318,-0.5487804878048781,20,2
66,0.71044921875,-0.4892578125,-0.03662109375,11.28048780487805,16.219512195121954,-15.609756097560977,20,2
67,0.69970703125,-0.5,-0.03125,10.060975609756099,17.98780487804878,1.0365853658536586,20,2
68,0.68798828125,-0.521484375,-0.05078125,9.939024390243903,19.81707317073171,2.6219512195121952,20,2
69,0.6748046875,-0.51513671875,-0.0517578125,10.670731707317074,20.121951219512198,4.024390243902439,20,2
70,0.671875,-0.5146484375,-0.03466796875,12.195121951219512,20.79268292682927,4.878048780487806,20,2
71,0.68017578125,-0.517578125,-0.04052734375,13.536585365853659,19.75609756097561,6.158536585365854,20,2
72,0.7060546875,-0.5009765625,-0.05859375,15.000000000000002,20.60975609756098,6.402439024390245,20,2
73,0.72119140625,-0.4736328125,-0.07177734375,15.243902439024392,22.865853658536587,6.341463414634147,20,2
74,0.73974609375,-0.458984375,-0.0693359375,12.80487804878049,27.195121951219516,5.731707317073171,20,2
75,0.76318359375,-0.43212890625,-0.0576171875,8.719512195121952,31.463414634146343,5.0,20,2
76,0.7880859375,-0.408203125,-0.05419921875,5.060975609756098,36.09756097560976,4.024390243902439,20,2
77,0.78857421875,-0.4033203125,-0.05078125,1.707317073170732,38.29268292682927,3.963414634146342,20,2
78,0.77392578125,-0.4384765625,-0.0810546875,15.426829268292684,39.146341463414636,5.2439024390243905,20,2
79,0.7236328125,-0.47509765625,-0.10595703125,-1.5853658536585367,38.90243902439025,7.195121951219513,20,2
80,0.6728515625,-0.51953125,-0.1064453125,-0.853658536585366,38.59756097560976,9.817073170731708,20,2
81,0.66162109375,-0.51171875,-0.09375,2.5,38.04878048780488,11.219512195121952,20,2
82,0.6826171875,-0.47119140625,-0.08984375,6.7682926829268295,37.6829268292683,11.646341463414634,20,2
83,0.70654296875,-0.44482421875,-0.00537109375,10.609756097560977,32.743902439024396,12.74390243902439,20,2
84,0.69189453125,-0.45361328125,-0.208984375,12.134146341463415,33.04878048780488,13.353658536585368,20,2
85,0.63330078125,-0.40283203125,-0.15966796875,9.573170731707318,37.5609756097561,13.78048780487805,20,2
86,0.76953125,-0.447265625,-0.15283203125,-2.5609756097560976,45.79268292682927,11.951219512195124,20,2
87,0.8095703125,-0.37548828125,-0.248046875,-13.475609756097562,56.707317073170735,9.756097560975611,20,2
88,0.787109375,-0.35009765625,-0.2451171875,-22.743902439024392,64.57317073170732,9.939024390243903,20,2
89,0.78857421875,-0.35400390625,-0.2119140625,-35.243902439024396,74.75609756097562,7.621951219512196,20,2
90,0.75341796875,-0.3740234375,-0.244140625,-47.86585365853659,75.91463414634147,8.048780487804878,20,2
91,0.71923828125,-0.4208984375,-0.21875,-51.34146341463415,71.34146341463415,8.902439024390244,20,2
92,0.6591796875,-0.46435546875,-0.17919921875,-46.03658536585366,65.42682926829269,10.792682926829269,20,2
93,0.646484375,-0.48583984375,-0.1748046875,-37.86585365853659,57.865853658536594,11.52439024390244,20,2
94,0.63623046875,-0.47265625,-0.1455078125,-29.207317073170735,51.15853658536586,12.134146341463415,20,2
95,0.63818359375,-0.4541015625,-0.16162109375,-20.731707317073173,43.47560975609756,11.585365853658537,20,2
96,0.67138671875,-0.39111328125,-0.18701171875,-14.51219512195122,39.87804878048781,10.182926829268293,20,2
97,0.71826171875,-0.357421875,-0.236328125,-14.695121951219514,38.04878048780488,8.231707317073171,20,2
98,0.73291015625,-0.326171875,-0.2841796875,-18.170731707317074,37.01219512195122,7.378048780487806,20,2
99,0.72314453125,-0.31298828125,-0.30712890625,-22.195121951219512,36.58536585365854,5.914634146341464,20,2
100,0.7255859375,-0.3154296875,-0.31103515625,-25.731707317073173,35.670731707317074,3.4756097560975614,20,2
101,0.72265625,-0.31689453125,-0.306640625,-28.475609756097562,35.0,1.1585365853658538,20,2
102,0.73974609375,-0.31298828125,-0.32275390625,-31.82926829268293,33.78048780487805,-0.426829268292683,20,2
103,0.72705078125,-0.30810546875,-0.3291015625,-34.207317073170735,31.951219512195124,-2.3170731707317076,20,2
104,0.70361328125,-0.30615234375,-0.31689453125,-35.426829268292686,29.939024390243905,-3.658536585365854,20,2
105,0.693359375,-0.306640625,-0.2939453125,-35.54878048780488,27.500000000000004,-4.878048780487806,20,2
106,0.6923828125,-0.33251953125,-0.27978515625,-34.87804878048781,25.243902439024392,-5.487804878048781,20,2
107,0.6748046875,-0.32666015625,-0.2822265625,-35.0,23.04878048780488,-7.073170731707318,20,2
108,0.6669921875,-0.30859375,-0.2890625,-36.463414634146346,20.975609756097562,-7.560975609756098,20,2
109,0.6728515625,-0.267578125,-0.3046875,-39.93902439024391,19.451219512195124,-9.02439024390244,20,2
110,0.69189453125,-0.12890625,-0.3095703125,-44.69512195121952,20.731707317073173,-10.121951219512196,20,2
111,0.69970703125,-0.26416015625,-0.326171875,-49.39024390243903,19.75609756097561,-11.341463414634147,20,2
112,0.69189453125,-0.26611328125,-0.3388671875,-50.304878048780495,17.012195121951223,-12.378048780487806,20,2
113,0.68994140625,-0.291015625,-0.34423828125,-50.60975609756098,15.426829268292684,-14.756097560975611,20,2
114,0.7314453125,-0.2744140625,-0.36328125,-52.987804878048784,14.634146341463415,-16.76829268292683,20,2
115,0.75048828125,-0.24609375,-0.3671875,-55.60975609756098,13.78048780487805,-18.53658536585366,20,2
116,0.74951171875,-0.251953125,-0.35107421875,-57.6219512195122,12.500000000000002,-20.365853658536587,20,2
117,0.755859375,-0.25732421875,-0.34423828125,-59.32926829268293,10.792682926829269,-22.500000000000004,20,2
118,0.74365234375,-0.26708984375,-0.3310546875,-60.60975609756098,8.353658536585366,-23.59756097560976,20,2
119,0.72900390625,-0.26123046875,-0.3369140625,-46.951219512195124,6.463414634146342,-25.243902439024392,20,2
120,0.73486328125,-0.373046875,-0.33203125,-64.57317073170732,5.0,-26.402439024390247,20,2
121,0.7265625,-0.25830078125,-0.32373046875,-66.52439024390245,4.51219512195122,-27.195121951219516,20,2
122,0.7314453125,-0.26171875,-0.31005859375,-67.98780487804879,3.048780487804878,-28.475609756097562,20,2
123,0.73681640625,-0.2548828125,-0.32470703125,-70.2439024390244,1.4634146341463417,-29.75609756097561,20,2
124,0.74072265625,-0.2294921875,-0.3544921875,-73.78048780487805,0.7926829268292683,-32.6829268292683,20,2
125,0.76416015625,-0.21826171875,-0.36474609375,-77.25609756097562,0.3658536585365854,-35.426829268292686,20,2
126,0.79150390625,-0.2021484375,-0.365234375,-80.97560975609757,-1.0975609756097562,-38.170731707317074,20,2
127,0.82177734375,-0.2060546875,-0.3818359375,-84.26829268292684,-1.0365853658536586,-40.426829268292686,20,2
128,0.81005859375,-0.2373046875,-0.4140625,-87.19512195121952,-2.1341463414634148,-42.25609756097561,20,2
129,0.8134765625,-0.24853515625,-0.40869140625,-89.63414634146342,-2.804878048780488,-44.146341463414636,20,2
130,0.82568359375,-0.2333984375,-0.37158203125,-92.6219512195122,-2.804878048780488,-45.0609756097561,20,2
131,0.8466796875,-0.228515625,-0.36865234375,-96.09756097560977,-2.1951219512195124,-45.91463414634147,20,2
132,0.84765625,-0.21142578125,-0.36767578125,-99.57317073170732,-1.9512195121951221,-47.25609756097561,20,2
133,0.84375,-0.2119140625,-0.384765625,-101.28048780487806,-3.353658536585366,-48.84146341463415,20,2
134,0.8291015625,-0.220703125,-0.36669921875,-102.43902439024392,-3.8414634146341466,-50.304878048780495,20,2
135,0.84033203125,-0.2158203125,-0.37451171875,-103.90243902439025,-5.060975609756098,-52.6829268292683,20,2
136,0.85400390625,-0.21826171875,-0.41650390625,-106.70731707317074,-4.939024390243903,-55.91463414634147,20,2
137,0.85595703125,-0.20849609375,-0.447265625,-109.14634146341464,-5.182926829268293,-58.53658536585366,20,2
138,0.884765625,-0.1875,-0.44189453125,-111.40243902439025,-5.060975609756098,-60.97560975609757,20,2
139,0.91162109375,-0.1787109375,-0.46728515625,-116.40243902439025,-4.329268292682928,-62.926829268292686,20,2
140,0.9072265625,-0.177734375,-0.48193359375,-120.67073170731709,-3.353658536585366,-64.69512195121952,20,2
141,0.9228515625,-0.154296875,-0.4599609375,-109.39024390243904,-1.5853658536585367,-67.01219512195122,20,2
142,0.92041015625,-0.1552734375,-0.45703125,-130.609756097561,1.0975609756097562,-67.98780487804879,20,2
143,0.9111328125,-0.16455078125,-0.46142578125,-135.6707317073171,2.682926829268293,-68.96341463414635,20,2
144,0.91162109375,-0.16259765625,-0.44873046875,-138.90243902439025,3.353658536585366,-70.54878048780489,20,2
145,0.9130859375,-0.15771484375,-0.47412109375,-139.26829268292684,3.231707317073171,-72.92682926829269,20,2
146,0.93896484375,-0.158203125,-0.4853515625,-139.08536585365854,2.378048780487805,-75.97560975609757,20,2
147,0.9560546875,-0.162109375,-0.4814453125,-138.78048780487805,1.5853658536585367,-77.25609756097562,20,2
148,0.96142578125,-0.15673828125,-0.4990234375,-138.65853658536585,1.524390243902439,-79.51219512195122,20,2
149,0.97802734375,-0.1484375,-0.53173828125,-139.9390243902439,1.0975609756097562,-82.5609756097561,20,2
150,0.990234375,-0.10595703125,-0.541015625,-144.02439024390245,2.439024390243903,-85.3048780487805,20,2
151,1.00244140625,-0.10009765625,-0.53515625,-147.9268292682927,3.353658536585366,-87.98780487804879,20,2
152,1.00634765625,-0.07958984375,-0.533203125,-152.5609756097561,4.573170731707317,-91.40243902439025,20,2
153,1.03564453125,-0.0390625,-0.54052734375,-157.5,6.7682926829268295,-94.39024390243904,20,2
154,1.04296875,-0.0537109375,-0.5458984375,-162.37804878048783,8.536585365853659,-96.64634146341464,20,2
155,1.05810546875,-0.05810546875,-0.55224609375,-165.4268292682927,9.146341463414634,-99.81707317073172,20,2
156,1.07958984375,-0.0498046875,-0.52685546875,-165.85365853658539,10.121951219512196,-102.8048780487805,20,2
157,1.09033203125,-0.0498046875,-0.52294921875,-164.63414634146343,8.963414634146343,-106.34146341463416,20,2
158,1.1103515625,-0.0244140625,-0.53173828125,-164.93902439024393,9.146341463414634,-110.67073170731709,20,2
159,1.162109375,0.0439453125,-0.51318359375,-167.25609756097563,10.182926829268293,-115.12195121951221,20,2
160,1.185546875,0.06591796875,-0.52734375,-167.5609756097561,9.756097560975611,-118.96341463414635,20,2
161,1.20361328125,0.0703125,-0.53857421875,-167.9268292682927,9.573170731707318,-123.53658536585367,20,2
162,1.23779296875,0.06494140625,-0.5771484375,-168.2926829268293,9.634146341463415,-128.65853658536585,20,2
163,1.3603515625,0.0869140625,-0.54931640625,-169.20731707317074,10.853658536585368,-132.7439024390244,20,2
164,1.2900390625,0.06298828125,-0.59521484375,-171.52439024390245,11.219512195121952,-136.34146341463415,20,2
165,1.29443359375,0.06689453125,-0.59814453125,-173.71951219512198,12.621951219512196,-140.4268292682927,20,2
166,1.30810546875,0.072265625,-0.60009765625,-174.32926829268294,13.29268292682927,-143.78048780487805,20,2
167,1.3408203125,0.109375,-0.56689453125,-176.09756097560978,17.134146341463417,-148.2926829268293,20,2
168,1.34228515625,0.07861328125,-0.56982421875,-180.4878048780488,20.853658536585368,-151.58536585365854,20,2
169,1.345703125,0.06689453125,-0.53564453125,-183.2926829268293,23.719512195121954,-154.87804878048783,20,2
170,1.32177734375,0.04541015625,-0.53369140625,-183.84146341463415,24.878048780487806,-158.65853658536588,20,2
171,1.31689453125,0.06591796875,-0.5126953125,-182.8048780487805,24.634146341463417,-163.2317073170732,20,2
172,1.361328125,0.107421875,-0.46728515625,-181.58536585365854,26.402439024390247,-166.82926829268294,20,2
173,1.36669921875,0.0966796875,-0.44287109375,-182.43902439024393,27.743902439024392,-171.52439024390245,20,2
174,1.3408203125,0.07666015625,-0.4423828125,-181.58536585365854,28.292682926829272,-175.00000000000003,20,2
175,1.3388671875,0.083984375,-0.40771484375,-179.87804878048783,29.207317073170735,-178.78048780487808,20,2
176,1.34326171875,0.08056640625,-0.37939453125,-176.64634146341464,28.53658536585366,-180.91463414634148,20,2
177,1.34912109375,0.0859375,-0.353515625,-172.7439024390244,28.414634146341466,-184.51219512195124,20,2
178,1.34814453125,0.11279296875,-0.3349609375,-168.2317073170732,28.53658536585366,-187.9878048780488,20,2
179,1.33056640625,0.11572265625,-0.33349609375,-163.109756097561,26.463414634146343,-190.91463414634148,20,2
180,1.29052734375,0.11865234375,-0.361328125,-158.84146341463415,25.000000000000004,-194.32926829268294,20,2
181,1.28662109375,0.13330078125,-0.33544921875,-171.34146341463415,24.81707317073171,-198.41463414634148,20,2
182,1.24462890625,0.1044921875,-0.31494140625,-150.0,24.512195121951223,-200.7317073170732,20,2
183,1.1953125,0.083984375,-0.27783203125,-140.6707317073171,22.195121951219512,-201.58536585365854,20,2
184,1.17236328125,0.109375,-0.240234375,-132.5,19.390243902439025,-200.7317073170732,20,2
185,1.16845703125,0.15966796875,-0.29541015625,-122.01219512195124,10.914634146341465,-200.7926829268293,20,2
186,1.20751953125,0.28271484375,-0.302734375,-119.57317073170732,9.451219512195122,-199.81707317073173,20,2
187,1.2138671875,0.30322265625,-0.2783203125,-120.60975609756099,10.609756097560977,-200.1829268292683,20,2
188,1.21630859375,0.31787109375,-0.251953125,-123.47560975609757,13.597560975609758,-200.4268292682927,20,2
189,1.22509765625,0.37255859375,-0.1376953125,-124.63414634146342,13.29268292682927,-199.87804878048783,20,2
190,1.21240234375,0.42041015625,-0.31982421875,-126.52439024390245,13.231707317073171,-202.6829268292683,20,2
191,1.240234375,0.37890625,-0.291015625,-127.62195121951221,15.000000000000002,-206.15853658536588,20,2
192,1.2529296875,0.53369140625,-0.1328125,-127.56097560975611,31.03658536585366,-210.3658536585366,20,2
193,1.23876953125,0.50341796875,-0.21923828125,-126.40243902439026,17.98780487804878,-212.13414634146343,20,2
194,1.18505859375,0.4716796875,-0.1513671875,-123.35365853658537,17.621951219512198,-213.53658536585368,20,2
195,1.158203125,0.46923828125,-0.07080078125,-118.96341463414635,17.073170731707318,-212.7439024390244,20,2
196,1.1142578125,0.47705078125,-0.03173828125,-115.73170731707319,17.25609756097561,-214.69512195121953,20,2
197,1.09765625,0.48046875,0.02001953125,-114.08536585365854,19.81707317073171,-214.93902439024393,20,2
198,1.0361328125,0.44970703125,0.06103515625,-112.92682926829269,23.59756097560976,-215.6707317073171,20,2
199,1.005859375,0.41064453125,0.12646484375,-110.67073170731709,36.524390243902445,-219.51219512195124,20,2
200,0.9482421875,0.40869140625,0.0302734375,-111.58536585365854,26.34146341463415,-221.64634146341464,20,2
201,0.90869140625,0.38037109375,0.0537109375,-103.17073170731709,22.743902439024392,-221.52439024390245,20,2
202,0.88916015625,0.2548828125,0.111328125,-94.63414634146342,19.75609756097561,-223.35365853658539,20,2
203,0.90673828125,0.36328125,0.146484375,-88.41463414634147,18.963414634146343,-225.7926829268293,20,2
204,0.81884765625,0.2958984375,0.1455078125,-85.60975609756099,16.28048780487805,-222.7439024390244,20,2
205,0.7705078125,0.2646484375,0.19384765625,-81.28048780487805,19.32926829268293,-221.15853658536588,20,2
206,0.72021484375,0.3564453125,0.248046875,-77.6219512195122,21.585365853658537,-217.68292682926833,20,2
207,0.66796875,0.14697265625,0.27294921875,-71.34146341463415,21.158536585365855,-212.8048780487805,20,2
208,0.640625,0.0771484375,0.22900390625,-64.81707317073172,18.963414634146343,-207.8658536585366,20,2
209,0.62646484375,0.0302734375,0.177734375,-59.57317073170732,17.98780487804878,-218.2317073170732,20,2
210,0.58984375,-0.0361328125,0.19921875,-55.54878048780488,18.597560975609756,-197.01219512195124,20,2
211,0.5400390625,-0.01123046875,0.2216796875,-50.487804878048784,17.865853658536587,-189.57317073170734,20,2
212,0.46826171875,-0.2421875,0.1435546875,-44.69512195121952,18.78048780487805,-181.15853658536588,20,2
213,0.38330078125,-0.2744140625,0.35546875,-38.04878048780488,19.32926829268293,-173.59756097560978,20,2
214,0.32470703125,-0.32666015625,0.4228515625,-34.08536585365854,20.731707317073173,-163.84146341463415,20,2
215,0.2177734375,-0.40087890625,0.482421875,-31.951219512195124,23.04878048780488,-153.47560975609758,20,2
216,0.126953125,-0.49072265625,0.537109375,-27.195121951219516,22.5609756097561,-141.95121951219514,20,2
217,0.03662109375,-0.52978515625,0.54296875,-22.378048780487806,24.573170731707318,-131.76829268292684,20,2
218,-0.04541015625,-0.57080078125,0.5693359375,-22.31707317073171,27.621951219512198,-121.82926829268294,20,2
219,-0.11865234375,-0.658203125,0.5712890625,-25.30487804878049,32.743902439024396,-110.3048780487805,20,2
220,-0.21044921875,-0.77294921875,0.6015625,-23.902439024390247,37.926829268292686,-94.81707317073172,20,2
221,-0.34130859375,-0.939453125,0.63623046875,-17.439024390243905,38.41463414634147,-92.98780487804879,20,2
222,-0.49951171875,-1.029296875,0.72509765625,-6.585365853658537,43.41463414634147,-76.70731707317074,20,2
223,-0.46142578125,-1.10693359375,0.74853515625,-2.1951219512195124,45.73170731707317,-41.463414634146346,20,2
224,-0.611328125,-1.1396484375,0.77099609375,5.182926829268293,50.243902439024396,-21.890243902439025,20,2
225,-0.74365234375,-1.36669921875,0.830078125,0.12195121951219513,50.1219512195122,-1.4634146341463417,20,2
226,-0.7939453125,-1.39990234375,0.89404296875,27.500000000000004,50.36585365853659,14.756097560975611,20,2
227,-0.72119140625,-1.35791015625,0.90478515625,34.146341463414636,52.13414634146342,27.439024390243905,20,2
228,-0.6005859375,-1.38720703125,0.8515625,37.01219512195122,54.085365853658544,42.5609756097561,20,2
229,-0.52099609375,-1.48486328125,0.775390625,40.85365853658537,54.81707317073171,60.54878048780488,20,2
230,-0.49462890625,-1.6728515625,0.72705078125,52.6829268292683,54.81707317073171,80.42682926829269,20,2
231,-0.4423828125,-1.7978515625,0.67431640625,62.13414634146342,57.865853658536594,100.3048780487805,20,2
232,-0.3505859375,-1.82421875,0.66650390625,68.96341463414635,60.67073170731708,119.39024390243904,20,2
233,-0.2216796875,-1.89013671875,0.61767578125,62.6219512195122,64.26829268292684,139.08536585365854,20,2
234,-0.0419921875,-1.94775390625,0.591796875,87.31707317073172,66.70731707317074,159.63414634146343,20,2
235,0.08740234375,-2.0556640625,0.52294921875,100.06097560975611,65.1219512195122,184.93902439024393,20,2
236,0.20068359375,-2.18896484375,0.41455078125,115.54878048780489,61.95121951219513,211.28048780487808,20,2
237,0.34814453125,-2.2890625,0.38330078125,133.2926829268293,61.09756097560976,238.65853658536588,20,2
238,0.47900390625,-2.4169921875,0.39208984375,153.65853658536588,59.146341463414636,272.6829268292683,20,2
239,0.56787109375,-2.5185546875,0.322265625,174.63414634146343,58.90243902439025,307.9268292682927,20,2
240,0.6943359375,-2.81689453125,0.2666015625,199.69512195121953,61.28048780487806,337.9878048780488,20,2
241,0.912109375,-2.96533203125,0.21533203125,226.64634146341464,59.81707317073171,367.8048780487805,20,2
242,1.18115234375,-3.228515625,0.04296875,253.59756097560978,62.19512195121952,394.1463414634147,20,2
243,1.41015625,-3.45263671875,-0.11474609375,279.51219512195127,75.0609756097561,416.82926829268297,20,2
244,1.9658203125,-3.66748046875,-0.2666015625,304.20731707317077,86.46341463414635,441.89024390243907,20,2
245,2.42138671875,-3.88720703125,-0.55078125,316.76829268292687,98.53658536585367,453.2926829268293,20,2
246,2.96044921875,-4.1767578125,-0.73291015625,323.719512195122,120.12195121951221,492.80487804878055,20,2
247,3.3720703125,-4.501953125,-0.8251953125,323.2926829268293,136.70731707317074,517.7439024390244,20,2
248,3.57177734375,-4.83154296875,-0.7998046875,322.25609756097566,125.00000000000001,530.7926829268293,20,2
249,4.1552734375,-5.107421875,-0.79443359375,336.70731707317077,137.7439024390244,580.9146341463415,20,2
250,4.9140625,-5.40576171875,-1.56884765625,345.9756097560976,139.51219512195124,641.7682926829269,20,2
251,5.806640625,-5.77685546875,-2.49853515625,358.0487804878049,120.79268292682927,695.6707317073171,20,2
252,6.9912109375,-5.5791015625,-3.09423828125,414.87804878048786,133.41463414634148,738.048780487805,20,2
253,8.05615234375,-5.1826171875,-3.5166015625,470.9756097560976,140.6707317073171,776.4634146341464,20,2
254,9.0556640625,-4.5126953125,-3.8193359375,554.2073170731708,147.19512195121953,818.5975609756098,20,2
255,9.27001953125,-3.83154296875,-4.67724609375,610.4878048780488,105.42682926829269,830.1219512195123,20,2
256,9.9130859375,-3.4306640625,-5.79638671875,686.4634146341464,27.926829268292686,840.6707317073171,20,2
257,9.8896484375,-3.12939453125,-6.654296875,792.1951219512196,-53.78048780487806,808.5365853658537,20,2
258,9.61767578125,-3.32421875,-7.23095703125,877.6219512195123,-132.8048780487805,746.0975609756098,20,2
259,8.5087890625,-3.4833984375,-7.30615234375,1013.1707317073171,-265.7926829268293,686.5853658536586,20,2
260,7.85986328125,-4.29248046875,-8.193359375,1182.8658536585367,-446.4634146341464,566.829268292683,20,2
261,7.341796875,-4.115234375,-9.10693359375,1346.768292682927,-579.7560975609756,395.7317073170732,20,2
262,7.16845703125,-1.28466796875,11.318359375,1654.0853658536587,-1302.0121951219514,763.4146341463415,20,2
263,-5.919921875,-10.42822265625,-16.0,991.0365853658537,-1157.6219512195123,-502.98780487804885,20,2
264,15.99951171875,15.99951171875,-13.021484375,-17.378048780487806,124.57317073170732,526.8902439024391,20,2
265,-7.12841796875,-6.375,6.876953125,528.048780487805,-253.35365853658539,-133.78048780487805,20,2
266,3.35009765625,-2.58642578125,-5.3505859375,1984.8170731707319,395.609756097561,-42.6219512195122,20,2
267,9.17724609375,-0.25,-3.6982421875,834.6341463414635,-207.62195121951223,-563.4146341463415,20,2
268,5.84375,1.734375,-0.83544921875,705.9756097560976,45.36585365853659,-428.1707317073171,20,2
269,2.63134765625,0.52197265625,-0.18798828125,872.1341463414635,45.0609756097561,-381.5853658536586,20,2
270,3.27734375,-2.142578125,0.185546875,773.719512195122,40.36585365853659,-509.93902439024396,20,2
271,4.43408203125,-3.05078125,-0.177734375,573.6585365853659,34.268292682926834,-585.3048780487806,20,2
272,2.7958984375,-3.2509765625,-0.7607421875,494.1463414634147,119.45121951219514,-584.7560975609756,20,2
273,2.953125,-3.11376953125,-0.62939453125,480.00000000000006,128.78048780487805,-607.6219512195122,20,2
274,2.67822265625,-3.052734375,-1.31640625,467.31707317073176,124.63414634146342,-626.0975609756098,20,2
275,2.75390625,-2.8330078125,-1.646484375,393.3536585365854,143.35365853658539,-683.2926829268293,20,2
276,3.17041015625,-2.12353515625,-1.4296875,353.7804878048781,168.59756097560978,-705.609756097561,20,2
277,3.033203125,-1.94775390625,-1.27978515625,282.31707317073176,204.32926829268294,-705.3658536585366,20,2
278,3.32421875,-1.8349609375,-1.45751953125,219.87804878048783,256.4024390243903,-692.0121951219513,20,2
279,3.3203125,-1.828125,-1.73828125,157.6219512195122,275.4268292682927,-668.1707317073171,20,2
280,3.384765625,-1.8251953125,-2.14697265625,91.03658536585367,289.63414634146346,-654.1463414634147,20,2
281,3.400390625,-1.947265625,-2.00634765625,12.378048780487806,309.0243902439025,-605.3048780487806,20,2
282,2.56787109375,-2.236328125,-1.8408203125,-71.64634146341464,313.2317073170732,-559.3902439024391,20,2
283,2.0830078125,-2.46435546875,-1.77880859375,-122.62195121951221,333.2317073170732,-503.7804878048781,20,2
284,1.5205078125,-2.0859375,-1.43310546875,-136.52439024390245,338.4756097560976,-476.219512195122,20,2
285,1.06103515625,-1.892578125,-1.08837890625,-133.71951219512195,337.13414634146346,-458.4756097560976,20,2
286,0.95751953125,-1.57421875,-0.86865234375,-132.19512195121953,349.32926829268297,-438.719512195122,20,2
287,0.86181640625,-1.4150390625,-0.50146484375,-120.79268292682927,355.8536585365854,-414.63414634146346,20,2
288,0.7236328125,-1.14990234375,-0.72509765625,-124.87804878048782,360.9756097560976,-404.45121951219517,20,2
289,0.7880859375,-0.92041015625,-0.85986328125,-107.37804878048782,362.19512195121956,-368.2926829268293,20,2
290,0.87158203125,-0.81591796875,-1.1015625,-107.43902439024392,354.69512195121956,-344.81707317073176,20,2
291,1.017578125,-0.7451171875,-1.291015625,-117.98780487804879,337.6829268292683,-321.76829268292687,20,2
292,0.89892578125,-0.796875,-1.5751953125,-110.1219512195122,324.81707317073176,-298.1707317073171,20,2
293,0.72705078125,-0.79345703125,-1.59912109375,-138.109756097561,308.4756097560976,-265.609756097561,20,2
294,0.61279296875,-0.72802734375,-1.56884765625,-148.65853658536588,302.01219512195127,-267.07317073170736,20,2
295,0.4375,-0.3505859375,-1.326171875,-161.70731707317074,287.13414634146346,-254.26829268292684,20,2
296,0.26806640625,-0.27294921875,-1.16357421875,-167.6829268292683,274.26829268292687,-239.63414634146343,20,2
297,0.12548828125,-0.2744140625,-1.0830078125,-180.00000000000003,260.1219512195122,-221.58536585365854,20,2
298,-0.04150390625,-0.35205078125,-1.1494140625,-181.64634146341464,242.74390243902442,-203.78048780487808,20,2
299,-0.00537109375,-0.32470703125,-1.10888671875,-173.84146341463415,228.0487804878049,-182.7439024390244,20,2
300,-0.45947265625,-0.44677734375,-0.9443359375,-161.46341463414635,213.59756097560978,-164.02439024390245,20,2
301,-0.724609375,-0.54736328125,-0.84033203125,-171.46341463414635,204.39024390243904,-152.5609756097561,20,2
302,-0.70849609375,-0.35888671875,-0.6337890625,-142.8658536585366,195.85365853658539,-143.78048780487805,20,2
303,-0.58154296875,-0.07861328125,-0.52099609375,-136.64634146341464,188.2317073170732,-137.4390243902439,20,2
304,-0.3779296875,0.1162109375,-0.55810546875,-143.1707317073171,178.53658536585368,-134.69512195121953,20,2
305,-0.29052734375,0.1982421875,-0.65185546875,-142.7439024390244,170.1829268292683,-130.3048780487805,20,2
306,-0.2138671875,0.31640625,-0.7353515625,-143.2317073170732,162.7439024390244,-118.23170731707319,20,2
307,-0.41650390625,0.06201171875,-0.76123046875,-144.75609756097563,153.2317073170732,-107.13414634146342,20,2
308,-0.5185546875,-0.0849609375,-0.732421875,-139.75609756097563,145.7317073170732,-101.64634146341464,20,2
309,-0.81787109375,-0.17822265625,-0.62109375,-140.4878048780488,136.58536585365854,-98.47560975609757,20,2
310,-0.9033203125,-0.154296875,-0.62255859375,-133.109756097561,130.1219512195122,-94.32926829268294,20,2
311,-0.75634765625,-0.033203125,-0.396484375,-123.53658536585367,122.62195121951221,-90.73170731707317,20,2
312,-0.89306640625,0.0595703125,-0.30126953125,-118.53658536585367,112.43902439024392,-84.69512195121952,20,2
313,-0.9794921875,0.09521484375,-0.29345703125,-110.85365853658537,103.65853658536587,-73.23170731707317,20,2
314,-1.123046875,0.005859375,-0.3056640625,-103.59756097560977,96.28048780487806,-63.47560975609757,20,2
315,-1.17236328125,-0.0263671875,-0.30419921875,-96.21951219512196,91.89024390243904,-57.07317073170732,20,2
316,-1.1396484375,0.0205078125,-0.236328125,-92.8658536585366,90.97560975609757,-47.743902439024396,20,2
317,-1.13720703125,0.21435546875,-0.294921875,-87.8048780487805,82.8658536585366,-45.79268292682927,20,2
318,-0.96533203125,0.1171875,-0.345703125,-85.73170731707317,71.58536585365854,-40.487804878048784,20,2
319,-0.95361328125,0.07177734375,-0.421875,-75.85365853658537,59.63414634146342,-36.82926829268293,20,2
320,-0.9931640625,0.04052734375,-0.322265625,-66.21951219512195,49.63414634146342,-33.53658536585366,20,2
321,-1.06396484375,0.03662109375,-0.19677734375,-58.53658536585366,43.10975609756098,-29.451219512195124,20,2
322,-1.1494140625,0.025390625,-0.18017578125,-56.28048780487806,38.59756097560976,-25.731707317073173,20,2
323,-1.1787109375,0.013671875,-0.2275390625,-57.37804878048781,36.34146341463415,-21.707317073170735,20,2
324,-1.2080078125,0.0341796875,-0.27197265625,-57.43902439024391,29.939024390243905,-16.646341463414636,20,2
325,-1.18798828125,0.07470703125,-0.26708984375,-52.31707317073171,28.04878048780488,-8.597560975609756,20,2
326,-1.19677734375,0.0361328125,-0.2822265625,-51.21951219512196,20.365853658536587,-15.30487804878049,20,2
327,-1.302734375,-0.0302734375,-0.2578125,-44.08536585365854,15.853658536585368,9.817073170731708,20,2
328,-1.4072265625,-0.24365234375,-0.365234375,-61.82926829268293,1.0975609756097562,13.902439024390246,20,2
329,-1.26220703125,-0.037109375,-0.35205078125,-29.87804878048781,-5.548780487804878,19.451219512195124,20,2
330,-1.20703125,-0.001953125,-0.23046875,-25.914634146341466,-14.817073170731708,25.48780487804878,20,2
331,-1.212890625,0.0400390625,-0.23046875,-23.719512195121954,-20.243902439024392,29.451219512195124,20,2
332,-1.169921875,0.0986328125,-0.17822265625,-19.32926829268293,-25.000000000000004,31.76829268292683,20,2
333,-1.13623046875,0.1337890625,-0.18798828125,-14.695121951219514,-31.89024390243903,33.963414634146346,20,2
334,-1.072265625,0.17919921875,-0.2109375,-8.841463414634147,-36.82926829268293,35.487804878048784,20,2
335,-1.05419921875,0.2060546875,-0.16796875,-5.853658536585367,-41.890243902439025,36.768292682926834,20,2
336,-1.04248046875,0.2265625,-0.15966796875,-4.634146341463415,-45.426829268292686,38.47560975609756,20,2
337,-1.01513671875,0.23291015625,-0.14501953125,-3.5975609756097566,-50.670731707317074,39.57317073170732,20,2
338,-1.01220703125,0.24169921875,-0.11279296875,-2.378048780487805,-55.97560975609757,41.463414634146346,20,2
339,-1.0341796875,0.21337890625,-0.109375,-0.48780487804878053,-61.03658536585366,43.90243902439025,20,2
340,-1.02783203125,0.18310546875,-0.07177734375,2.9268292682926833,-67.07317073170732,45.79268292682927,20,2
341,-1.0205078125,0.173828125,-0.04052734375,7.25609756097561,-73.23170731707317,46.58536585365854,20,2
342,-1.00537109375,0.1953125,0.02294921875,12.439024390243903,-79.81707317073172,47.804878048780495,20,2
343,-1.02294921875,0.19775390625,0.046875,15.54878048780488,-82.98780487804879,49.32926829268293,20,2
344,-1.0341796875,0.208984375,0.0498046875,17.5,-85.00000000000001,50.60975609756098,20,2
345,-1.01318359375,0.22900390625,0.0634765625,19.512195121951223,-87.01219512195122,51.524390243902445,20,2
346,-0.974609375,0.23583984375,0.10986328125,20.60975609756098,-88.84146341463415,53.04878048780488,20,2
347,-0.95751953125,0.2451171875,0.15185546875,22.31707317073171,-92.92682926829269,55.00000000000001,20,2
348,-0.9580078125,0.2548828125,0.1435546875,25.731707317073173,-97.8658536585366,55.85365853658537,20,2
349,-0.953125,0.2666015625,0.15185546875,29.75609756097561,-102.31707317073172,56.646341463414636,20,2
350,-0.9404296875,0.25732421875,0.14208984375,15.79268292682927,-105.06097560975611,56.524390243902445,20,2
351,-0.88623046875,0.28466796875,0.1708984375,33.29268292682927,-106.64634146341464,57.50000000000001,20,2
352,-0.845703125,0.30029296875,0.2177734375,33.90243902439025,-108.53658536585367,59.085365853658544,20,2
353,-0.7958984375,0.3251953125,0.2529296875,33.71951219512196,-110.3048780487805,61.89024390243903,20,2
354,-0.77001953125,0.3193359375,0.2705078125,33.65853658536586,-112.6829268292683,64.69512195121952,20,2
355,-0.73974609375,0.310546875,0.28125,32.987804878048784,-114.69512195121952,66.46341463414635,20,2
356,-0.7158203125,0.3037109375,0.3095703125,30.182926829268297,-115.06097560975611,66.21951219512195,20,2
357,-0.6923828125,0.31298828125,0.32177734375,28.658536585365855,-116.64634146341464,66.09756097560977,20,2
358,-0.64013671875,0.32568359375,0.32666015625,29.695121951219516,-120.00000000000001,65.60975609756098,20,2
359,-0.60009765625,0.32958984375,0.31005859375,31.58536585365854,-121.82926829268294,64.45121951219512,20,2
360,-0.5595703125,0.3642578125,0.29638671875,34.57317073170732,-125.48780487804879,63.10975609756098,20,2
361,-0.52880859375,0.408203125,0.31494140625,35.1829268292683,-127.01219512195124,61.646341463414636,20,2
362,-0.50341796875,0.4228515625,0.32421875,32.25609756097561,-127.6829268292683,61.15853658536586,20,2
363,-0.4921875,0.42626953125,0.3466796875,29.75609756097561,-127.19512195121952,61.09756097560976,20,2
364,-0.3759765625,0.42236328125,0.3759765625,26.158536585365855,-127.13414634146342,61.89024390243903,20,2
365,-0.51220703125,0.3955078125,0.37548828125,22.31707317073171,-127.8048780487805,62.43902439024391,20,2
366,-0.525390625,0.35986328125,0.40673828125,17.804878048780488,-127.98780487804879,61.82926829268293,20,2
367,-0.54296875,0.37060546875,0.41064453125,17.134146341463417,-130.3048780487805,62.25609756097562,20,2
368,-0.544921875,0.34521484375,0.3935546875,18.170731707317074,-132.5609756097561,62.43902439024391,20,2
369,-0.51953125,0.3623046875,0.388671875,20.121951219512198,-135.0,63.963414634146346,20,2
370,-0.62060546875,0.35693359375,0.3994140625,22.439024390243905,-137.25609756097563,66.82926829268293,20,2
371,-0.4755859375,0.35205078125,0.42138671875,24.451219512195124,-138.53658536585368,69.69512195121952,20,2
372,-0.453125,0.3583984375,0.416015625,24.878048780487806,-138.84146341463415,72.7439024390244,20,2
373,-0.43310546875,0.3701171875,0.427734375,25.975609756097562,-140.91463414634148,74.87804878048782,20,2
374,-0.39453125,0.3642578125,0.40625,25.670731707317074,-143.1707317073171,76.52439024390245,20,2
375,-0.35986328125,0.2509765625,0.4150390625,27.439024390243905,-144.39024390243904,62.50000000000001,20,2
376,-0.3251953125,0.39404296875,0.44287109375,29.939024390243905,-146.82926829268294,80.67073170731707,20,2
377,-0.26318359375,0.40185546875,0.47607421875,32.13414634146342,-148.41463414634148,83.59756097560977,20,2
378,-0.2197265625,0.41357421875,0.48974609375,31.707317073170735,-148.78048780487805,86.09756097560977,20,2
379,-0.20068359375,0.404296875,0.50537109375,30.121951219512198,-149.87804878048783,87.31707317073172,20,2
380,-0.1875,0.40576171875,0.53125,29.634146341463417,-149.45121951219514,88.04878048780489,20,2
381,-0.1337890625,0.43408203125,0.52880859375,31.09756097560976,-149.32926829268294,88.65853658536587,20,2
382,-0.10400390625,0.43896484375,0.52197265625,33.29268292682927,-151.21951219512195,90.00000000000001,20,2
383,-0.07080078125,0.4013671875,0.52880859375,36.707317073170735,-151.76829268292684,90.79268292682927,20,2
384,-0.04150390625,0.390625,0.5283203125,40.79268292682927,-152.6829268292683,91.21951219512196,20,2
385,-0.01513671875,0.3916015625,0.54248046875,43.04878048780488,-152.8658536585366,91.09756097560977,20,2
386,0.04541015625,0.45703125,0.55126953125,45.487804878048784,-153.65853658536588,93.17073170731707,20,2
387,0.07568359375,0.4384765625,0.52734375,46.28048780487805,-153.84146341463415,94.81707317073172,20,2
388,0.115234375,0.4658203125,0.54931640625,48.71951219512196,-154.32926829268294,95.48780487804879,20,2
389,0.0986328125,0.43896484375,0.568359375,48.41463414634147,-152.9268292682927,94.93902439024392,20,2
390,0.12109375,0.4677734375,0.55859375,47.07317073170732,-150.4878048780488,95.1219512195122,20,2
391,0.1689453125,0.515625,0.53076171875,48.29268292682927,-152.37804878048783,95.97560975609757,20,2
392,0.21826171875,0.55078125,0.5361328125,51.463414634146346,-155.3658536585366,94.57317073170732,20,2
393,0.12744140625,0.5625,0.5361328125,54.32926829268293,-157.37804878048783,95.2439024390244,20,2
394,0.27001953125,0.578125,0.537109375,57.560975609756106,-158.71951219512198,94.08536585365854,20,2
395,0.30224609375,0.59423828125,0.5458984375,59.81707317073171,-159.75609756097563,94.14634146341464,20,2
396,0.34228515625,0.6015625,0.55712890625,61.09756097560976,-159.45121951219514,94.20731707317074,20,2
397,0.3720703125,0.6044921875,0.548828125,59.87804878048781,-157.37804878048783,94.93902439024392,20,2
398,0.392578125,0.609375,0.5439453125,56.40243902439025,-154.14634146341464,94.93902439024392,20,2
399,0.384765625,0.60791015625,0.5615234375,47.6829268292683,-151.03658536585368,94.93902439024392,20,2
400,0.35888671875,0.6171875,0.57421875,41.09756097560976,-146.52439024390245,94.81707317073172,20,2
401,0.34619140625,0.63671875,0.5947265625,38.35365853658537,-143.41463414634148,95.0609756097561,20,2
402,0.3515625,0.638671875,0.580078125,38.47560975609756,-141.34146341463415,94.69512195121952,20,2
403,0.38916015625,0.66259765625,0.5615234375,39.69512195121951,-141.34146341463415,96.95121951219512,20,2
404,0.43798828125,0.6787109375,0.517578125,42.19512195121951,-145.1829268292683,98.41463414634147,20,2
405,0.43017578125,0.61767578125,0.47412109375,40.79268292682927,-147.9268292682927,99.57317073170732,20,2
406,0.46630859375,0.6455078125,0.42822265625,35.670731707317074,-146.09756097560978,97.07317073170732,20,2
407,0.4716796875,0.6611328125,0.4892578125,32.743902439024396,-144.81707317073173,96.89024390243904,20,2
408,0.50537109375,0.69921875,0.56884765625,28.10975609756098,-142.25609756097563,97.43902439024392,20,2
409,0.50732421875,0.6630859375,0.55908203125,21.585365853658537,-135.97560975609758,96.82926829268294,20,2
410,0.52490234375,0.6728515625,0.5625,19.878048780487806,-130.6707317073171,96.82926829268294,20,2
411,0.54345703125,0.71923828125,0.57373046875,23.29268292682927,-128.1707317073171,96.46341463414635,20,2
412,0.5869140625,0.712890625,0.5,25.121951219512198,-126.64634146341464,97.19512195121952,20,2
413,0.57470703125,0.6640625,0.43115234375,26.52439024390244,-126.15853658536587,97.50000000000001,20,2
414,0.6005859375,0.67724609375,0.35986328125,28.902439024390247,-127.07317073170732,97.8658536585366,20,2
415,0.6474609375,0.66845703125,0.2880859375,27.80487804878049,-128.90243902439025,98.23170731707317,20,2
416,0.728515625,0.58447265625,0.29296875,20.975609756097562,-131.09756097560978,97.19512195121952,20,2
417,0.68212890625,0.58154296875,0.2763671875,8.658536585365855,-128.0487804878049,95.48780487804879,20,2
418,0.70947265625,0.6015625,0.373046875,1.2804878048780488,-125.00000000000001,94.32926829268294,20,2
419,0.7060546875,0.58349609375,0.458984375,-0.3658536585365854,-121.64634146341464,95.54878048780489,20,2
420,0.68798828125,0.55615234375,0.50634765625,-3.2926829268292686,-115.2439024390244,95.1219512195122,20,2
421,0.689453125,0.5693359375,0.4814453125,-5.365853658536586,-110.48780487804879,94.14634146341464,20,2
422,0.72998046875,0.6162109375,0.46142578125,-4.390243902439025,-107.43902439024392,92.7439024390244,20,2
423,0.79443359375,0.65380859375,0.4345703125,-4.2682926829268295,-107.37804878048782,92.6829268292683,20,2
424,0.8017578125,0.623046875,0.32373046875,-4.451219512195122,-109.51219512195122,91.46341463414635,20,2
425,0.7900390625,0.5712890625,0.2568359375,-3.353658536585366,-112.01219512195122,89.02439024390245,20,2
426,0.80859375,0.56884765625,0.27978515625,1.6463414634146343,-116.95121951219514,87.01219512195122,20,2
427,0.822265625,0.544921875,0.28759765625,1.707317073170732,-118.71951219512196,84.81707317073172,20,2
428,0.81640625,0.51708984375,0.25244140625,-6.52439024390244,-115.3048780487805,81.09756097560977,20,2
429,0.81982421875,0.560546875,0.267578125,-13.902439024390246,-110.1219512195122,78.29268292682927,20,2
430,0.84521484375,0.60400390625,0.26904296875,-24.207317073170735,-105.79268292682927,75.97560975609757,20,2
431,0.8642578125,0.60009765625,0.26025390625,-31.89024390243903,-102.31707317073172,75.2439024390244,20,2
432,0.82666015625,0.55419921875,0.28125,-35.1219512195122,-100.1219512195122,73.84146341463415,20,2
433,0.79443359375,0.53662109375,0.29345703125,-46.28048780487805,-101.46341463414635,72.31707317073172,20,2
434,0.79296875,0.5146484375,0.29833984375,-23.719512195121954,-107.31707317073172,72.6219512195122,20,2
435,0.759765625,0.462890625,0.248046875,-15.975609756097562,-110.85365853658537,72.43902439024392,20,2
436,0.76123046875,0.44384765625,0.203125,-12.865853658536587,-112.6219512195122,71.09756097560977,20,2
437,0.7890625,0.44287109375,0.173828125,-15.609756097560977,-112.13414634146342,68.90243902439025,20,2
438,0.80419921875,0.4375,0.18798828125,-21.28048780487805,-107.6219512195122,68.17073170731707,20,2
439,0.77685546875,0.45556640625,0.19873046875,-25.48780487804878,-102.25609756097562,68.41463414634147,20,2
440,0.77978515625,0.45849609375,0.23828125,-28.353658536585368,-97.07317073170732,70.48780487804879,20,2
441,0.7705078125,0.41455078125,0.27587890625,-32.31707317073171,-90.54878048780489,71.40243902439025,20,2
442,0.86083984375,0.37548828125,0.23828125,-37.926829268292686,-82.98780487804879,71.34146341463415,20,2
443,0.7685546875,0.39697265625,0.251953125,-41.28048780487805,-75.2439024390244,69.14634146341464,20,2
444,0.82958984375,0.435546875,0.21923828125,-42.804878048780495,-76.34146341463415,69.87804878048782,20,2
445,0.79638671875,0.49755859375,0.06982421875,-37.01219512195122,-84.87804878048782,71.46341463414635,20,2
446,0.87109375,0.28857421875,-0.0234375,-25.914634146341466,-91.64634146341464,70.1219512195122,20,2
447,0.78466796875,0.30517578125,0.041015625,-16.646341463414636,-97.19512195121952,67.6219512195122,20,2
448,0.8662109375,0.36572265625,0.03466796875,-11.28048780487805,-100.67073170731709,67.01219512195122,20,2
449,0.85107421875,0.33642578125,0.015625,-22.98780487804878,-108.84146341463416,63.65853658536586,20,2
450,0.89990234375,0.3984375,0.02685546875,-34.390243902439025,-83.90243902439025,61.82926829268293,20,2
451,0.90087890625,0.41259765625,0.11962890625,-41.40243902439025,-75.48780487804879,60.79268292682927,20,2
452,0.91455078125,0.41015625,0.1689453125,-44.69512195121952,-70.2439024390244,62.13414634146342,20,2
453,0.8212890625,0.32666015625,0.205078125,-44.024390243902445,-66.76829268292684,46.82926829268293,20,2
454,0.7724609375,0.30078125,0.22509765625,-34.69512195121951,-66.09756097560977,62.31707317073171,20,2
455,0.78759765625,0.267578125,0.2216796875,-17.865853658536587,-77.37804878048782,63.65853658536586,20,2
456,0.72705078125,0.16650390625,0.07373046875,-2.9268292682926833,-86.64634146341464,64.81707317073172,20,2
457,0.71240234375,0.08935546875,-0.072265625,-1.2804878048780488,-83.17073170731707,60.00000000000001,20,2
458,0.84619140625,0.234375,-0.05029296875,-2.987804878048781,-81.46341463414635,54.81707317073171,20,2
459,0.951171875,0.29931640625,-0.07763671875,-10.0,-93.47560975609757,53.41463414634147,20,2
460,0.94384765625,0.3046875,-0.0029296875,-20.243902439024392,-71.58536585365854,55.365853658536594,20,2
461,0.89794921875,0.25537109375,-0.12939453125,-29.32926829268293,-62.6219512195122,54.81707317073171,20,2
462,0.85546875,0.20751953125,-0.03564453125,-31.89024390243903,-55.00000000000001,54.87804878048781,20,2
463,0.794921875,0.13330078125,0.0634765625,-37.19512195121951,-43.90243902439025,51.40243902439025,20,2
464,0.79150390625,0.1162109375,0.060546875,-43.10975609756098,-37.43902439024391,50.91463414634147,20,2
465,0.68017578125,0.0546875,-0.01025390625,-36.890243902439025,-40.0609756097561,56.15853658536586,20,2
466,0.599609375,-0.02783203125,-0.00146484375,-23.658536585365855,-41.09756097560976,60.304878048780495,20,2
467,0.61279296875,-0.07861328125,0.00439453125,-14.451219512195124,-41.58536585365854,62.31707317073171,20,2
468,0.65380859375,-0.06787109375,-0.01220703125,-9.817073170731708,-38.65853658536586,64.26829268292684,20,2
469,0.6787109375,-0.04931640625,-0.08203125,-12.195121951219512,-33.04878048780488,67.01219512195122,20,2
470,0.68017578125,-0.02880859375,-0.15234375,-20.54878048780488,-24.75609756097561,69.93902439024392,20,2
471,0.71142578125,-0.00830078125,-0.1923828125,-29.26829268292683,-17.378048780487806,70.91463414634147,20,2
472,0.7587890625,0.00341796875,-0.203125,-36.951219512195124,-10.792682926829269,70.3048780487805,20,2
473,0.810546875,0.01318359375,-0.25830078125,-45.00000000000001,-6.341463414634147,68.65853658536587,20,2
474,0.82470703125,-0.00390625,-0.31201171875,-58.47560975609757,3.7195121951219514,65.0,20,2
475,0.873046875,0.0390625,-0.3056640625,-70.48780487804879,11.036585365853659,60.304878048780495,20,2
476,0.9091796875,0.05029296875,-0.2841796875,-80.79268292682927,16.951219512195124,56.463414634146346,20,2
477,0.88818359375,0.05224609375,-0.2724609375,-87.92682926829269,21.82926829268293,53.963414634146346,20,2
478,0.86669921875,0.01953125,-0.26416015625,-92.43902439024392,22.865853658536587,51.524390243902445,20,2
479,0.82275390625,-0.12353515625,-0.28076171875,-91.95121951219512,22.682926829268293,48.84146341463415,20,2
480,0.80078125,-0.05126953125,-0.3642578125,-88.10975609756099,23.170731707317074,47.01219512195122,20,2
481,0.7939453125,-0.0478515625,-0.26513671875,-83.96341463414635,19.085365853658537,31.280487804878053,20,2
482,0.75341796875,0.01171875,-0.26025390625,-82.31707317073172,17.25609756097561,44.390243902439025,20,2
483,0.79345703125,-0.0166015625,-0.2744140625,-83.53658536585367,22.25609756097561,45.00000000000001,20,2
484,0.765625,0.11767578125,-0.25537109375,-85.1219512195122,22.073170731707318,43.29268292682927,20,2
485,0.80859375,0.01025390625,-0.2841796875,-89.93902439024392,29.146341463414636,42.31707317073171,20,2
486,0.80029296875,-0.005859375,-0.26806640625,-94.08536585365854,27.25609756097561,40.60975609756098,20,2
487,0.81640625,-0.0126953125,-0.3740234375,-97.43902439024392,29.573170731707318,39.08536585365854,20,2
488,0.82373046875,0.02783203125,-0.31689453125,-100.06097560975611,31.09756097560976,35.54878048780488,20,2
489,0.81494140625,-0.03955078125,-0.3232421875,-100.60975609756099,27.987804878048784,32.13414634146342,20,2
490,0.8203125,-0.1171875,-0.3134765625,-100.91463414634147,25.975609756097562,28.84146341463415,20,2
491,0.86767578125,0.0048828125,-0.30908203125,-100.1829268292683,23.719512195121954,24.634146341463417,20,2
492,0.87841796875,-0.00927734375,-0.30078125,-102.50000000000001,21.158536585365855,19.573170731707318,20,2
493,0.99267578125,0.064453125,-0.302734375,-108.35365853658537,22.5609756097561,11.890243902439025,20,2
494,0.8779296875,0.099609375,-0.26806640625,-116.34146341463416,34.207317073170735,8.414634146341465,20,2
495,0.90625,0.09375,-0.3408203125,-120.42682926829269,16.219512195121954,8.109756097560977,20,2
496,0.5478515625,0.05419921875,-0.28271484375,-115.2439024390244,27.195121951219516,-2.378048780487805,20,2
497,1.15576171875,0.20849609375,-0.18994140625,-126.40243902439026,47.5609756097561,14.390243902439027,20,2
498,0.81201171875,-0.00048828125,-0.3544921875,-130.4878048780488,42.743902439024396,-9.085365853658537,20,2
499,0.8544921875,-0.05078125,-0.23193359375,-134.75609756097563,44.451219512195124,-10.182926829268293,20,2
