,Ax,Ay,Az,Gx,Gy,Gz,distance,shot_type
0,0.57861328125,-0.55810546875,-0.26806640625,62.6829268292683,-26.58536585365854,12.256097560975611,140,4
1,0.61962890625,-0.52587890625,-0.33203125,57.804878048780495,-24.146341463414636,12.560975609756099,140,4
2,0.61474609375,-0.62060546875,-0.3349609375,50.0609756097561,-17.31707317073171,11.76829268292683,140,4
3,0.64501953125,-0.47265625,-0.33349609375,41.09756097560976,-10.731707317073171,10.24390243902439,140,4
4,0.6884765625,-0.447265625,-0.34326171875,33.59756097560976,-6.829268292682928,8.414634146341465,140,4
5,0.70263671875,-0.458984375,-0.38134765625,26.82926829268293,-5.670731707317073,6.707317073170732,140,4
6,0.6904296875,-0.46923828125,-0.4130859375,21.402439024390247,-4.878048780487806,4.573170731707317,140,4
7,0.6669921875,-0.4677734375,-0.3583984375,31.03658536585366,-2.804878048780488,1.8902439024390245,140,4
8,0.697265625,-0.44140625,-0.33740234375,9.634146341463415,-0.06097560975609757,15.365853658536587,140,4
9,0.71337890625,-0.43603515625,-0.32177734375,3.231707317073171,3.2926829268292686,-1.6463414634146343,140,4
10,0.70947265625,-0.47265625,-0.32373046875,-3.4756097560975614,5.365853658536586,-1.707317073170732,140,4
11,0.6767578125,-0.5126953125,-0.33642578125,-7.195121951219513,4.75609756097561,-0.853658536585366,140,4
12,0.65380859375,-0.54736328125,-0.33984375,-8.048780487804878,2.5609756097560976,-0.7317073170731708,140,4
13,0.69775390625,-0.5400390625,-0.35498046875,-9.085365853658537,2.3170731707317076,-1.8902439024390245,140,4
14,0.74169921875,-0.5,-0.38818359375,-13.170731707317074,4.939024390243903,-2.3170731707317076,140,4
15,0.7275390625,-0.48193359375,-0.37255859375,-17.31707317073171,8.170731707317074,-2.804878048780488,140,4
16,0.70263671875,-0.541015625,-0.34375,-18.597560975609756,9.02439024390244,-2.25609756097561,140,4
17,0.685546875,-0.60205078125,-0.36767578125,-19.390243902439025,7.987804878048781,-1.9512195121951221,140,4
18,0.68310546875,-0.60546875,-0.41943359375,-19.75609756097561,7.865853658536586,-0.7926829268292683,140,4
19,0.6845703125,-0.580078125,-0.40283203125,-22.073170731707318,9.817073170731708,0.9146341463414634,140,4
20,0.68603515625,-0.57373046875,-0.36376953125,-28.59756097560976,0.0,1.5853658536585367,140,4
21,0.701171875,-0.5283203125,-0.3134765625,-36.524390243902445,23.170731707317074,2.1951219512195124,140,4
22,0.67919921875,-0.5078125,-0.25048828125,-37.37804878048781,23.719512195121954,3.780487804878049,140,4
23,0.73876953125,-0.54833984375,-0.1875,-32.37804878048781,20.48780487804878,4.695121951219512,140,4
24,0.61279296875,-0.57470703125,-0.16455078125,-20.914634146341466,13.170731707317074,4.573170731707317,140,4
25,0.50146484375,-0.54638671875,-0.17578125,-11.402439024390246,8.292682926829269,3.780487804878049,140,4
26,0.6474609375,-0.45703125,-0.2421875,-7.01219512195122,5.670731707317073,3.8414634146341466,140,4
27,0.63818359375,-0.4599609375,-0.37060546875,-5.2439024390243905,4.51219512195122,5.060975609756098,140,4
28,0.66357421875,-0.5009765625,-0.234375,-4.634146341463415,3.9024390243902443,5.060975609756098,140,4
29,0.6962890625,-0.50537109375,-0.275390625,-6.829268292682928,6.646341463414635,3.963414634146342,140,4
30,0.72998046875,-0.47216796875,-0.27392578125,-12.134146341463415,12.073170731707318,3.048780487804878,140,4
31,0.7451171875,-0.4658203125,-0.37158203125,-19.634146341463417,18.902439024390244,2.378048780487805,140,4
32,0.74951171875,-0.4736328125,-0.20703125,-26.28048780487805,23.658536585365855,1.6463414634146343,140,4
33,0.869140625,-0.48046875,-0.15234375,-23.04878048780488,21.76829268292683,0.3658536585365854,140,4
34,0.67626953125,-0.548828125,-0.14208984375,-13.170731707317074,30.853658536585368,0.3658536585365854,140,4
35,0.6376953125,-0.60400390625,-0.15673828125,-2.9268292682926833,10.121951219512196,0.3658536585365854,140,4
36,0.64599609375,-0.595703125,-0.16357421875,0.426829268292683,8.963414634146343,0.6097560975609757,140,4
37,0.6494140625,-0.541015625,-0.1826171875,0.7926829268292683,10.182926829268293,0.9146341463414634,140,4
38,0.65380859375,-0.521484375,-0.1796875,1.6463414634146343,11.402439024390246,2.25609756097561,140,4
39,0.6552734375,-0.5458984375,-0.18310546875,0.9756097560975611,13.597560975609758,2.378048780487805,140,4
40,0.689453125,-0.517578125,-0.2216796875,-1.3414634146341464,16.219512195121954,1.6463414634146343,140,4
41,0.69775390625,-0.48974609375,-0.244140625,-5.060975609756098,18.597560975609756,1.9512195121951221,140,4
42,0.69482421875,-0.49072265625,-0.19482421875,-6.097560975609756,19.634146341463417,1.707317073170732,140,4
43,0.673828125,-0.529296875,-0.1708984375,-6.036585365853659,20.243902439024392,1.2804878048780488,140,4
44,0.6689453125,-0.54833984375,-0.18310546875,-5.7926829268292686,20.182926829268293,0.6707317073170732,140,4
45,0.66064453125,-0.55859375,-0.18115234375,-4.451219512195122,19.878048780487806,1.829268292682927,140,4
46,0.6376953125,-0.572265625,-0.171875,-3.536585365853659,19.939024390243905,2.25609756097561,140,4
47,0.66015625,-0.56201171875,-0.2041015625,-3.353658536585366,20.48780487804878,1.9512195121951221,140,4
48,0.6865234375,-0.54931640625,-0.20166015625,-4.451219512195122,22.500000000000004,1.2804878048780488,140,4
49,0.712890625,-0.521484375,-0.19482421875,-5.7926829268292686,24.207317073170735,0.3658536585365854,140,4
50,0.7294921875,-0.376953125,-0.16748046875,-7.195121951219513,25.54878048780488,-0.853658536585366,140,4
51,0.7216796875,-0.49462890625,-0.171875,-7.378048780487806,24.26829268292683,-1.8902439024390245,140,4
52,0.68359375,-0.51708984375,-0.19580078125,-4.085365853658537,21.82926829268293,-0.9146341463414634,140,4
53,0.6474609375,-0.57373046875,-0.1982421875,-0.5487804878048781,20.121951219512198,0.6097560975609757,140,4
54,0.64111328125,-0.5849609375,-0.1845703125,1.1585365853658538,21.463414634146343,2.1341463414634148,140,4
55,0.66650390625,-0.556640625,-0.17529296875,0.5487804878048781,24.695121951219516,3.414634146341464,140,4
56,0.68408203125,-0.53369140625,-0.16162109375,-1.4634146341463417,29.02439024390244,4.2682926829268295,140,4
57,0.69775390625,-0.5390625,-0.14794921875,-2.6219512195121952,31.707317073170735,5.2439024390243905,140,4
58,0.6953125,-0.5478515625,-0.11279296875,-3.1707317073170733,34.87804878048781,6.2804878048780495,140,4
59,0.6708984375,-0.55908203125,-0.09716796875,-4.329268292682928,38.170731707317074,8.048780487804878,140,4
60,0.63623046875,-0.564453125,-0.087890625,-5.853658536585367,41.34146341463415,9.695121951219512,140,4
61,0.61767578125,-0.587890625,-0.1005859375,-6.646341463414635,42.804878048780495,10.426829268292684,140,4
62,0.6552734375,-0.54833984375,-0.1298828125,-8.902439024390244,46.03658536585366,10.426829268292684,140,4
63,0.7001953125,-0.52392578125,-0.14599609375,-14.02439024390244,50.60975609756098,10.792682926829269,140,4
64,0.6962890625,-0.52490234375,-0.13818359375,-20.243902439024392,56.15853658536586,10.609756097560977,140,4
65,0.6767578125,-0.55712890625,-0.115234375,-25.670731707317074,60.1829268292683,9.939024390243903,140,4
66,0.6796875,-0.54638671875,-0.126953125,-26.951219512195124,59.87804878048781,8.719512195121952,140,4
67,0.68896484375,-0.5537109375,-0.08154296875,-23.59756097560976,56.707317073170735,8.841463414634147,140,4
68,0.6572265625,-0.59912109375,-0.02392578125,-16.34146341463415,52.6829268292683,9.573170731707318,140,4
69,0.62353515625,-0.6337890625,0.02734375,-10.24390243902439,50.85365853658537,9.756097560975611,140,4
70,0.6318359375,-0.62109375,0.0498046875,-6.097560975609756,51.09756097560976,10.365853658536587,140,4
71,0.74658203125,-0.60400390625,0.06591796875,-2.987804878048781,52.987804878048784,11.158536585365855,140,4
72,0.59228515625,-0.61474609375,0.10205078125,-0.853658536585366,55.304878048780495,11.951219512195124,140,4
73,0.58251953125,-0.74609375,0.06201171875,-15.426829268292684,52.6219512195122,11.890243902439025,140,4
74,0.50048828125,-0.56591796875,-0.11474609375,4.207317073170732,45.54878048780488,11.463414634146343,140,4
75,0.74560546875,-0.4599609375,-0.21875,5.731707317073171,44.146341463414636,11.097560975609756,140,4
76,0.7958984375,-0.41552734375,-0.22705078125,15.365853658536587,49.085365853658544,9.573170731707318,140,4
77,0.81103515625,-0.43115234375,-0.20654296875,-8.536585365853659,54.63414634146342,6.890243902439025,140,4
78,0.81884765625,-0.43408203125,-0.18701171875,-0.1829268292682927,59.085365853658544,3.8414634146341466,140,4
79,0.81884765625,-0.4287109375,-0.20556640625,-20.365853658536587,60.365853658536594,2.987804878048781,140,4
80,0.77294921875,-0.46533203125,-0.18115234375,-20.243902439024392,60.060975609756106,3.7195121951219514,140,4
81,0.71435546875,-0.52685546875,-0.1455078125,-18.658536585365855,58.10975609756098,4.146341463414634,140,4
82,0.70068359375,-0.51708984375,-0.1630859375,-17.621951219512198,56.768292682926834,4.146341463414634,140,4
83,0.68603515625,-0.4765625,-0.15673828125,-16.70731707317073,58.10975609756098,4.451219512195122,140,4
84,0.69189453125,-0.4716796875,-0.16357421875,-18.414634146341466,57.6829268292683,3.7195121951219514,140,4
85,0.7548828125,-0.40380859375,-0.18994140625,-21.03658536585366,59.75609756097562,2.6219512195121952,140,4
86,0.75048828125,-0.3984375,-0.2373046875,-15.79268292682927,60.487804878048784,1.2195121951219514,140,4
87,0.73583984375,-0.3974609375,-0.32568359375,-41.82926829268293,64.75609756097562,-0.853658536585366,140,4
88,0.740234375,-0.39453125,-0.3076171875,-46.34146341463415,67.13414634146342,-2.5609756097560976,140,4
89,0.7734375,-0.39306640625,-0.23828125,-48.10975609756098,66.64634146341464,-2.439024390243903,140,4
90,0.77490234375,-0.41650390625,-0.22216796875,-62.37804878048781,63.65853658536586,-2.5609756097560976,140,4
91,0.7373046875,-0.42724609375,-0.224609375,-46.58536585365854,63.04878048780488,-2.6219512195121952,140,4
92,0.701171875,-0.43017578125,-0.2236328125,-47.07317073170732,60.91463414634147,-3.536585365853659,140,4
93,0.67431640625,-0.41552734375,-0.1689453125,-44.024390243902445,57.987804878048784,-3.4756097560975614,140,4
94,0.650390625,-0.46337890625,-0.12841796875,-39.87804878048781,55.243902439024396,-2.9268292682926833,140,4
95,0.64453125,-0.47607421875,-0.2119140625,-34.87804878048781,47.31707317073171,-3.414634146341464,140,4
96,0.65234375,-0.40478515625,-0.26318359375,-29.39024390243903,41.768292682926834,-3.780487804878049,140,4
97,0.6953125,-0.3505859375,-0.29736328125,-15.731707317073171,39.69512195121951,-5.182926829268293,140,4
98,0.71728515625,-0.30224609375,-0.30712890625,-36.40243902439025,40.304878048780495,-7.25609756097561,140,4
99,0.62548828125,-0.27197265625,-0.2626953125,-41.524390243902445,39.57317073170732,-9.634146341463415,140,4
100,0.73681640625,-0.3291015625,-0.24951171875,-42.987804878048784,37.37804878048781,-10.975609756097562,140,4
101,0.7119140625,-0.25244140625,-0.2490234375,-41.463414634146346,34.57317073170732,-11.097560975609756,140,4
102,0.6865234375,-0.37744140625,-0.2021484375,-39.63414634146342,33.53658536585366,-11.036585365853659,140,4
103,0.6962890625,-0.3486328125,-0.19970703125,-40.0,32.5609756097561,-11.829268292682928,140,4
104,0.693359375,-0.3369140625,-0.20166015625,-41.82926829268293,31.646341463414636,-13.109756097560977,140,4
105,0.67626953125,-0.34375,-0.236328125,-43.10975609756098,28.231707317073173,-15.243902439024392,140,4
106,0.6904296875,-0.32373046875,-0.30419921875,-43.84146341463415,22.80487804878049,-18.231707317073173,140,4
107,0.72900390625,-0.27685546875,-0.32861328125,-44.75609756097561,20.670731707317074,-20.670731707317074,140,4
108,0.7578125,-0.287109375,-0.29833984375,-49.39024390243903,20.731707317073173,-23.29268292682927,140,4
109,0.87451171875,-0.31689453125,-0.2958984375,-53.78048780487806,22.012195121951223,-26.158536585365855,140,4
110,0.74365234375,-0.3134765625,-0.28076171875,-58.23170731707317,23.353658536585368,-27.987804878048784,140,4
111,0.751953125,-0.31591796875,-0.259765625,-46.89024390243903,24.81707317073171,-27.865853658536587,140,4
112,0.73388671875,-0.322265625,-0.267578125,-65.3048780487805,24.146341463414636,-27.682926829268297,140,4
113,0.74267578125,-0.29052734375,-0.263671875,-67.5,23.658536585365855,-29.02439024390244,140,4
114,0.7314453125,-0.28076171875,-0.244140625,-69.69512195121952,23.04878048780488,-30.426829268292686,140,4
115,0.71533203125,-0.283203125,-0.25732421875,-71.58536585365854,23.10975609756098,-32.37804878048781,140,4
116,0.74560546875,-0.26220703125,-0.26708984375,-74.39024390243902,21.82926829268293,-34.57317073170732,140,4
117,0.7705078125,-0.24755859375,-0.33251953125,-77.19512195121952,20.0,-37.19512195121951,140,4
118,0.794921875,-0.22802734375,-0.34033203125,-80.1829268292683,19.390243902439025,-39.32926829268293,140,4
119,0.8056640625,-0.37451171875,-0.34375,-85.91463414634147,20.0,-42.926829268292686,140,4
120,0.8310546875,-0.24072265625,-0.3310546875,-91.34146341463415,21.707317073170735,-46.34146341463415,140,4
121,0.81396484375,-0.26904296875,-0.31982421875,-95.48780487804879,23.10975609756098,-48.71951219512196,140,4
122,0.78662109375,-0.2939453125,-0.28466796875,-98.53658536585367,24.146341463414636,-49.87804878048781,140,4
123,0.79345703125,-0.28271484375,-0.2509765625,-101.28048780487806,24.878048780487806,-51.03658536585366,140,4
124,0.78271484375,-0.275390625,-0.2470703125,-104.45121951219514,26.646341463414636,-52.5609756097561,140,4
125,0.76025390625,-0.2978515625,-0.25390625,-107.19512195121952,27.621951219512198,-53.53658536585366,140,4
126,0.77685546875,-0.296875,-0.26416015625,-108.41463414634147,25.975609756097562,-55.85365853658537,140,4
127,0.794921875,-0.2626953125,-0.28662109375,-93.71951219512196,24.085365853658537,-58.35365853658537,140,4
128,0.8251953125,-0.27099609375,-0.322265625,-110.3048780487805,21.158536585365855,-60.67073170731708,140,4
129,0.8583984375,-0.26171875,-0.35498046875,-110.2439024390244,17.98780487804878,-63.29268292682927,140,4
130,0.8681640625,-0.37451171875,-0.38232421875,-109.87804878048782,31.158536585365855,-66.28048780487805,140,4
131,0.89794921875,-0.25146484375,-0.34814453125,-112.8658536585366,16.402439024390244,-68.65853658536587,140,4
132,0.92333984375,-0.22607421875,-0.36083984375,-118.78048780487806,20.121951219512198,-71.21951219512195,140,4
133,0.9453125,-0.1865234375,-0.35009765625,-126.28048780487806,24.085365853658537,-73.59756097560977,140,4
134,0.93701171875,-0.189453125,-0.33544921875,-132.7439024390244,28.231707317073173,-76.15853658536587,140,4
135,0.92822265625,-0.21533203125,-0.306640625,-138.96341463414635,32.987804878048784,-78.65853658536587,140,4
136,0.92333984375,-0.24169921875,-0.2734375,-141.82926829268294,35.36585365853659,-80.3048780487805,140,4
137,0.9072265625,-0.26171875,-0.29052734375,-141.03658536585368,33.47560975609756,-81.28048780487805,140,4
138,0.91162109375,-0.2568359375,-0.3173828125,-138.90243902439025,29.87804878048781,-83.10975609756099,140,4
139,0.93701171875,-0.20361328125,-0.25341796875,-134.81707317073173,24.634146341463417,-86.09756097560977,140,4
140,0.9892578125,-0.1630859375,-0.3798828125,-134.02439024390245,22.682926829268293,-88.96341463414635,140,4
141,1.01953125,-0.154296875,-0.36474609375,-138.35365853658539,24.207317073170735,-92.5609756097561,140,4
142,1.05615234375,-0.14306640625,-0.3837890625,-144.57317073170734,25.731707317073173,-96.46341463414635,140,4
143,1.06640625,-0.10205078125,-0.384765625,-149.51219512195124,27.865853658536587,-101.03658536585367,140,4
144,1.07421875,-0.115234375,-0.38232421875,-154.08536585365854,30.000000000000004,-105.3048780487805,140,4
145,1.06640625,-0.14794921875,-0.3583984375,-157.25609756097563,32.5,-107.98780487804879,140,4
146,1.03662109375,-0.18115234375,-0.31298828125,-157.19512195121953,33.35365853658537,-110.85365853658537,140,4
147,1.02783203125,-0.1748046875,-0.29638671875,-155.0,32.987804878048784,-113.10975609756099,140,4
148,1.041015625,-0.1572265625,-0.279296875,-152.07317073170734,32.13414634146342,-115.00000000000001,140,4
149,1.06201171875,-0.10107421875,-0.29345703125,-148.71951219512195,29.512195121951223,-117.07317073170732,140,4
150,1.10205078125,-0.060546875,-0.34326171875,-145.4268292682927,24.512195121951223,-120.1829268292683,140,4
151,1.13720703125,0.0078125,-0.4072265625,-141.46341463414635,20.121951219512198,-125.91463414634147,140,4
152,1.181640625,0.064453125,-0.41796875,-141.52439024390245,17.804878048780488,-131.64634146341464,140,4
153,1.19482421875,0.0537109375,-0.4013671875,-143.84146341463415,19.390243902439025,-138.53658536585368,140,4
154,1.27197265625,0.0771484375,-0.416015625,-145.85365853658539,18.597560975609756,-146.03658536585368,140,4
155,1.2861328125,0.07080078125,-0.38623046875,-147.8048780487805,18.04878048780488,-150.3048780487805,140,4
156,1.12744140625,-0.0234375,-0.35986328125,-147.9268292682927,17.926829268292686,-152.6829268292683,140,4
157,1.22607421875,-0.076171875,-0.34423828125,-143.35365853658539,15.000000000000002,-155.2439024390244,140,4
158,1.26416015625,-0.02197265625,-0.3037109375,-137.6219512195122,11.951219512195124,-156.64634146341464,140,4
159,1.25244140625,0.001953125,-0.29833984375,-131.40243902439025,8.353658536585366,-157.7439024390244,140,4
160,1.2822265625,0.05322265625,-0.32470703125,-126.95121951219514,5.182926829268293,-160.5487804878049,140,4
161,1.32861328125,0.1103515625,-0.3310546875,-127.25609756097562,3.5975609756097566,-163.96341463414635,140,4
162,1.35400390625,0.1240234375,-0.4111328125,-129.8780487804878,0.30487804878048785,-168.71951219512198,140,4
163,1.4033203125,0.22119140625,-0.45458984375,-132.9268292682927,2.439024390243903,-176.52439024390245,140,4
164,1.47802734375,0.2412109375,-0.40673828125,-137.9878048780488,5.853658536585367,-179.81707317073173,140,4
165,1.52734375,0.19384765625,-0.4423828125,-143.2926829268293,7.134146341463415,-182.6829268292683,140,4
166,1.50927734375,0.19775390625,-0.41845703125,-145.91463414634148,11.28048780487805,-185.3658536585366,140,4
167,1.50830078125,0.17822265625,-0.38330078125,-147.4390243902439,12.865853658536587,-171.89024390243904,140,4
168,1.4599609375,0.15966796875,-0.31591796875,-147.01219512195124,15.914634146341465,-188.59756097560978,140,4
169,1.45263671875,0.16259765625,-0.279296875,-145.85365853658539,18.170731707317074,-189.63414634146343,140,4
170,1.451171875,0.18212890625,-0.2421875,-144.32926829268294,19.512195121951223,-190.97560975609758,140,4
171,1.44970703125,0.1767578125,-0.22705078125,-143.47560975609758,19.939024390243905,-192.07317073170734,140,4
172,1.435546875,0.18017578125,-0.169921875,-141.09756097560978,21.52439024390244,-194.63414634146343,140,4
173,1.466796875,0.20751953125,-0.19091796875,-135.4268292682927,20.0,-198.90243902439025,140,4
174,1.515625,0.306640625,-0.15283203125,-131.76829268292684,20.975609756097562,-203.41463414634148,140,4
175,1.548828125,0.34130859375,-0.15478515625,-134.26829268292684,23.10975609756098,-208.78048780487808,140,4
176,1.57421875,0.49951171875,-0.11083984375,-137.19512195121953,25.48780487804878,-212.62195121951223,140,4
177,1.5732421875,0.36962890625,-0.044921875,-137.9878048780488,29.81707317073171,-217.50000000000003,140,4
178,1.59765625,0.3544921875,-0.025390625,-137.07317073170734,33.04878048780488,-221.03658536585368,140,4
179,1.57470703125,0.29638671875,-0.02099609375,-133.47560975609758,34.63414634146342,-222.37804878048783,140,4
180,1.5732421875,0.28125,0.02197265625,-129.81707317073173,37.6219512195122,-223.1707317073171,140,4
181,1.52587890625,0.27099609375,0.01806640625,-127.92682926829269,40.0,-223.1707317073171,140,4
182,1.47998046875,0.24072265625,0.0087890625,-129.20731707317074,45.36585365853659,-225.06097560975613,140,4
183,1.4599609375,0.29833984375,0.01611328125,-130.97560975609758,51.28048780487806,-228.2317073170732,140,4
184,1.400390625,0.33154296875,0.05224609375,-132.4390243902439,55.97560975609757,-231.76829268292684,140,4
185,1.34814453125,0.3193359375,0.0634765625,-133.109756097561,59.51219512195122,-218.65853658536588,140,4
186,1.310546875,0.30224609375,0.0244140625,-127.19512195121952,58.04878048780488,-236.09756097560978,140,4
187,1.26611328125,0.2978515625,0.05126953125,-120.42682926829269,58.04878048780488,-238.2926829268293,140,4
188,1.2451171875,0.2958984375,0.08203125,-113.53658536585367,59.024390243902445,-240.00000000000003,140,4
189,1.18115234375,0.26318359375,0.07470703125,-109.63414634146342,59.451219512195124,-240.3658536585366,140,4
190,1.244140625,0.24267578125,0.087890625,-104.20731707317074,60.365853658536594,-240.97560975609758,140,4
191,1.083984375,0.27001953125,0.08447265625,-97.01219512195122,60.487804878048784,-241.89024390243904,140,4
192,1.03515625,0.27197265625,0.0546875,-92.25609756097562,60.79268292682927,-243.71951219512198,140,4
193,1.0146484375,0.28955078125,0.02294921875,-88.65853658536587,60.243902439024396,-244.81707317073173,140,4
194,0.96240234375,0.25732421875,0.00048828125,-85.48780487804879,58.963414634146346,-246.09756097560978,140,4
195,0.92333984375,0.2607421875,0.02001953125,-81.21951219512196,57.987804878048784,-246.52439024390247,140,4
196,0.9072265625,0.2607421875,0.03564453125,-77.7439024390244,57.37804878048781,-247.43902439024393,140,4
197,0.83349609375,0.24462890625,0.072265625,-74.08536585365854,56.15853658536586,-247.25609756097563,140,4
198,0.77294921875,0.2099609375,0.103515625,-70.67073170731707,53.47560975609757,-246.15853658536588,140,4
199,0.734375,0.17578125,0.08837890625,-67.01219512195122,52.987804878048784,-245.7317073170732,140,4
200,0.7041015625,0.15234375,0.0986328125,-63.23170731707317,50.54878048780488,-245.609756097561,140,4
201,0.68212890625,0.1455078125,0.00537109375,-59.39024390243903,49.39024390243903,-246.03658536585368,140,4
202,0.63916015625,0.11962890625,0.1865234375,-53.41463414634147,46.89024390243903,-244.93902439024393,140,4
203,0.74658203125,0.1162109375,0.15966796875,-48.59756097560976,45.97560975609756,-243.71951219512198,140,4
204,0.5791015625,0.099609375,0.14990234375,-48.53658536585366,46.951219512195124,-239.39024390243904,140,4
205,0.5322265625,0.0712890625,0.18408203125,-49.451219512195124,48.78048780487805,-235.6707317073171,140,4
206,0.45751953125,-0.02392578125,0.19384765625,-51.463414634146346,47.13414634146342,-229.26829268292684,140,4
207,0.44287109375,-0.060546875,0.25830078125,-45.79268292682927,48.23170731707317,-223.78048780487808,140,4
208,0.32275390625,-0.14599609375,0.18212890625,-47.25609756097561,62.37804878048781,-217.50000000000003,140,4
209,0.27880859375,-0.1875,0.234375,-45.426829268292686,46.21951219512196,-210.6707317073171,140,4
210,0.20361328125,-0.24951171875,0.310546875,-41.03658536585366,44.87804878048781,-203.41463414634148,140,4
211,0.16162109375,-0.2783203125,0.32177734375,-36.646341463414636,44.024390243902445,-196.40243902439025,140,4
212,0.06982421875,-0.3203125,0.3564453125,-33.53658536585366,44.207317073170735,-186.40243902439025,140,4
213,-0.0615234375,-0.41064453125,0.41064453125,-29.573170731707318,43.47560975609756,-176.82926829268294,140,4
214,-0.1337890625,-0.47021484375,0.41845703125,-24.634146341463417,43.170731707317074,-166.95121951219514,140,4
215,-0.20654296875,-0.51953125,0.419921875,-25.121951219512198,46.09756097560976,-171.34146341463415,140,4
216,-0.31982421875,-0.59521484375,0.43505859375,-29.32926829268293,48.65853658536586,-142.5609756097561,140,4
217,-0.4365234375,-0.6796875,0.4423828125,-32.6219512195122,51.768292682926834,-130.0,140,4
218,-0.4755859375,-0.7431640625,0.49658203125,-30.30487804878049,53.17073170731708,-116.46341463414635,140,4
219,-0.55078125,-0.83447265625,0.5166015625,-26.158536585365855,51.585365853658544,-99.69512195121952,140,4
220,-0.6201171875,-0.92041015625,0.54150390625,-20.914634146341466,50.243902439024396,-83.23170731707317,140,4
221,-0.708984375,-1.00634765625,0.54345703125,-14.939024390243905,48.35365853658537,-65.97560975609757,140,4
222,-0.7685546875,-1.08544921875,0.57470703125,-9.26829268292683,45.0609756097561,-49.207317073170735,140,4
223,-0.7763671875,-1.158203125,0.578125,-4.634146341463415,43.78048780487805,-31.89024390243903,140,4
224,-0.78515625,-1.24072265625,0.5712890625,-0.48780487804878053,42.37804878048781,-13.902439024390246,140,4
225,-0.818359375,-1.30810546875,0.45263671875,3.4756097560975614,37.743902439024396,6.341463414634147,140,4
226,-0.8681640625,-1.37890625,0.41845703125,10.487804878048781,32.80487804878049,24.878048780487806,140,4
227,-0.84326171875,-1.42822265625,0.4765625,18.04878048780488,30.365853658536587,45.0609756097561,140,4
228,-0.82470703125,-1.4794921875,0.419921875,24.75609756097561,29.08536585365854,68.04878048780489,140,4
229,-0.845703125,-1.51025390625,0.35205078125,28.292682926829272,28.10975609756098,87.7439024390244,140,4
230,-0.79931640625,-1.53662109375,0.3876953125,33.65853658536586,26.34146341463415,105.3048780487805,140,4
231,-0.7158203125,-1.59423828125,0.39892578125,41.768292682926834,24.81707317073171,124.63414634146342,140,4
232,-0.5849609375,-1.6279296875,0.3896484375,51.646341463414636,22.500000000000004,142.19512195121953,140,4
233,-0.47412109375,-1.677734375,0.30615234375,60.00000000000001,19.207317073170735,161.95121951219514,140,4
234,-0.5,-1.77001953125,0.26416015625,70.1829268292683,18.170731707317074,182.31707317073173,140,4
235,-0.2265625,-1.869140625,0.2744140625,80.0,16.76829268292683,188.90243902439025,140,4
236,-0.11181640625,-1.89990234375,0.224609375,88.96341463414635,17.195121951219512,227.31707317073173,140,4
237,0.0078125,-2.146484375,0.2353515625,96.95121951219512,19.390243902439025,247.8658536585366,140,4
238,0.15869140625,-2.30615234375,0.294921875,102.56097560975611,23.04878048780488,269.63414634146346,140,4
239,0.2919921875,-2.47119140625,0.33251953125,105.48780487804879,25.48780487804878,294.63414634146346,140,4
240,0.41552734375,-2.6748046875,0.32275390625,105.48780487804879,28.475609756097562,325.9756097560976,140,4
241,0.5439453125,-2.96875,0.18408203125,101.58536585365854,31.158536585365855,363.8414634146342,140,4
242,0.64111328125,-3.34521484375,-0.02587890625,105.79268292682927,29.26829268292683,410.6707317073171,140,4
243,0.83349609375,-3.72265625,-0.1201171875,136.89024390243904,17.804878048780488,457.80487804878055,140,4
244,1.0126953125,-4.1298828125,-0.2021484375,158.109756097561,-4.75609756097561,487.37804878048786,140,4
245,1.572265625,-4.3466796875,-0.37890625,224.69512195121953,-29.32926829268293,544.939024390244,140,4
246,2.30224609375,-4.5751953125,-0.38134765625,251.58536585365854,-40.1829268292683,589.8780487804878,140,4
247,3.1611328125,-4.85693359375,-0.53271484375,279.57317073170736,-28.04878048780488,618.5365853658537,140,4
248,3.90673828125,-5.14111328125,-0.3896484375,299.45121951219517,-2.25609756097561,639.6341463414635,140,4
249,4.77294921875,-5.5234375,-0.47998046875,320.4878048780488,18.10975609756098,655.8536585365854,140,4
250,5.70849609375,-5.74560546875,-0.6728515625,327.7439024390244,61.463414634146346,702.5000000000001,140,4
251,6.40771484375,-5.8388671875,-1.32666015625,342.13414634146346,87.25609756097562,752.1951219512196,140,4
252,7.216796875,-5.689453125,-2.1435546875,364.39024390243907,112.07317073170732,820.1219512195123,140,4
253,8.3076171875,-5.185546875,-2.86572265625,386.4634146341464,121.34146341463416,861.6463414634147,140,4
254,9.3271484375,-4.69873046875,-3.2509765625,409.63414634146346,117.50000000000001,903.9024390243903,140,4
255,10.15673828125,-4.3623046875,-3.576171875,430.7926829268293,99.75609756097562,935.548780487805,140,4
256,10.77685546875,-3.77294921875,-4.18359375,482.07317073170736,55.73170731707317,962.1951219512196,140,4
257,10.875,-3.29736328125,-4.77392578125,540.9146341463415,2.3170731707317076,976.3414634146342,140,4
258,10.91796875,-3.01806640625,-5.41943359375,610.6707317073171,-60.1219512195122,939.0243902439025,140,4
259,10.98095703125,-2.505859375,-5.76025390625,726.3414634146342,-134.02439024390245,890.3658536585367,140,4
260,10.01953125,-2.9248046875,-5.96630859375,819.6341463414635,-246.82926829268294,851.5243902439025,140,4
261,8.41748046875,-4.5888671875,-6.3037109375,962.3170731707318,-385.06097560975616,796.3414634146342,140,4
262,7.7802734375,-4.43115234375,-7.27392578125,1164.8170731707319,-599.0853658536586,683.9634146341464,140,4
263,7.8896484375,-4.71826171875,-11.87841796875,1411.6463414634147,-994.5121951219513,565.548780487805,140,4
264,9.48291015625,-15.88330078125,1.609375,747.8658536585366,145.97560975609758,-196.46341463414635,140,4
265,7.994140625,7.54248046875,-7.21337890625,1031.4024390243903,-160.4878048780488,77.92682926829269,140,4
266,15.97216796875,-0.94775390625,-5.34619140625,1142.9268292682927,-630.9756097560976,-83.78048780487805,140,4
267,11.0283203125,3.10400390625,0.32958984375,987.439024390244,-216.76829268292684,-99.14634146341464,140,4
268,2.3486328125,-0.529296875,-0.05517578125,1119.939024390244,-133.47560975609758,-133.2926829268293,140,4
269,3.73486328125,-0.92529296875,-1.521484375,970.8536585365855,-189.57317073170734,-343.109756097561,140,4
270,5.3125,0.53369140625,-1.51708984375,944.8780487804879,-182.37804878048783,-330.7926829268293,140,4
271,4.3349609375,-2.11328125,-1.830078125,894.2073170731708,-173.2317073170732,-464.0853658536586,140,4
272,4.060546875,-1.99462890625,-2.1806640625,767.3780487804879,-177.50000000000003,-549.4512195121952,140,4
273,3.17041015625,-2.98486328125,-2.06640625,658.4756097560976,-187.19512195121953,-631.219512195122,140,4
274,2.78125,-2.474609375,-2.07470703125,547.2560975609756,-112.07317073170732,-664.939024390244,140,4
275,2.322265625,-2.5625,-1.46142578125,462.56097560975616,-74.20731707317074,-687.0731707317074,140,4
276,2.111328125,-2.4775390625,-1.22900390625,364.57317073170736,-11.829268292682928,-733.4756097560976,140,4
277,2.47265625,-1.94384765625,-1.537109375,308.5365853658537,60.67073170731708,-757.8048780487806,140,4
278,2.388671875,-1.6005859375,-1.5400390625,246.46341463414637,124.75609756097562,-749.8780487804879,140,4
279,1.8935546875,-1.6875,-1.1630859375,200.85365853658539,175.7926829268293,-731.0365853658537,140,4
280,1.65087890625,-1.69873046875,-0.998046875,156.76829268292684,217.07317073170734,-706.3414634146342,140,4
281,1.60595703125,-1.6201171875,-0.99658203125,131.64634146341464,247.62195121951223,-680.9756097560976,140,4
282,1.79833984375,-1.33935546875,-0.80224609375,108.65853658536587,271.5853658536586,-658.109756097561,140,4
283,2.16064453125,-1.341796875,-0.76708984375,41.34146341463415,271.95121951219517,-627.7439024390244,140,4
284,2.1787109375,-1.2919921875,-0.8134765625,9.207317073170733,270.1219512195122,-586.5853658536586,140,4
285,2.1201171875,-1.05859375,-0.681640625,-17.31707317073171,267.3780487804878,-554.8780487804878,140,4
286,2.0517578125,-0.9228515625,-0.65283203125,-66.28048780487805,272.9268292682927,-545.7317073170732,140,4
287,1.810546875,-0.8818359375,-0.52587890625,-132.6219512195122,289.51219512195127,-509.57317073170736,140,4
288,1.74365234375,-1.03515625,-0.39501953125,-176.89024390243904,307.37804878048786,-491.6463414634147,140,4
289,1.55224609375,-1.046875,-0.25048828125,-202.62195121951223,318.3536585365854,-473.2317073170732,140,4
290,1.50732421875,-0.94482421875,-0.6171875,-207.56097560975613,316.5243902439025,-454.0243902439025,140,4
291,1.55078125,-0.8876953125,-1.0009765625,-213.96341463414635,312.5609756097561,-432.62195121951225,140,4
292,1.51953125,-0.87646484375,-1.4970703125,-223.0487804878049,313.4756097560976,-419.75609756097566,140,4
293,1.45263671875,-1.013671875,-1.609375,-225.97560975609758,312.37804878048786,-375.7926829268293,140,4
294,1.255859375,-1.109375,-1.548828125,-211.21951219512198,311.219512195122,-347.56097560975616,140,4
295,1.01416015625,-0.92529296875,-1.42578125,-191.28048780487808,305.0,-318.6585365853659,140,4
296,0.626953125,-0.6982421875,-1.3134765625,-187.9878048780488,298.9024390243903,-297.8048780487805,140,4
297,0.7255859375,-0.52734375,-1.2822265625,-198.96341463414635,297.8658536585366,-295.609756097561,140,4
298,0.29736328125,-0.3798828125,-1.21826171875,-204.08536585365854,293.3536585365854,-267.9268292682927,140,4
299,0.029296875,-0.46435546875,-0.94677734375,-206.21951219512198,288.8414634146342,-263.3536585365854,140,4
300,-0.0126953125,-0.390625,-0.67724609375,-218.35365853658539,284.75609756097566,-255.6707317073171,140,4
301,-0.10498046875,-0.3623046875,-0.63818359375,-204.57317073170734,294.39024390243907,-253.1707317073171,140,4
302,0.04248046875,-0.2236328125,-0.93017578125,-230.4878048780488,274.0243902439025,-236.03658536585368,140,4
303,0.1005859375,-0.1640625,-1.05078125,-230.4268292682927,256.89024390243907,-233.1707317073171,140,4
304,-0.01806640625,-0.1806640625,-1.0224609375,-231.09756097560978,245.7926829268293,-200.609756097561,140,4
305,-0.28076171875,-0.23291015625,-0.93798828125,-233.53658536585368,237.43902439024393,-188.59756097560978,140,4
306,-0.4306640625,-0.26513671875,-0.7509765625,-249.45121951219514,226.40243902439028,-179.02439024390245,140,4
307,-0.564453125,-0.2216796875,-0.69189453125,-222.50000000000003,208.53658536585368,-173.0487804878049,140,4
308,-0.609375,-0.16748046875,-0.68603515625,-212.8658536585366,195.85365853658539,-169.63414634146343,140,4
309,-0.55517578125,-0.0986328125,-0.701171875,-210.609756097561,182.8658536585366,-163.96341463414635,140,4
310,-0.57421875,-0.06591796875,-0.79345703125,-214.26829268292684,173.84146341463415,-151.28048780487805,140,4
311,-0.7021484375,-0.14501953125,-0.91064453125,-177.7439024390244,135.6707317073171,-135.3658536585366,140,4
312,-0.818359375,-0.349609375,-0.90283203125,-198.109756097561,154.75609756097563,-118.10975609756099,140,4
313,-0.85986328125,-0.38525390625,-0.92919921875,-185.85365853658539,148.78048780487805,-103.17073170731709,140,4
314,-0.92626953125,-0.37841796875,-0.8076171875,-168.65853658536588,144.45121951219514,-90.1829268292683,140,4
315,-0.9853515625,-0.32470703125,-0.66064453125,-151.21951219512195,155.91463414634148,-93.17073170731707,140,4
316,-1.0068359375,-0.2529296875,-0.55224609375,-135.85365853658539,135.3658536585366,-68.35365853658537,140,4
317,-0.96923828125,-0.17919921875,-0.556640625,-129.75609756097563,133.41463414634148,-64.14634146341464,140,4
318,-0.8583984375,-0.0654296875,-0.5400390625,-124.45121951219514,130.5487804878049,-59.87804878048781,140,4
319,-0.853515625,-0.0185546875,-0.53271484375,-125.97560975609757,125.12195121951221,-54.268292682926834,140,4
320,-0.92236328125,-0.09521484375,-0.60107421875,-121.82926829268294,115.3658536585366,-47.50000000000001,140,4
321,-0.99853515625,-0.21826171875,-0.607421875,-109.45121951219514,103.65853658536587,-40.73170731707317,140,4
322,-1.08056640625,-0.240234375,-0.5498046875,-97.6219512195122,91.15853658536587,-33.04878048780488,140,4
323,-1.1484375,-0.23388671875,-0.46533203125,-90.60975609756099,86.40243902439025,-25.365853658536587,140,4
324,-1.1962890625,-0.19091796875,-0.38330078125,-90.73170731707317,81.28048780487805,-20.365853658536587,140,4
325,-1.17138671875,-0.095703125,-0.45263671875,-90.42682926829269,74.51219512195122,-19.146341463414636,140,4
326,-1.115234375,-0.07958984375,-0.51416015625,-86.58536585365854,64.02439024390245,-17.25609756097561,140,4
327,-1.24609375,-0.10791015625,-0.5283203125,-82.43902439024392,53.04878048780488,-13.414634146341465,140,4
328,-1.20556640625,-0.15869140625,-0.53857421875,-78.96341463414635,41.34146341463415,-9.26829268292683,140,4
329,-1.2314453125,-0.1982421875,-0.5146484375,-74.39024390243902,32.5,-6.097560975609756,140,4
330,-1.27783203125,-0.23486328125,-0.4697265625,-72.19512195121952,23.719512195121954,-1.1585365853658538,140,4
331,-1.306640625,-0.24658203125,-0.498046875,-68.29268292682927,15.731707317073171,3.9024390243902443,140,4
332,-1.3037109375,-0.23876953125,-0.4833984375,-60.60975609756098,8.658536585365855,9.451219512195122,140,4
333,-1.2724609375,-0.20263671875,-0.49365234375,-54.81707317073171,2.0121951219512195,0.12195121951219513,140,4
334,-1.23828125,-0.16064453125,-0.4970703125,-47.43902439024391,-3.2926829268292686,22.743902439024392,140,4
335,-1.21435546875,-0.13720703125,-0.62451171875,-42.13414634146342,-7.682926829268293,28.59756097560976,140,4
336,-1.18896484375,-0.09619140625,-0.49072265625,-35.487804878048784,-13.353658536585368,33.78048780487805,140,4
337,-1.1640625,-0.06494140625,-0.46875,-32.13414634146342,-19.26829268292683,37.743902439024396,140,4
338,-1.14013671875,-0.04150390625,-0.45654296875,-27.439024390243905,-23.59756097560976,42.19512195121951,140,4
339,-1.14501953125,-0.04248046875,-0.408203125,-23.902439024390247,-15.670731707317074,45.1219512195122,140,4
340,-1.15673828125,-0.03515625,-0.38623046875,-18.414634146341466,-40.243902439024396,47.25609756097561,140,4
341,-1.1396484375,-0.02880859375,-0.33935546875,-12.195121951219512,-48.71951219512196,48.78048780487805,140,4
342,-1.09912109375,0.01513671875,-0.267578125,-6.951219512195123,-56.09756097560976,50.243902439024396,140,4
343,-1.07080078125,0.0673828125,-0.3662109375,-3.780487804878049,-62.19512195121952,51.03658536585366,140,4
344,-1.01953125,0.1015625,-0.23095703125,-0.9146341463414634,-67.8048780487805,51.21951219512196,140,4
345,-0.994140625,0.1220703125,-0.216796875,3.8414634146341466,-72.92682926829269,50.85365853658537,140,4
346,-0.984375,0.11865234375,-0.18603515625,7.987804878048781,-77.6829268292683,50.60975609756098,140,4
347,-0.97509765625,0.14404296875,-0.14697265625,11.158536585365855,-79.08536585365854,50.85365853658537,140,4
348,-0.97119140625,0.16552734375,-0.10107421875,13.109756097560977,-81.46341463414635,50.85365853658537,140,4
349,-0.99267578125,0.1953125,-0.06884765625,13.841463414634148,-83.53658536585367,50.243902439024396,140,4
350,-0.98828125,0.21142578125,-0.06298828125,13.841463414634148,-85.48780487804879,49.81707317073171,140,4
351,-0.9921875,0.2275390625,-0.0322265625,14.329268292682928,-87.01219512195122,49.024390243902445,140,4
352,-1.0146484375,0.21923828125,0.0224609375,15.182926829268293,-89.87804878048782,49.81707317073171,140,4
353,-1.0400390625,0.19189453125,0.033203125,19.02439024390244,-94.39024390243904,49.81707317073171,140,4
354,-1.05126953125,0.1982421875,0.056640625,24.939024390243905,-99.69512195121952,50.243902439024396,140,4
355,-1.0517578125,0.1796875,0.068359375,30.914634146341466,-104.75609756097562,52.13414634146342,140,4
356,-1.0537109375,0.18115234375,0.06494140625,41.34146341463415,-111.82926829268294,54.87804878048781,140,4
357,-1.06640625,0.17431640625,0.07470703125,51.03658536585366,-116.40243902439025,56.40243902439025,140,4
358,-1.05859375,0.2099609375,0.11669921875,58.29268292682927,-120.00000000000001,58.10975609756098,140,4
359,-1.02880859375,0.24462890625,0.1416015625,60.91463414634147,-121.28048780487806,58.84146341463415,140,4
360,-0.99267578125,0.2939453125,0.1787109375,58.17073170731708,-119.57317073170732,59.207317073170735,140,4
361,-0.95166015625,0.333984375,0.1953125,53.23170731707317,-118.41463414634147,59.39024390243903,140,4
362,-0.94482421875,0.36376953125,0.2099609375,51.40243902439025,-119.57317073170732,59.87804878048781,140,4
363,-0.96337890625,0.36474609375,0.23974609375,50.304878048780495,-121.40243902439025,58.53658536585366,140,4
364,-0.97802734375,0.3671875,0.26416015625,51.03658536585366,-123.84146341463416,57.804878048780495,140,4
365,-0.98095703125,0.3681640625,0.296875,52.43902439024391,-125.73170731707319,56.585365853658544,140,4
366,-0.9697265625,0.3701171875,0.32568359375,53.23170731707317,-126.03658536585367,55.243902439024396,140,4
367,-0.923828125,0.40869140625,0.33154296875,52.43902439024391,-125.42682926829269,54.268292682926834,140,4
368,-0.87890625,0.44091796875,0.3134765625,49.207317073170735,-124.75609756097562,53.71951219512196,140,4
369,-0.87548828125,0.45556640625,0.29345703125,45.91463414634147,-125.2439024390244,52.50000000000001,140,4
370,-0.88037109375,0.45361328125,0.31396484375,45.60975609756098,-127.07317073170732,51.463414634146346,140,4
371,-0.8876953125,0.41357421875,0.35400390625,47.6829268292683,-129.26829268292684,49.207317073170735,140,4
372,-0.86328125,0.39111328125,0.3779296875,50.54878048780488,-130.91463414634148,47.804878048780495,140,4
373,-0.84814453125,0.40234375,0.3896484375,52.50000000000001,-132.01219512195124,47.43902439024391,140,4
374,-0.82373046875,0.40869140625,0.39892578125,51.40243902439025,-130.609756097561,46.34146341463415,140,4
375,-0.802734375,0.42578125,0.40185546875,47.804878048780495,-127.56097560975611,45.487804878048784,140,4
376,-0.7841796875,0.44287109375,0.4296875,44.390243902439025,-123.53658536585367,45.304878048780495,140,4
377,-0.76025390625,0.4482421875,0.44580078125,41.40243902439025,-119.75609756097562,45.91463414634147,140,4
378,-0.72998046875,0.44873046875,0.4365234375,40.1219512195122,-118.78048780487806,47.19512195121952,140,4
379,-0.7099609375,0.43408203125,0.4169921875,40.73170731707317,-120.48780487804879,47.5609756097561,140,4
380,-0.70703125,0.4052734375,0.4072265625,44.390243902439025,-122.7439024390244,46.524390243902445,140,4
381,-0.69287109375,0.40185546875,0.41943359375,50.00000000000001,-109.39024390243904,46.15853658536586,140,4
382,-0.65087890625,0.40576171875,0.45361328125,55.304878048780495,-126.15853658536587,46.28048780487805,140,4
383,-0.61962890625,0.42333984375,0.50830078125,59.63414634146342,-128.47560975609758,48.10975609756098,140,4
384,-0.625,0.40673828125,0.5224609375,60.85365853658537,-127.31707317073172,48.23170731707317,140,4
385,-0.6103515625,0.41455078125,0.55029296875,58.963414634146346,-124.02439024390245,47.743902439024396,140,4
386,-0.591796875,0.4453125,0.59033203125,55.60975609756098,-119.14634146341464,47.31707317073171,140,4
387,-0.55224609375,0.4560546875,0.60498046875,49.75609756097561,-113.35365853658537,46.82926829268293,140,4
388,-0.5009765625,0.47216796875,0.62255859375,47.07317073170732,-108.59756097560977,31.219512195121954,140,4
389,-0.4912109375,0.443359375,0.61279296875,46.646341463414636,-106.52439024390245,47.19512195121952,140,4
390,-0.49462890625,0.427734375,0.5908203125,50.60975609756098,-107.31707317073172,47.19512195121952,140,4
391,-0.48486328125,0.42333984375,0.57373046875,57.743902439024396,-110.48780487804879,47.37804878048781,140,4
392,-0.48388671875,0.4287109375,0.56640625,65.1219512195122,-113.90243902439025,47.19512195121952,140,4
393,-0.46142578125,0.453125,0.57177734375,68.96341463414635,-114.45121951219514,46.707317073170735,140,4
394,-0.4443359375,0.46875,0.56640625,67.43902439024392,-113.23170731707319,46.646341463414636,140,4
395,-0.44140625,0.478515625,0.57666015625,77.5,-124.87804878048782,46.58536585365854,140,4
396,-0.43896484375,0.48681640625,0.5771484375,55.365853658536594,-105.1829268292683,46.524390243902445,140,4
397,-0.4462890625,0.48486328125,0.6181640625,49.63414634146342,-102.50000000000001,46.951219512195124,140,4
398,-0.45263671875,0.46435546875,0.62548828125,47.13414634146342,-100.91463414634147,47.804878048780495,140,4
399,-0.45849609375,0.46533203125,0.650390625,47.804878048780495,-100.3658536585366,48.59756097560976,140,4
400,-0.4501953125,0.455078125,0.66015625,51.28048780487806,-101.52439024390245,50.670731707317074,140,4
401,-0.4365234375,0.447265625,0.63330078125,54.32926829268293,-101.15853658536587,51.951219512195124,140,4
402,-0.41845703125,0.4462890625,0.62255859375,55.67073170731708,-100.2439024390244,53.17073170731708,140,4
403,-0.3662109375,0.47412109375,0.5771484375,54.81707317073171,-98.41463414634147,53.71951219512196,140,4
404,-0.34912109375,0.5107421875,0.546875,51.15853658536586,-97.19512195121952,54.69512195121952,140,4
405,-0.29443359375,0.54931640625,0.5322265625,62.25609756097562,-95.00000000000001,55.79268292682927,140,4
406,-0.26513671875,0.56884765625,0.509765625,42.01219512195122,-93.71951219512196,56.34146341463415,140,4
407,-0.126953125,0.56591796875,0.53466796875,37.13414634146342,-92.92682926829269,55.85365853658537,140,4
408,-0.24951171875,0.5380859375,0.57373046875,30.60975609756098,-90.42682926829269,55.426829268292686,140,4
409,-0.248046875,0.53076171875,0.6064453125,26.402439024390247,-87.8658536585366,55.1219512195122,140,4
410,-0.24609375,0.53125,0.626953125,24.512195121951223,-85.48780487804879,54.024390243902445,140,4
411,-0.23974609375,0.53955078125,0.64453125,26.158536585365855,-85.3048780487805,53.35365853658537,140,4
412,-0.2294921875,0.5302734375,0.6484375,30.426829268292686,-86.28048780487805,53.963414634146346,140,4
413,-0.22412109375,0.51318359375,0.6328125,34.57317073170732,-87.6829268292683,54.87804878048781,140,4
414,-0.22802734375,0.52099609375,0.58740234375,40.0609756097561,-92.01219512195122,56.463414634146346,140,4
415,-0.12548828125,0.51220703125,0.59619140625,42.743902439024396,-92.98780487804879,57.01219512195122,140,4
416,-0.2412109375,0.548828125,0.58056640625,42.25609756097561,-91.21951219512196,56.28048780487806,140,4
417,-0.1962890625,0.6142578125,0.5576171875,37.5,-87.43902439024392,57.19512195121952,140,4
418,-0.20556640625,0.60400390625,0.5478515625,46.524390243902445,-82.5609756097561,59.63414634146342,140,4
419,-0.17138671875,0.6123046875,0.56005859375,24.146341463414636,-79.39024390243902,60.85365853658537,140,4
420,-0.17822265625,0.5869140625,0.587890625,21.402439024390247,-77.8658536585366,63.04878048780488,140,4
421,-0.19580078125,0.5751953125,0.58203125,22.012195121951223,-77.13414634146342,64.69512195121952,140,4
422,-0.1884765625,0.56689453125,0.59814453125,25.182926829268293,-77.8658536585366,65.73170731707317,140,4
423,-0.16162109375,0.58056640625,0.60888671875,29.512195121951223,-78.35365853658537,66.70731707317074,140,4
424,-0.24951171875,0.58740234375,0.6064453125,32.743902439024396,-77.6219512195122,67.8048780487805,140,4
425,-0.091796875,0.5927734375,0.560546875,32.19512195121951,-76.52439024390245,69.02439024390245,140,4
426,-0.0517578125,0.5029296875,0.533203125,30.365853658536587,-75.2439024390244,70.0,140,4
427,-0.02734375,0.62890625,0.52783203125,27.80487804878049,-73.35365853658537,69.87804878048782,140,4
428,-0.00341796875,0.65478515625,0.5576171875,26.09756097560976,-72.25609756097562,68.96341463414635,140,4
429,0.02392578125,0.67529296875,0.54931640625,24.512195121951223,-71.76829268292684,68.23170731707317,140,4
430,0.03125,0.68505859375,0.537109375,22.439024390243905,-71.58536585365854,66.82926829268293,140,4
431,0.04833984375,0.7177734375,0.45166015625,21.707317073170735,-73.78048780487805,65.73170731707317,140,4
432,0.04150390625,0.6884765625,0.4677734375,20.975609756097562,-77.07317073170732,63.84146341463415,140,4
433,0.11474609375,0.7490234375,0.5029296875,25.30487804878049,-81.15853658536587,62.6829268292683,140,4
434,0.1064453125,0.68896484375,0.564453125,26.402439024390247,-81.52439024390245,63.90243902439025,140,4
435,0.09521484375,0.66259765625,0.5947265625,23.53658536585366,-78.47560975609757,64.02439024390245,140,4
436,0.0986328125,0.689453125,0.64599609375,23.59756097560976,-76.95121951219512,63.17073170731708,140,4
437,0.09619140625,0.71240234375,0.625,26.28048780487805,-77.5609756097561,61.89024390243903,140,4
438,0.09228515625,0.68798828125,0.58935546875,27.621951219512198,-76.28048780487805,60.1219512195122,140,4
439,0.09228515625,0.681640625,0.59619140625,28.84146341463415,-76.70731707317074,60.426829268292686,140,4
440,0.08251953125,0.65869140625,0.5419921875,29.634146341463417,-76.95121951219512,60.1829268292683,140,4
441,0.103515625,0.68017578125,0.51220703125,28.780487804878053,-77.98780487804879,59.51219512195122,140,4
442,0.123046875,0.703125,0.494140625,28.353658536585368,-79.02439024390245,59.39024390243903,140,4
443,0.11669921875,0.69482421875,0.50732421875,26.646341463414636,-78.59756097560977,60.365853658536594,140,4
444,0.13427734375,0.68701171875,0.5498046875,25.243902439024392,-78.17073170731707,61.21951219512196,140,4
445,0.15625,0.677734375,0.580078125,24.02439024390244,-77.13414634146342,62.743902439024396,140,4
446,0.1533203125,0.6572265625,0.5771484375,23.658536585365855,-75.3658536585366,63.17073170731708,140,4
447,0.1796875,0.67041015625,0.58740234375,23.963414634146343,-73.47560975609757,62.6219512195122,140,4
448,0.19091796875,0.6875,0.5908203125,24.573170731707318,-73.84146341463415,62.865853658536594,140,4
449,0.18359375,0.677734375,0.56298828125,25.121951219512198,-72.98780487804879,77.98780487804879,140,4
450,0.18701171875,0.69189453125,0.55517578125,26.34146341463415,-72.07317073170732,62.01219512195122,140,4
451,0.20068359375,0.69921875,0.5498046875,29.512195121951223,-72.13414634146342,62.50000000000001,140,4
452,0.20849609375,0.70068359375,0.53515625,32.43902439024391,-72.43902439024392,63.53658536585366,140,4
453,0.2041015625,0.6806640625,0.48828125,32.5,-71.58536585365854,64.45121951219512,140,4
454,0.2236328125,0.689453125,0.46240234375,29.695121951219516,-69.93902439024392,65.0,140,4
455,0.27197265625,0.72412109375,0.4541015625,26.707317073170735,-69.32926829268293,64.69512195121952,140,4
456,0.32080078125,0.74658203125,0.4501953125,24.207317073170735,-70.54878048780489,64.81707317073172,140,4
457,0.31640625,0.7021484375,0.439453125,20.48780487804878,-70.67073170731707,64.14634146341464,140,4
458,0.32275390625,0.69287109375,0.474609375,17.31707317073171,-69.81707317073172,62.865853658536594,140,4
459,0.31396484375,0.68115234375,0.48876953125,15.914634146341465,-68.59756097560977,62.13414634146342,140,4
460,0.3271484375,0.69677734375,0.51123046875,16.890243902439025,-67.98780487804879,62.01219512195122,140,4
461,0.3154296875,0.658203125,0.4853515625,17.31707317073171,-66.52439024390245,62.25609756097562,140,4
462,0.3173828125,0.62646484375,0.4736328125,20.182926829268293,-66.15853658536587,62.31707317073171,140,4
463,0.32763671875,0.609375,0.44482421875,24.390243902439025,-67.31707317073172,62.804878048780495,140,4
464,0.32080078125,0.5947265625,0.41162109375,26.52439024390244,-67.8658536585366,63.29268292682927,140,4
465,0.32861328125,0.595703125,0.37548828125,24.146341463414636,-67.6219512195122,63.963414634146346,140,4
466,0.35107421875,0.62451171875,0.36767578125,20.243902439024392,-67.01219512195122,64.51219512195122,140,4
467,0.3876953125,0.64794921875,0.49658203125,30.975609756097565,-66.40243902439025,64.45121951219512,140,4
468,0.41357421875,0.66650390625,0.4072265625,11.707317073170733,-66.28048780487805,65.2439024390244,140,4
469,0.40869140625,0.66748046875,0.40625,9.817073170731708,-67.25609756097562,66.89024390243902,140,4
470,0.4072265625,0.662109375,0.4130859375,9.573170731707318,-69.69512195121952,68.47560975609757,140,4
471,0.38671875,0.63818359375,0.3916015625,10.731707317073171,-71.70731707317074,68.90243902439025,140,4
472,0.38671875,0.61181640625,0.392578125,12.256097560975611,-73.59756097560977,69.75609756097562,140,4
473,0.3935546875,0.58251953125,0.37451171875,12.621951219512196,-74.63414634146342,70.3048780487805,140,4
474,0.3974609375,0.56640625,0.37060546875,13.658536585365855,-74.02439024390245,70.79268292682927,140,4
475,0.40283203125,0.5400390625,0.36767578125,11.585365853658537,-71.95121951219512,71.28048780487805,140,4
476,0.423828125,0.51513671875,0.345703125,6.829268292682928,-67.01219512195122,71.21951219512195,140,4
477,0.44140625,0.52978515625,0.3369140625,3.2926829268292686,-63.23170731707317,71.82926829268294,140,4
478,0.46875,0.5498046875,0.3310546875,2.7439024390243905,-61.585365853658544,72.6829268292683,140,4
479,0.50341796875,0.5478515625,0.30224609375,4.329268292682928,-62.43902439024391,73.71951219512195,140,4
480,0.5146484375,0.51416015625,0.26416015625,6.829268292682928,-65.0,74.45121951219512,140,4
481,0.5244140625,0.4990234375,0.2451171875,10.182926829268293,-67.92682926829269,73.96341463414635,140,4
482,0.5380859375,0.50927734375,0.23583984375,11.585365853658537,-69.20731707317074,72.43902439024392,140,4
483,0.5625,0.51171875,0.26171875,11.28048780487805,-69.45121951219512,71.82926829268294,140,4
484,0.55615234375,0.517578125,0.2890625,11.402439024390246,-68.47560975609757,71.21951219512195,140,4
485,0.56103515625,0.5419921875,0.30810546875,12.073170731707318,-67.5609756097561,70.60975609756098,140,4
486,0.5517578125,0.51513671875,0.32958984375,12.01219512195122,-65.79268292682927,68.47560975609757,140,4
487,0.5712890625,0.50341796875,0.32763671875,11.52439024390244,-61.768292682926834,66.09756097560977,140,4
488,0.59375,0.5029296875,0.29443359375,9.085365853658537,-57.50000000000001,64.02439024390245,140,4
489,0.6171875,0.53369140625,0.2919921875,7.01219512195122,-54.51219512195122,62.560975609756106,140,4
490,0.6337890625,0.53662109375,0.28125,6.036585365853659,-52.19512195121952,61.768292682926834,140,4
491,0.63525390625,0.5322265625,0.27490234375,6.829268292682928,-51.524390243902445,60.243902439024396,140,4
492,0.63623046875,0.51806640625,0.25732421875,9.390243902439025,-51.585365853658544,59.451219512195124,140,4
493,0.64013671875,0.521484375,0.248046875,12.74390243902439,-52.804878048780495,58.59756097560976,140,4
494,0.63525390625,0.51025390625,0.21044921875,15.30487804878049,-53.47560975609757,57.19512195121952,140,4
495,0.6357421875,0.51220703125,0.22021484375,15.914634146341465,-53.41463414634147,55.85365853658537,140,4
496,0.65234375,0.50537109375,0.23046875,14.573170731707318,-52.01219512195122,54.69512195121952,140,4
497,0.6552734375,0.5029296875,0.23974609375,9.207317073170733,-48.963414634146346,53.65853658536586,140,4
498,0.67529296875,0.50048828125,0.21044921875,4.451219512195122,-46.03658536585366,52.31707317073171,140,4
499,0.68896484375,0.4892578125,0.22998046875,1.8902439024390245,-43.963414634146346,51.15853658536586,140,4
