,Ax,Ay,Az,Gx,Gy,Gz,distance,shot_type
0,0.66748046875,-0.4638671875,-0.28759765625,5.182926829268293,4.207317073170732,0.6097560975609757,140,6
1,0.67529296875,-0.4541015625,-0.3017578125,6.402439024390245,4.024390243902439,0.853658536585366,140,6
2,0.6875,-0.4619140625,-0.31640625,6.646341463414635,3.9024390243902443,0.7926829268292683,140,6
3,0.6904296875,-0.4755859375,-0.31640625,5.853658536585367,4.451219512195122,0.853658536585366,140,6
4,0.671875,-0.4853515625,-0.31201171875,5.975609756097562,3.4756097560975614,0.853658536585366,140,6
5,0.6669921875,-0.5048828125,-0.31396484375,7.865853658536586,2.439024390243903,0.7317073170731708,140,6
6,0.666015625,-0.50244140625,-0.2890625,7.560975609756098,2.25609756097561,0.9756097560975611,140,6
7,0.673828125,-0.49072265625,-0.30078125,6.158536585365854,2.8658536585365857,1.2804878048780488,140,6
8,0.6689453125,-0.49072265625,-0.29541015625,4.695121951219512,3.353658536585366,1.829268292682927,140,6
9,0.66943359375,-0.49853515625,-0.2890625,3.536585365853659,3.048780487804878,2.0121951219512195,140,6
10,0.67041015625,-0.3759765625,-0.271484375,4.024390243902439,2.8658536585365857,1.707317073170732,140,6
11,0.6669921875,-0.50146484375,-0.2763671875,5.914634146341464,1.2195121951219514,1.2804878048780488,140,6
12,0.6826171875,-0.48974609375,-0.30078125,7.865853658536586,-0.5487804878048781,0.7926829268292683,140,6
13,0.69580078125,-0.48779296875,-0.291015625,9.146341463414634,-0.9146341463414634,0.06097560975609757,140,6
14,0.697265625,-0.49365234375,-0.29638671875,10.487804878048781,-1.524390243902439,-0.5487804878048781,140,6
15,0.693359375,-0.5126953125,-0.33740234375,11.951219512195124,-2.804878048780488,-0.9756097560975611,140,6
16,0.69384765625,-0.53076171875,-0.34716796875,12.74390243902439,-2.987804878048781,-1.3414634146341464,140,6
17,0.70556640625,-0.5263671875,-0.333984375,10.914634146341465,-1.4634146341463417,-1.524390243902439,140,6
18,0.6923828125,-0.51904296875,-0.2958984375,8.292682926829269,0.426829268292683,-0.426829268292683,140,6
19,0.66650390625,-0.52880859375,-0.271484375,6.463414634146342,1.524390243902439,0.5487804878048781,140,6
20,0.640625,-0.54248046875,-0.259765625,7.378048780487806,0.7317073170731708,1.4634146341463417,140,6
21,0.6357421875,-0.54296875,-0.2529296875,10.121951219512196,-0.7926829268292683,1.4634146341463417,140,6
22,0.64013671875,-0.5341796875,-0.26416015625,12.560975609756099,-2.682926829268293,1.0975609756097562,140,6
23,0.66015625,-0.52099609375,-0.27099609375,13.841463414634148,-2.8658536585365857,0.30487804878048785,140,6
24,0.6904296875,-0.49609375,-0.29638671875,14.634146341463415,-2.8658536585365857,-0.6707317073170732,140,6
25,0.7099609375,-0.4755859375,-0.3193359375,12.926829268292684,-2.3170731707317076,-1.2804878048780488,140,6
26,0.70849609375,-0.47705078125,-0.30322265625,11.463414634146343,-1.4634146341463417,-1.2804878048780488,140,6
27,0.7109375,-0.37744140625,-0.2939453125,9.817073170731708,-0.3658536585365854,-0.853658536585366,140,6
28,0.6982421875,-0.521484375,-0.296875,7.743902439024391,0.6707317073170732,0.12195121951219513,140,6
29,0.69140625,-0.5341796875,-0.29150390625,6.951219512195123,1.0975609756097562,0.5487804878048781,140,6
30,0.68408203125,-0.546875,-0.3056640625,6.646341463414635,1.2804878048780488,0.9756097560975611,140,6
31,0.6806640625,-0.5634765625,-0.30810546875,6.890243902439025,0.9756097560975611,0.9756097560975611,140,6
32,0.66943359375,-0.55810546875,-0.28955078125,7.743902439024391,0.9756097560975611,0.5487804878048781,140,6
33,0.6611328125,-0.546875,-0.28564453125,8.719512195121952,0.24390243902439027,1.0365853658536586,140,6
34,0.65380859375,-0.54248046875,-0.2802734375,11.341463414634147,-1.3414634146341464,0.9756097560975611,140,6
35,0.66357421875,-0.52978515625,-0.271484375,12.560975609756099,-2.1341463414634148,0.7317073170731708,140,6
36,0.66552734375,-0.517578125,-0.2890625,12.073170731707318,-1.9512195121951221,0.6707317073170732,140,6
37,0.67529296875,-0.498046875,-0.25732421875,10.853658536585368,-1.3414634146341464,0.7926829268292683,140,6
38,0.67138671875,-0.50537109375,-0.259765625,10.30487804878049,-1.2804878048780488,0.7317073170731708,140,6
39,0.66943359375,-0.48681640625,-0.27099609375,9.451219512195122,-0.9146341463414634,0.7317073170731708,140,6
40,0.66943359375,-0.49169921875,-0.26171875,9.26829268292683,-0.9146341463414634,0.7317073170731708,140,6
41,0.671875,-0.49462890625,-0.259765625,9.817073170731708,-1.524390243902439,0.426829268292683,140,6
42,0.68115234375,-0.48486328125,-0.25537109375,10.060975609756099,-0.9146341463414634,-15.609756097560977,140,6
43,0.68115234375,-0.4853515625,-0.25537109375,10.182926829268293,-0.30487804878048785,-0.24390243902439027,140,6
44,0.68310546875,-0.48291015625,-0.2451171875,10.609756097560977,0.30487804878048785,-0.6707317073170732,140,6
45,0.6904296875,-0.4658203125,-0.240234375,11.463414634146343,-0.7926829268292683,-1.0975609756097562,140,6
46,0.69140625,-0.47802734375,-0.259765625,12.74390243902439,-1.3414634146341464,-1.7682926829268295,140,6
47,0.6875,-0.4853515625,-0.27392578125,14.451219512195124,-2.073170731707317,-2.073170731707317,140,6
48,0.697265625,-0.48291015625,-0.2939453125,14.390243902439027,-1.3414634146341464,-2.8658536585365857,140,6
49,0.71630859375,-0.49169921875,-0.30517578125,12.01219512195122,-0.6097560975609757,-2.7439024390243905,140,6
50,0.70751953125,-0.521484375,-0.34423828125,8.048780487804878,-15.609756097560977,-0.12195121951219513,140,6
51,0.5771484375,-0.64404296875,-0.32763671875,5.731707317073171,2.5,2.987804878048781,140,6
52,0.4990234375,-0.6630859375,-0.208984375,5.426829268292684,8.597560975609756,-2.0121951219512195,140,6
53,0.6875,-0.478515625,-0.15771484375,8.719512195121952,6.036585365853659,-5.853658536585367,140,6
54,0.7451171875,-0.404296875,-0.181640625,12.195121951219512,4.329268292682928,-4.2682926829268295,140,6
55,0.6904296875,-0.474609375,-0.18798828125,9.146341463414634,10.121951219512196,-4.146341463414634,140,6
56,0.67138671875,-0.51220703125,-0.16357421875,7.378048780487806,11.402439024390246,-3.231707317073171,140,6
57,0.6240234375,-0.57373046875,-0.1630859375,11.219512195121952,6.097560975609756,0.1829268292682927,140,6
58,0.64990234375,-0.55517578125,-0.22900390625,19.32926829268293,2.439024390243903,15.54878048780488,140,6
59,0.71435546875,-0.5146484375,-0.23291015625,22.195121951219512,5.3048780487804885,-0.30487804878048785,140,6
60,0.7138671875,-0.501953125,-0.23095703125,20.914634146341466,5.731707317073171,0.7926829268292683,140,6
61,0.69580078125,-0.52587890625,-0.26220703125,22.073170731707318,3.5975609756097566,1.6463414634146343,140,6
62,0.7080078125,-0.51806640625,-0.26611328125,25.975609756097562,2.378048780487805,-0.426829268292683,140,6
63,0.74365234375,-0.49755859375,-0.36865234375,29.87804878048781,0.6097560975609757,-1.0975609756097562,140,6
64,0.7177734375,-0.4931640625,-0.1943359375,34.32926829268293,-2.8658536585365857,-1.3414634146341464,140,6
65,0.67578125,-0.52490234375,-0.1845703125,40.85365853658537,-10.548780487804878,-0.6097560975609757,140,6
66,0.625,-0.5703125,-0.21435546875,48.71951219512196,-15.365853658536587,0.12195121951219513,140,6
67,0.60205078125,-0.580078125,-0.23388671875,55.85365853658537,-20.365853658536587,0.5487804878048781,140,6
68,0.61962890625,-0.57568359375,-0.21728515625,60.1829268292683,-23.658536585365855,2.5,140,6
69,0.64453125,-0.56689453125,-0.25634765625,61.09756097560976,-25.853658536585368,4.207317073170732,140,6
70,0.6796875,-0.51513671875,-0.298828125,56.524390243902445,-24.207317073170735,5.365853658536586,140,6
71,0.67138671875,-0.529296875,-0.32275390625,47.926829268292686,-18.04878048780488,5.365853658536586,140,6
72,0.68359375,-0.52490234375,-0.310546875,37.6219512195122,-10.670731707317074,4.2682926829268295,140,6
73,0.70166015625,-0.625,-0.29833984375,28.414634146341466,-5.2439024390243905,3.4756097560975614,140,6
74,0.69970703125,-0.51806640625,-0.27392578125,23.475609756097562,-1.8902439024390245,3.780487804878049,140,6
75,0.685546875,-0.53857421875,-0.28271484375,21.52439024390244,-1.2804878048780488,4.2682926829268295,140,6
76,0.65576171875,-0.560546875,-0.291015625,20.182926829268293,-1.9512195121951221,4.207317073170732,140,6
77,0.6435546875,-0.560546875,-0.3125,19.75609756097561,-3.1097560975609757,3.8414634146341466,140,6
78,0.62939453125,-0.568359375,-0.287109375,22.073170731707318,-5.182926829268293,4.695121951219512,140,6
79,0.61376953125,-0.59375,-0.26025390625,25.121951219512198,-7.439024390243903,6.646341463414635,140,6
80,0.6064453125,-0.62451171875,-0.30322265625,26.707317073170735,-10.30487804878049,8.292682926829269,140,6
81,0.609375,-0.615234375,-0.32861328125,24.75609756097561,-9.329268292682928,8.048780487804878,140,6
82,0.6435546875,-0.58740234375,-0.349609375,19.451219512195124,-5.975609756097562,7.25609756097561,140,6
83,0.69091796875,-0.53173828125,-0.37109375,12.134146341463415,-2.25609756097561,6.097560975609756,140,6
84,0.7314453125,-0.4912109375,-0.388671875,4.573170731707317,2.804878048780488,4.085365853658537,140,6
85,0.73193359375,-0.4990234375,-0.42724609375,-7.926829268292684,9.756097560975611,2.439024390243903,140,6
86,0.6845703125,-0.51953125,-0.4423828125,-18.719512195121954,0.12195121951219513,0.6707317073170732,140,6
87,0.70947265625,-0.50537109375,-0.39990234375,-22.134146341463417,16.82926829268293,-1.402439024390244,140,6
88,0.71630859375,-0.5166015625,-0.33837890625,-19.75609756097561,12.682926829268293,-1.4634146341463417,140,6
89,0.65625,-0.59912109375,-0.31591796875,-9.634146341463415,3.048780487804878,0.24390243902439027,140,6
90,0.58935546875,-0.67724609375,-0.30615234375,0.7926829268292683,-5.182926829268293,1.3414634146341464,140,6
91,0.60205078125,-0.67138671875,-0.29638671875,8.536585365853659,-10.060975609756099,1.2195121951219514,140,6
92,0.62548828125,-0.63916015625,-0.27978515625,12.439024390243903,-11.219512195121952,3.1097560975609757,140,6
93,0.609375,-0.64404296875,-0.2314453125,12.865853658536587,-7.378048780487806,4.878048780487806,140,6
94,0.60009765625,-0.6142578125,-0.1904296875,10.731707317073171,-2.7439024390243905,5.731707317073171,140,6
95,0.62060546875,-0.5546875,-0.20947265625,8.231707317073171,1.2804878048780488,6.646341463414635,140,6
96,0.646484375,-0.51123046875,-0.23876953125,5.426829268292684,6.341463414634147,5.975609756097562,140,6
97,0.65966796875,-0.490234375,-0.2392578125,-0.9756097560975611,12.621951219512196,4.939024390243903,140,6
98,0.67138671875,-0.47265625,-0.23388671875,-4.573170731707317,15.914634146341465,5.060975609756098,140,6
99,0.67431640625,-0.50927734375,-0.220703125,-5.487804878048781,16.951219512195124,5.182926829268293,140,6
100,0.66943359375,-0.54296875,-0.20654296875,-5.0,16.402439024390244,4.817073170731708,140,6
101,0.6796875,-0.54833984375,-0.22021484375,-3.7195121951219514,15.975609756097562,4.634146341463415,140,6
102,0.68798828125,-0.55859375,-0.18017578125,-2.5609756097560976,16.76829268292683,4.634146341463415,140,6
103,0.69091796875,-0.548828125,-0.16650390625,-1.7682926829268295,17.439024390243905,3.780487804878049,140,6
104,0.6728515625,-0.56005859375,-0.171875,-0.7317073170731708,18.902439024390244,3.658536585365854,140,6
105,0.658203125,-0.5751953125,-0.17724609375,-0.9146341463414634,20.670731707317074,3.7195121951219514,140,6
106,0.67626953125,-0.57470703125,-0.169921875,-1.0975609756097562,22.012195121951223,4.207317073170732,140,6
107,0.67578125,-0.5810546875,-0.1484375,0.7926829268292683,21.646341463414636,4.939024390243903,140,6
108,0.6689453125,-0.59033203125,-0.130859375,3.8414634146341466,20.48780487804878,4.817073170731708,140,6
109,0.67822265625,-0.57421875,-0.11376953125,5.365853658536586,22.134146341463417,4.695121951219512,140,6
110,0.70556640625,-0.56396484375,-0.1015625,4.75609756097561,24.26829268292683,4.146341463414634,140,6
111,0.734375,-0.5302734375,-0.10009765625,3.4756097560975614,27.195121951219516,2.682926829268293,140,6
112,0.73291015625,-0.52587890625,-0.11328125,1.4634146341463417,29.87804878048781,1.9512195121951221,140,6
113,0.71923828125,-0.54052734375,-0.12353515625,-1.829268292682927,33.170731707317074,2.25609756097561,140,6
114,0.69091796875,-0.55078125,-0.1142578125,-2.987804878048781,34.87804878048781,2.9268292682926833,140,6
115,0.64306640625,-0.58642578125,-0.10107421875,-0.7317073170731708,34.87804878048781,4.573170731707317,140,6
116,0.591796875,-0.65380859375,-0.048828125,-4.329268292682928,38.41463414634147,5.853658536585367,140,6
117,0.5693359375,-0.7099609375,-0.10595703125,9.207317073170733,36.34146341463415,8.414634146341465,140,6
118,0.51318359375,-0.71337890625,-0.03125,12.560975609756099,40.36585365853659,9.146341463414634,140,6
119,0.5595703125,-0.67236328125,-0.02685546875,12.256097560975611,39.51219512195122,10.30487804878049,140,6
120,0.6015625,-0.5498046875,-0.166015625,11.158536585365855,39.93902439024391,7.134146341463415,140,6
121,0.73583984375,-0.40625,-0.2001953125,14.146341463414636,51.34146341463415,4.75609756097561,140,6
122,0.810546875,-0.2919921875,-0.26123046875,-28.04878048780488,68.10975609756098,0.6707317073170732,140,6
123,0.8515625,-0.22021484375,-0.37646484375,-57.31707317073171,81.70731707317074,-1.2804878048780488,140,6
124,0.88330078125,-0.14794921875,-0.49853515625,-76.40243902439025,92.98780487804879,-4.451219512195122,140,6
125,0.92919921875,-0.1865234375,-0.3349609375,-87.7439024390244,96.52439024390245,-5.914634146341464,140,6
126,0.8564453125,-0.33447265625,-0.30078125,-95.0609756097561,96.15853658536587,-5.548780487804878,140,6
127,0.81201171875,-0.482421875,-0.30908203125,-108.65853658536587,90.48780487804879,-5.670731707317073,140,6
128,0.77880859375,-0.5068359375,-0.2158203125,-84.51219512195122,82.92682926829269,-2.7439024390243905,140,6
129,0.72314453125,-0.3759765625,-0.2265625,-93.53658536585367,77.19512195121952,-0.9756097560975611,140,6
130,0.67919921875,-0.4716796875,-0.25244140625,-77.25609756097562,74.45121951219512,1.3414634146341464,140,6
131,0.69384765625,-0.38720703125,-0.25146484375,-77.8658536585366,73.35365853658537,3.658536585365854,140,6
132,0.73388671875,-0.30078125,-0.2939453125,-80.0609756097561,72.92682926829269,4.573170731707317,140,6
133,0.73828125,-0.296875,-0.32861328125,-85.0609756097561,75.0,3.8414634146341466,140,6
134,0.7177734375,-0.2705078125,-0.3359375,-88.53658536585367,75.1829268292683,3.048780487804878,140,6
135,0.6689453125,-0.2568359375,-0.2587890625,-87.98780487804879,70.3658536585366,0.9146341463414634,140,6
136,0.68017578125,-0.1875,-0.45166015625,-86.34146341463415,68.29268292682927,-2.3170731707317076,140,6
137,0.7197265625,-0.16357421875,-0.4521484375,-85.00000000000001,64.45121951219512,-4.2682926829268295,140,6
138,0.70947265625,-0.1982421875,-0.47509765625,-85.79268292682927,63.47560975609757,-6.52439024390244,140,6
139,0.6904296875,-0.16552734375,-0.46240234375,-90.54878048780489,64.39024390243902,-8.658536585365855,140,6
140,0.6923828125,-0.16162109375,-0.47265625,-99.02439024390245,64.51219512195122,-9.634146341463415,140,6
141,0.66357421875,-0.17041015625,-0.4169921875,-101.28048780487806,63.53658536585366,-10.975609756097562,140,6
142,0.611328125,-0.201171875,-0.38427734375,-103.53658536585367,62.560975609756106,-13.963414634146343,140,6
143,0.6640625,-0.1337890625,-0.4501953125,-104.87804878048782,59.207317073170735,-15.975609756097562,140,6
144,0.716796875,-0.0830078125,-0.5205078125,-106.89024390243904,56.585365853658544,-19.695121951219512,140,6
145,0.77685546875,-0.05517578125,-0.5693359375,-113.65853658536587,56.524390243902445,-23.414634146341466,140,6
146,0.7626953125,-0.111328125,-0.583984375,-118.65853658536587,55.426829268292686,-25.670731707317074,140,6
147,0.73095703125,-0.13427734375,-0.56201171875,-120.00000000000001,53.04878048780488,-29.26829268292683,140,6
148,0.7373046875,-0.10693359375,-0.53564453125,-121.89024390243904,51.03658536585366,-32.5,140,6
149,0.755859375,-0.0810546875,-0.556640625,-127.13414634146342,49.69512195121952,-35.426829268292686,140,6
150,0.76220703125,-0.056640625,-0.52294921875,-135.7317073170732,50.73170731707317,-39.207317073170735,140,6
151,0.7607421875,-0.087890625,-0.48388671875,-141.82926829268294,50.243902439024396,-40.426829268292686,140,6
152,0.73876953125,-0.12744140625,-0.3876953125,-144.57317073170734,48.10975609756098,-43.963414634146346,140,6
153,0.75146484375,-0.0859375,-0.50439453125,-147.8048780487805,45.91463414634147,-47.43902439024391,140,6
154,0.81201171875,-0.080078125,-0.58935546875,-154.26829268292684,44.51219512195122,-50.97560975609756,140,6
155,0.849609375,-0.041015625,-0.61865234375,-161.58536585365854,46.15853658536586,-54.87804878048781,140,6
156,0.90185546875,-0.01611328125,-0.60791015625,-169.51219512195124,46.28048780487805,-58.47560975609757,140,6
157,0.93603515625,-0.01513671875,-0.61328125,-174.87804878048783,45.426829268292686,-46.89024390243903,140,6
158,0.97802734375,-0.01953125,-0.6103515625,-180.85365853658539,46.89024390243903,-67.8048780487805,140,6
159,0.99609375,-0.03759765625,-0.58984375,-185.06097560975613,49.207317073170735,-72.6219512195122,140,6
160,1.00244140625,-0.04541015625,-0.501953125,-187.6829268292683,50.54878048780488,-77.31707317073172,140,6
161,1.037109375,-0.0537109375,-0.3759765625,-191.34146341463418,50.1219512195122,-81.89024390243902,140,6
162,1.0615234375,-0.0341796875,-0.544921875,-194.63414634146343,51.40243902439025,-87.6219512195122,140,6
163,1.060546875,-0.044921875,-0.54541015625,-202.50000000000003,55.73170731707317,-94.45121951219512,140,6
164,1.16455078125,0.04443359375,-0.572265625,-209.57317073170734,58.71951219512196,-103.17073170731709,140,6
165,1.232421875,0.07666015625,-0.57763671875,-218.35365853658539,63.04878048780488,-93.78048780487806,140,6
166,1.2060546875,-0.0078125,-0.568359375,-223.59756097560978,64.9390243902439,-114.45121951219514,140,6
167,1.17626953125,-0.05615234375,-0.50244140625,-223.2317073170732,66.70731707317074,-120.73170731707319,140,6
168,1.197265625,-0.07666015625,-0.470703125,-218.90243902439028,66.03658536585367,-125.67073170731709,140,6
169,1.2080078125,-0.09375,-0.45703125,-213.90243902439028,65.1829268292683,-130.91463414634148,140,6
170,1.24169921875,-0.02734375,-0.42529296875,-210.2439024390244,66.52439024390245,-136.70731707317074,140,6
171,1.287109375,-0.0224609375,-0.39208984375,-211.70731707317074,69.02439024390245,-141.15853658536588,140,6
172,1.3466796875,-0.02294921875,-0.3984375,-212.62195121951223,71.40243902439025,-145.97560975609758,140,6
173,1.38330078125,0.00048828125,-0.435546875,-210.6707317073171,71.64634146341464,-152.8048780487805,140,6
174,1.45263671875,0.05322265625,-0.466796875,-210.6707317073171,72.5609756097561,-159.93902439024393,140,6
175,1.48388671875,0.08740234375,-0.52001953125,-212.68292682926833,75.79268292682927,-167.6219512195122,140,6
176,1.53515625,0.095703125,-0.4638671875,-213.47560975609758,79.75609756097562,-174.51219512195124,140,6
177,1.583984375,0.140625,-0.40625,-214.08536585365854,82.5609756097561,-180.06097560975613,140,6
178,1.583984375,0.10693359375,-0.3388671875,-211.64634146341464,83.41463414634147,-183.2317073170732,140,6
179,1.58251953125,0.1142578125,-0.32080078125,-205.6707317073171,83.53658536585367,-186.89024390243904,140,6
180,1.6005859375,0.14306640625,-0.2958984375,-200.06097560975613,83.35365853658537,-190.85365853658539,140,6
181,1.61767578125,0.17724609375,-0.27587890625,-195.3048780487805,84.45121951219512,-195.7926829268293,140,6
182,1.6640625,0.21826171875,-0.2822265625,-191.64634146341464,85.3048780487805,-200.97560975609758,140,6
183,1.6318359375,0.28076171875,-0.314453125,-190.7926829268293,87.6219512195122,-207.56097560975613,140,6
184,1.80029296875,0.32275390625,-0.33056640625,-192.8048780487805,93.10975609756099,-216.28048780487808,140,6
185,1.88818359375,0.35595703125,-0.35009765625,-200.06097560975613,102.19512195121952,-224.51219512195124,140,6
186,1.90576171875,0.3125,-0.32861328125,-202.19512195121953,106.21951219512196,-230.4878048780488,140,6
187,1.89599609375,0.2958984375,-0.33203125,-198.96341463414635,108.90243902439025,-235.4878048780488,140,6
188,1.99365234375,0.2587890625,-0.373046875,-190.5487804878049,107.25609756097562,-237.9878048780488,140,6
189,1.8466796875,0.19873046875,-0.19775390625,-179.20731707317074,105.2439024390244,-240.4878048780488,140,6
190,1.82421875,0.2275390625,-0.1796875,-168.59756097560978,103.53658536585367,-243.0487804878049,140,6
191,1.859375,0.32080078125,-0.140625,-163.41463414634148,103.84146341463415,-246.70731707317074,140,6
192,1.9208984375,0.35986328125,-0.1845703125,-166.64634146341464,108.35365853658537,-250.18292682926833,140,6
193,1.94482421875,0.37548828125,-0.1904296875,-169.63414634146343,114.14634146341464,-253.96341463414637,140,6
194,1.9267578125,0.37548828125,-0.15869140625,-167.5609756097561,117.37804878048782,-257.3780487804878,140,6
195,1.92578125,0.36767578125,-0.0947265625,-164.81707317073173,120.3658536585366,-261.76829268292687,140,6
196,1.91455078125,0.3115234375,-0.0380859375,-157.8658536585366,120.54878048780489,-265.0,140,6
197,1.8720703125,0.2939453125,-0.00390625,-146.34146341463415,118.71951219512196,-266.89024390243907,140,6
198,1.84423828125,0.3056640625,0.06689453125,-136.58536585365854,118.53658536585367,-268.9634146341464,140,6
199,1.80029296875,0.3095703125,0.10400390625,-128.0487804878049,118.78048780487806,-271.6463414634147,140,6
200,1.72509765625,0.283203125,0.1689453125,-120.3048780487805,120.67073170731709,-272.9268292682927,140,6
201,1.666015625,0.36962890625,0.19921875,-112.6829268292683,122.92682926829269,-274.0243902439025,140,6
202,1.59326171875,0.22021484375,0.18359375,-106.21951219512196,124.02439024390245,-273.7804878048781,140,6
203,1.49951171875,0.12646484375,0.138671875,-98.04878048780489,120.73170731707319,-271.70731707317077,140,6
204,1.42919921875,0.0908203125,-0.01025390625,-83.65853658536587,118.59756097560977,-270.9756097560976,140,6
205,1.49755859375,0.1162109375,0.0712890625,-73.65853658536587,118.65853658536587,-270.0,140,6
206,1.34326171875,0.119140625,0.0556640625,-67.6219512195122,119.08536585365854,-267.5609756097561,140,6
207,1.3642578125,-0.109375,0.0986328125,-60.304878048780495,118.96341463414635,-263.3536585365854,140,6
208,1.15869140625,-0.173828125,0.0908203125,-51.03658536585366,117.07317073170732,-258.8414634146342,140,6
209,1.04150390625,-0.2470703125,0.080078125,-42.5609756097561,117.7439024390244,-253.59756097560978,140,6
210,1.00439453125,-0.2529296875,0.13671875,-36.58536585365854,119.20731707317074,-247.8658536585366,140,6
211,1.01318359375,-0.294921875,0.14013671875,-36.40243902439025,122.43902439024392,-242.9878048780488,140,6
212,0.958984375,-0.34716796875,0.1533203125,-38.963414634146346,126.70731707317074,-238.78048780487808,140,6
213,0.8662109375,-0.45166015625,0.17529296875,-40.73170731707317,127.6829268292683,-234.75609756097563,140,6
214,0.7275390625,-0.5810546875,0.22216796875,-39.69512195121951,122.7439024390244,-228.78048780487808,140,6
215,0.50244140625,-0.76806640625,0.0390625,-35.1829268292683,114.51219512195122,-222.56097560975613,140,6
216,0.33984375,-0.8896484375,-0.07666015625,-20.365853658536587,99.14634146341464,-213.47560975609758,140,6
217,0.24072265625,-1.0927734375,-0.0693359375,-5.060975609756098,87.5609756097561,-204.57317073170734,140,6
218,-0.02197265625,-1.0693359375,-0.03369140625,2.5609756097560976,77.5609756097561,-194.20731707317074,140,6
219,-0.1064453125,-1.0498046875,-0.0615234375,15.487804878048783,70.73170731707317,-180.4878048780488,140,6
220,-0.2099609375,-1.11181640625,-0.00244140625,-8.109756097560977,64.26829268292684,-165.609756097561,140,6
221,-0.3251953125,-1.19189453125,-0.17529296875,-15.54878048780488,59.69512195121952,-147.25609756097563,140,6
222,-0.3466796875,-1.13525390625,-0.04296875,-10.487804878048781,55.487804878048784,-126.52439024390245,140,6
223,-0.37744140625,-1.13720703125,-0.05419921875,-10.487804878048781,52.43902439024391,-105.97560975609757,140,6
224,-0.486328125,-1.1689453125,0.05908203125,-2.1341463414634148,47.43902439024391,-84.20731707317074,140,6
225,-0.57763671875,-1.22509765625,-0.06982421875,-0.30487804878048785,47.01219512195122,-66.15853658536587,140,6
226,-0.66943359375,-1.21044921875,0.00390625,1.1585365853658538,41.34146341463415,-42.804878048780495,140,6
227,-0.76220703125,-1.255859375,0.13134765625,1.7682926829268295,38.23170731707317,-23.53658536585366,140,6
228,-0.68896484375,-1.275390625,0.14306640625,10.121951219512196,29.512195121951223,-3.7195121951219514,140,6
229,-0.62548828125,-1.51953125,0.15673828125,23.10975609756098,25.914634146341466,13.536585365853659,140,6
230,-0.560546875,-1.587890625,0.13671875,35.0609756097561,19.207317073170735,34.81707317073171,140,6
231,-0.54345703125,-1.68017578125,0.24853515625,32.01219512195122,14.329268292682928,55.67073170731708,140,6
232,-0.556640625,-1.75830078125,0.14111328125,59.39024390243903,8.048780487804878,76.46341463414635,140,6
233,-0.55029296875,-1.80078125,0.2412109375,65.0609756097561,3.7195121951219514,96.46341463414635,140,6
234,-0.4541015625,-1.798828125,0.09375,67.8048780487805,1.5853658536585367,118.29268292682927,140,6
235,-0.3671875,-1.86962890625,0.01220703125,66.70731707317074,1.2804878048780488,126.82926829268294,140,6
236,-0.333984375,-2.01220703125,-0.05126953125,67.5609756097561,0.6097560975609757,168.2926829268293,140,6
237,-0.2548828125,-2.08056640625,0.013671875,71.09756097560977,-2.378048780487805,193.53658536585368,140,6
238,-0.02734375,-2.17041015625,-0.05078125,73.35365853658537,-6.402439024390245,205.00000000000003,140,6
239,0.11376953125,-2.36669921875,-0.181640625,75.85365853658537,-11.097560975609756,235.5487804878049,140,6
240,0.12744140625,-2.52001953125,-0.2900390625,85.67073170731707,-17.743902439024392,266.0975609756098,140,6
241,0.40478515625,-2.638671875,-0.3193359375,96.95121951219512,-25.243902439024392,297.8658536585366,140,6
242,0.5302734375,-2.75830078125,-0.34130859375,106.21951219512196,-33.90243902439025,346.219512195122,140,6
243,0.93701171875,-2.888671875,-0.45849609375,107.6219512195122,-31.58536585365854,384.20731707317077,140,6
244,1.27685546875,-3.0322265625,-0.728515625,110.42682926829269,-59.57317073170732,428.3536585365854,140,6
245,1.50732421875,-3.57470703125,-0.8857421875,116.70731707317074,-70.85365853658537,478.109756097561,140,6
246,1.8896484375,-4.0966796875,-1.1494140625,147.19512195121953,-93.29268292682927,516.1585365853659,140,6
247,2.6083984375,-4.41455078125,-1.5673828125,213.41463414634148,-130.3048780487805,584.7560975609756,140,6
248,3.4072265625,-4.744140625,-2.1044921875,283.109756097561,-155.97560975609758,623.7804878048781,140,6
249,4.404296875,-4.88623046875,-2.46337890625,355.6707317073171,-164.93902439024393,640.2439024390244,140,6
250,5.4384765625,-5.19873046875,-2.59130859375,359.69512195121956,-133.1707317073171,689.939024390244,140,6
251,6.181640625,-5.1123046875,-2.5703125,388.7804878048781,-110.3658536585366,729.939024390244,140,6
252,7.0361328125,-5.08544921875,-3.07763671875,396.6463414634147,-101.15853658536587,771.219512195122,140,6
253,8.1650390625,-4.802734375,-3.849609375,401.89024390243907,-85.79268292682927,821.4024390243903,140,6
254,9.146484375,-4.56201171875,-4.4541015625,441.5243902439025,-81.09756097560977,844.8170731707318,140,6
255,10.2158203125,-4.17724609375,-5.0126953125,545.1219512195122,-103.59756097560977,882.1951219512196,140,6
256,11.35205078125,-2.90478515625,-5.6513671875,616.5853658536586,-104.87804878048782,891.7682926829269,140,6
257,11.93212890625,-1.15283203125,-6.17431640625,708.3536585365854,-109.75609756097562,907.0121951219513,140,6
258,11.87939453125,-0.171875,-6.662109375,804.3902439024391,-170.91463414634148,903.9024390243903,140,6
259,11.7138671875,0.79736328125,-6.80712890625,907.1951219512196,-225.97560975609758,873.048780487805,140,6
260,9.7919921875,0.33251953125,-6.2998046875,1023.5365853658537,-350.4878048780488,792.3170731707318,140,6
261,8.41162109375,-0.2138671875,-6.5419921875,1150.3048780487807,-520.7317073170732,681.5853658536586,140,6
262,6.7041015625,-1.21142578125,-6.958984375,1339.2073170731708,-669.3902439024391,513.5975609756098,140,6
263,6.40087890625,-0.11083984375,-16.0,1779.4512195121952,-705.6707317073171,378.8414634146342,140,6
264,9.51904296875,-2.55517578125,-12.76513671875,945.1219512195123,-468.3536585365854,-61.585365853658544,140,6
265,5.35009765625,3.35302734375,-5.81787109375,1367.1951219512196,-498.2926829268293,109.69512195121952,140,6
266,4.49560546875,2.50439453125,1.802734375,1331.8902439024391,-234.57317073170734,-187.6829268292683,140,6
267,6.1171875,-1.66845703125,-0.533203125,1071.4024390243903,-229.69512195121953,-207.56097560975613,140,6
268,4.38427734375,-1.001953125,0.935546875,939.6341463414635,-27.80487804878049,-224.32926829268294,140,6
269,4.8896484375,-3.126953125,3.28564453125,989.0243902439025,-93.53658536585367,-347.31707317073176,140,6
270,4.53662109375,-4.9580078125,-0.61181640625,839.5121951219513,-201.95121951219514,-524.8170731707318,140,6
271,5.2666015625,-3.525390625,-2.33544921875,735.0609756097562,-171.34146341463415,-643.7804878048781,140,6
272,4.8056640625,-3.85498046875,-2.02392578125,653.1707317073171,-149.14634146341464,-780.7926829268293,140,6
273,5.123046875,-3.57568359375,-2.07958984375,491.0975609756098,-111.21951219512196,-862.3170731707318,140,6
274,4.41748046875,-3.36669921875,-2.33056640625,328.6585365853659,-7.682926829268293,-912.5000000000001,140,6
275,3.76806640625,-3.25732421875,-2.22412109375,226.95121951219514,65.79268292682927,-910.7317073170733,140,6
276,3.32373046875,-3.24658203125,-2.34423828125,166.03658536585368,154.02439024390245,-898.9634146341464,140,6
277,3.142578125,-2.93359375,-2.3642578125,82.6829268292683,229.26829268292684,-868.048780487805,140,6
278,2.58154296875,-2.95068359375,-1.94287109375,41.707317073170735,291.219512195122,-842.8048780487806,140,6
279,2.19482421875,-2.7998046875,-1.65576171875,25.182926829268293,313.109756097561,-780.6707317073171,140,6
280,1.869140625,-2.5927734375,-1.71875,5.426829268292684,339.87804878048786,-748.2317073170732,140,6
281,1.6572265625,-2.38232421875,-2.04345703125,-35.97560975609756,339.51219512195127,-678.9634146341464,140,6
282,1.78369140625,-1.9560546875,-2.49462890625,-81.82926829268294,346.3414634146342,-628.6585365853659,140,6
283,1.73291015625,-1.85546875,-2.41748046875,-165.6707317073171,356.2804878048781,-585.3658536585366,140,6
284,1.734375,-1.56396484375,-2.09912109375,-216.76829268292684,373.4756097560976,-553.1707317073171,140,6
285,1.8505859375,-1.41259765625,-1.6953125,-241.21951219512198,388.0487804878049,-524.8170731707318,140,6
286,1.44482421875,-1.36962890625,-1.32373046875,-245.85365853658539,402.13414634146346,-504.63414634146346,140,6
287,1.34033203125,-1.2861328125,-1.25439453125,-235.4878048780488,413.5975609756098,-497.37804878048786,140,6
288,1.3037109375,-1.00146484375,-1.68408203125,-234.02439024390245,399.1463414634147,-453.3536585365854,140,6
289,1.23876953125,-0.8974609375,-1.97412109375,-213.96341463414635,388.719512195122,-426.219512195122,140,6
290,1.08740234375,-0.77978515625,-1.904296875,-205.5487804878049,353.4756097560976,-403.4756097560976,140,6
291,0.82470703125,-0.7646484375,-1.7666015625,-207.8658536585366,338.5975609756098,-393.2317073170732,140,6
292,0.625,-0.615234375,-1.70947265625,-218.35365853658539,328.719512195122,-387.9268292682927,140,6
293,0.83447265625,-0.4755859375,-1.6884765625,-222.43902439024393,317.8048780487805,-389.32926829268297,140,6
294,0.775390625,-0.70654296875,-1.71728515625,-238.96341463414637,306.95121951219517,-348.9024390243903,140,6
295,0.7373046875,-0.94921875,-1.6484375,-244.32926829268294,293.1707317073171,-313.6585365853659,140,6
296,0.32958984375,-1.06884765625,-1.35107421875,-245.4878048780488,275.8536585365854,-294.26829268292687,140,6
297,-0.07958984375,-1.1025390625,-1.20556640625,-257.13414634146346,265.6707317073171,-258.2926829268293,140,6
298,-0.18115234375,-0.83251953125,-1.0615234375,-270.4878048780488,260.2439024390244,-246.95121951219514,140,6
299,-0.17431640625,-0.57763671875,-1.15478515625,-279.20731707317077,227.37804878048783,-239.02439024390247,140,6
300,-0.236328125,-0.21923828125,-0.98828125,-262.2560975609756,223.84146341463418,-242.8658536585366,140,6
301,-0.18701171875,-0.34814453125,-1.11279296875,-271.0975609756098,208.1707317073171,-230.4878048780488,140,6
302,-0.3037109375,-0.39453125,-1.20556640625,-268.9634146341464,195.4878048780488,-214.63414634146343,140,6
303,-0.5634765625,-0.541015625,-1.22802734375,-267.07317073170736,185.06097560975613,-193.90243902439025,140,6
304,-0.783203125,-0.7109375,-1.34716796875,-246.64634146341464,172.9268292682927,-174.81707317073173,140,6
305,-0.9609375,-0.7412109375,-1.1357421875,-220.00000000000003,163.109756097561,-159.63414634146343,140,6
306,-1.0517578125,-0.69189453125,-0.95654296875,-198.47560975609758,153.47560975609758,-145.0609756097561,140,6
307,-1.015625,-0.6279296875,-0.97607421875,-183.84146341463415,141.28048780487805,-133.65853658536585,140,6
308,-1.02734375,-0.5830078125,-0.88818359375,-165.91463414634148,128.59756097560978,-119.14634146341464,140,6
309,-1.14013671875,-0.650390625,-0.7724609375,-161.95121951219514,116.52439024390245,-104.63414634146342,140,6
310,-1.22705078125,-0.65185546875,-0.705078125,-159.39024390243904,110.73170731707319,-89.51219512195122,140,6
311,-1.23388671875,-0.57666015625,-0.689453125,-161.82926829268294,104.45121951219514,-79.39024390243902,140,6
312,-1.12548828125,-0.505859375,-0.64306640625,-156.52439024390245,96.89024390243904,-69.26829268292684,140,6
313,-1.2490234375,-0.52099609375,-0.8134765625,-148.41463414634148,89.57317073170732,-60.1829268292683,140,6
314,-1.3701171875,-0.5029296875,-0.84912109375,-129.45121951219514,79.75609756097562,-53.65853658536586,140,6
315,-1.232421875,-0.46630859375,-0.810546875,-110.60975609756099,68.96341463414635,-49.085365853658544,140,6
316,-1.21044921875,-0.4384765625,-0.71826171875,-95.60975609756099,60.426829268292686,-43.170731707317074,140,6
317,-1.19970703125,-0.455078125,-0.66455078125,-84.75609756097562,53.90243902439025,-35.670731707317074,140,6
318,-1.2490234375,-0.3759765625,-0.66845703125,-76.52439024390245,44.81707317073171,-27.743902439024392,140,6
319,-1.31689453125,-0.4970703125,-0.70556640625,-71.03658536585367,32.926829268292686,-20.30487804878049,140,6
320,-1.31494140625,-0.4921875,-0.78466796875,-64.08536585365854,20.853658536585368,-12.317073170731708,140,6
321,-1.2607421875,-0.4580078125,-0.7958984375,-54.69512195121952,7.378048780487806,-4.573170731707317,140,6
322,-1.26123046875,-0.4326171875,-0.81591796875,-43.65853658536586,-5.426829268292684,4.085365853658537,140,6
323,-1.2890625,-0.4462890625,-0.83984375,-32.6829268292683,-0.48780487804878053,12.865853658536587,140,6
324,-1.32080078125,-0.4677734375,-0.826171875,-19.81707317073171,-26.82926829268293,21.646341463414636,140,6
325,-1.34130859375,-0.474609375,-0.82470703125,-6.52439024390244,-35.54878048780488,31.03658536585366,140,6
326,-1.31494140625,-0.44482421875,-0.798828125,6.158536585365854,-42.926829268292686,39.390243902439025,140,6
327,-1.28125,-0.39453125,-0.74755859375,0.48780487804878053,-50.79268292682927,31.280487804878053,140,6
328,-1.2509765625,-0.34619140625,-0.705078125,24.878048780487806,-57.560975609756106,53.71951219512196,140,6
329,-1.2236328125,-0.30322265625,-0.662109375,32.07317073170732,-65.60975609756098,59.93902439024391,140,6
330,-1.21435546875,-0.2509765625,-0.74951171875,37.01219512195122,-72.31707317073172,64.26829268292684,140,6
331,-1.201171875,-0.220703125,-0.615234375,42.43902439024391,-62.804878048780495,67.98780487804879,140,6
332,-1.1953125,-0.18603515625,-0.56103515625,47.804878048780495,-85.54878048780489,71.76829268292684,140,6
333,-1.185546875,-0.16015625,-0.53564453125,54.87804878048781,-92.6829268292683,75.2439024390244,140,6
334,-1.1689453125,-0.140625,-0.4931640625,60.91463414634147,-99.32926829268294,78.23170731707317,140,6
335,-1.15673828125,-0.11181640625,-0.45947265625,66.09756097560977,-105.48780487804879,80.54878048780489,140,6
336,-1.14208984375,-0.07763671875,-0.44189453125,69.93902439024392,-112.43902439024392,81.95121951219512,140,6
337,-1.1240234375,-0.0478515625,-0.42333984375,73.41463414634147,-115.97560975609757,83.78048780487805,140,6
338,-1.09814453125,-0.0166015625,-0.3642578125,76.03658536585367,-119.32926829268294,84.57317073170732,140,6
339,-1.08984375,0.001953125,-0.31201171875,73.59756097560977,-121.46341463414635,85.3658536585366,140,6
340,-1.091796875,0.0283203125,-0.267578125,70.0,-124.14634146341464,84.69512195121952,140,6
341,-1.0732421875,0.072265625,-0.23291015625,67.43902439024392,-128.41463414634148,83.35365853658537,140,6
342,-1.06689453125,0.123046875,-0.23388671875,66.15853658536587,-132.4390243902439,81.15853658536587,140,6
343,-1.0380859375,0.1708984375,-0.18359375,65.67073170731707,-137.5609756097561,80.0609756097561,140,6
344,-1.04052734375,0.16357421875,-0.13720703125,64.02439024390245,-140.4878048780488,78.23170731707317,140,6
345,-1.02392578125,0.173828125,-0.130859375,64.51219512195122,-144.9390243902439,76.09756097560977,140,6
346,-1.0068359375,0.1728515625,-0.1103515625,65.2439024390244,-147.5609756097561,72.98780487804879,140,6
347,-0.9931640625,0.18408203125,-0.068359375,66.82926829268293,-150.91463414634148,70.73170731707317,140,6
348,-0.98046875,0.19873046875,-0.02001953125,70.2439024390244,-154.08536585365854,69.08536585365854,140,6
349,-0.95654296875,0.19677734375,0.029296875,72.6829268292683,-155.1829268292683,67.31707317073172,140,6
350,-0.93505859375,0.22998046875,0.01953125,74.32926829268294,-158.41463414634148,65.42682926829269,140,6
351,-0.931640625,0.24853515625,-0.01220703125,75.97560975609757,-162.9268292682927,62.987804878048784,140,6
352,-0.93310546875,0.26416015625,-0.02978515625,79.39024390243902,-167.50000000000003,60.67073170731708,140,6
353,-0.91064453125,0.27685546875,-0.0087890625,83.17073170731707,-171.34146341463415,59.024390243902445,140,6
354,-0.87255859375,0.29931640625,0.07470703125,84.75609756097562,-172.9268292682927,58.78048780487806,140,6
355,-0.85498046875,0.27392578125,0.15478515625,82.01219512195122,-173.71951219512198,58.78048780487806,140,6
356,-0.8505859375,0.37255859375,0.17822265625,79.08536585365854,-172.6829268292683,58.17073170731708,140,6
357,-0.83935546875,0.25146484375,0.18310546875,80.67073170731707,-174.45121951219514,57.987804878048784,140,6
358,-0.81591796875,0.25732421875,0.18310546875,84.02439024390245,-176.09756097560978,58.65853658536586,140,6
359,-0.7822265625,0.251953125,0.20703125,89.26829268292684,-179.63414634146343,60.487804878048784,140,6
360,-0.77783203125,0.2255859375,0.25830078125,91.95121951219512,-177.9878048780488,61.21951219512196,140,6
361,-0.77197265625,0.2216796875,0.2978515625,95.42682926829269,-177.43902439024393,63.78048780487806,140,6
362,-0.76806640625,0.2431640625,0.33935546875,98.29268292682927,-176.52439024390245,66.46341463414635,140,6
363,-0.73486328125,0.3671875,0.310546875,97.7439024390244,-177.31707317073173,67.92682926829269,140,6
364,-0.7021484375,0.26953125,0.3056640625,97.6219512195122,-176.82926829268294,69.20731707317074,140,6
365,-0.65283203125,0.28662109375,0.29833984375,99.93902439024392,-177.9268292682927,71.40243902439025,140,6
366,-0.57373046875,0.34521484375,0.3203125,100.2439024390244,-178.109756097561,72.7439024390244,140,6
367,-0.5244140625,0.35009765625,0.38232421875,95.1829268292683,-176.09756097560978,75.1219512195122,140,6
368,-0.5263671875,0.34375,0.435546875,87.7439024390244,-172.6829268292683,76.64634146341464,140,6
369,-0.52490234375,0.35546875,0.4638671875,82.37804878048782,-169.87804878048783,78.53658536585367,140,6
370,-0.513671875,0.35400390625,0.45751953125,81.21951219512196,-172.31707317073173,81.09756097560977,140,6
371,-0.51708984375,0.328125,0.419921875,87.50000000000001,-180.3658536585366,84.14634146341464,140,6
372,-0.546875,0.27001953125,0.4091796875,93.29268292682927,-180.3048780487805,82.8658536585366,140,6
373,-0.47021484375,0.283203125,0.42138671875,93.71951219512196,-179.20731707317074,80.91463414634147,140,6
374,-0.396484375,0.34814453125,0.46435546875,94.39024390243904,-178.35365853658539,82.19512195121952,140,6
375,-0.333984375,0.494140625,0.48681640625,94.02439024390245,-179.14634146341464,86.09756097560977,140,6
376,-0.3330078125,0.3544921875,0.4951171875,95.2439024390244,-181.58536585365854,89.32926829268294,140,6
377,-0.337890625,0.3310546875,0.48681640625,95.1829268292683,-181.70731707317074,90.3658536585366,140,6
378,-0.3173828125,0.3505859375,0.50341796875,95.3658536585366,-180.97560975609758,90.3048780487805,140,6
379,-0.2578125,0.39013671875,0.5029296875,93.90243902439025,-179.75609756097563,91.89024390243904,140,6
380,-0.21875,0.416015625,0.48046875,92.92682926829269,-179.32926829268294,94.87804878048782,140,6
381,-0.1826171875,0.42724609375,0.4541015625,89.45121951219512,-178.35365853658539,97.43902439024392,140,6
382,-0.197265625,0.39990234375,0.431640625,81.40243902439025,-173.53658536585368,97.31707317073172,140,6
383,-0.15576171875,0.44287109375,0.458984375,76.70731707317074,-169.45121951219514,100.06097560975611,140,6
384,-0.130859375,0.46142578125,0.52880859375,75.67073170731707,-167.25609756097563,102.8048780487805,140,6
385,-0.08837890625,0.4697265625,0.56640625,76.70731707317074,-166.52439024390245,106.52439024390245,140,6
386,-0.08740234375,0.42919921875,0.5380859375,80.67073170731707,-169.57317073170734,110.73170731707319,140,6
387,-0.1201171875,0.3984375,0.49609375,84.02439024390245,-169.26829268292684,111.70731707317074,140,6
388,-0.08203125,0.42626953125,0.4814453125,87.92682926829269,-169.32926829268294,113.78048780487806,140,6
389,-0.03125,0.46484375,0.4482421875,89.45121951219512,-168.1707317073171,116.09756097560977,140,6
390,0.01171875,0.49609375,0.41796875,86.89024390243904,-166.76829268292684,118.96341463414635,140,6
391,0.02392578125,0.49072265625,0.4599609375,82.13414634146342,-165.0609756097561,121.40243902439025,140,6
392,0.0361328125,0.46923828125,0.47607421875,76.52439024390245,-160.5487804878049,123.04878048780489,140,6
393,0.0849609375,0.48193359375,0.50927734375,74.02439024390245,-156.46341463414635,124.81707317073172,140,6
394,0.13525390625,0.47607421875,0.52099609375,73.53658536585367,-154.20731707317074,127.43902439024392,140,6
395,0.1630859375,0.4697265625,0.52001953125,75.79268292682927,-153.35365853658539,130.5487804878049,140,6
396,0.1904296875,0.4521484375,0.478515625,76.89024390243902,-151.70731707317074,132.5609756097561,140,6
397,0.22705078125,0.45166015625,0.4560546875,77.6219512195122,-151.09756097560978,133.90243902439025,140,6
398,0.275390625,0.47705078125,0.44482421875,77.92682926829269,-150.0609756097561,133.84146341463415,140,6
399,0.32666015625,0.51904296875,0.44482421875,78.65853658536587,-148.41463414634148,133.78048780487805,140,6
400,0.25244140625,0.53466796875,0.447265625,80.1219512195122,-147.19512195121953,133.71951219512195,140,6
401,0.41455078125,0.546875,0.43505859375,80.79268292682927,-145.4268292682927,132.9878048780488,140,6
402,0.43701171875,0.552734375,0.3681640625,93.53658536585367,-142.5609756097561,131.46341463414635,140,6
403,0.49560546875,0.5888671875,0.33837890625,75.1219512195122,-141.03658536585368,130.609756097561,140,6
404,0.52197265625,0.6201171875,0.32080078125,70.3658536585366,-139.57317073170734,129.9390243902439,140,6
405,0.55224609375,0.6376953125,0.35791015625,67.07317073170732,-139.75609756097563,130.7926829268293,140,6
406,0.537109375,0.61279296875,0.38623046875,62.560975609756106,-137.5,131.28048780487805,140,6
407,0.5107421875,0.578125,0.38232421875,55.97560975609757,-133.1707317073171,131.34146341463415,140,6
408,0.51611328125,0.57373046875,0.3642578125,52.5609756097561,-129.39024390243904,132.31707317073173,140,6
409,0.537109375,0.58740234375,0.3408203125,52.37804878048781,-128.65853658536585,133.53658536585368,140,6
410,0.57177734375,0.58642578125,0.32958984375,52.6219512195122,-128.78048780487805,135.7926829268293,140,6
411,0.57958984375,0.55224609375,0.2998046875,51.82926829268293,-128.2317073170732,137.4390243902439,140,6
412,0.57861328125,0.54296875,0.33837890625,52.987804878048784,-129.57317073170734,139.75609756097563,140,6
413,0.5849609375,0.546875,0.3583984375,56.89024390243903,-131.34146341463415,141.21951219512195,140,6
414,0.57861328125,0.55859375,0.33056640625,59.146341463414636,-130.0,142.5,140,6
415,0.60009765625,0.552734375,0.2724609375,55.60975609756098,-125.06097560975611,142.5609756097561,140,6
416,0.64306640625,0.580078125,0.24267578125,49.81707317073171,-119.39024390243904,143.53658536585368,140,6
417,0.6806640625,0.5859375,0.1796875,45.36585365853659,-117.01219512195122,146.40243902439025,140,6
418,0.685546875,0.5634765625,0.1318359375,42.86585365853659,-115.3658536585366,148.41463414634148,140,6
419,0.7080078125,0.5400390625,0.115234375,39.81707317073171,-113.41463414634147,149.75609756097563,140,6
420,0.74169921875,0.5390625,0.1328125,38.41463414634147,-111.95121951219514,151.34146341463415,140,6
421,0.75732421875,0.51708984375,0.0048828125,36.15853658536586,-110.42682926829269,151.82926829268294,140,6
422,0.78662109375,0.5283203125,0.138671875,32.987804878048784,-107.31707317073172,151.52439024390245,140,6
423,0.80859375,0.51806640625,0.14501953125,30.000000000000004,-103.65853658536587,151.34146341463415,140,6
424,0.85009765625,0.515625,0.15966796875,27.012195121951223,-100.73170731707317,151.64634146341464,140,6
425,0.859375,0.517578125,0.15185546875,23.84146341463415,-97.01219512195122,151.82926829268294,140,6
426,0.8671875,0.5146484375,0.24951171875,21.890243902439025,-95.3658536585366,151.95121951219514,140,6
427,0.87109375,0.498046875,0.0869140625,21.28048780487805,-94.26829268292684,150.6707317073171,140,6
428,0.884765625,0.5107421875,0.07958984375,20.121951219512198,-91.40243902439025,148.35365853658539,140,6
429,0.912109375,0.525390625,0.1005859375,18.29268292682927,-87.8048780487805,145.6707317073171,140,6
430,0.9326171875,0.6240234375,0.06201171875,16.76829268292683,-86.03658536585367,144.14634146341464,140,6
431,0.923828125,0.46630859375,0.04833984375,16.951219512195124,-85.00000000000001,141.89024390243904,140,6
432,0.9306640625,0.44775390625,0.0595703125,18.475609756097562,-85.1829268292683,138.78048780487805,140,6
433,0.96337890625,0.44091796875,0.06005859375,18.78048780487805,-83.47560975609757,135.2439024390244,140,6
434,0.96142578125,0.41455078125,0.03955078125,18.658536585365855,-82.98780487804879,132.6829268292683,140,6
435,0.9697265625,0.392578125,-0.01171875,18.170731707317074,-81.89024390243902,129.45121951219514,140,6
436,1.0048828125,0.41357421875,-0.00048828125,17.865853658536587,-81.28048780487805,126.09756097560977,140,6
437,1.03466796875,0.41796875,-0.02783203125,16.76829268292683,-82.50000000000001,123.04878048780489,140,6
438,1.0166015625,0.40087890625,-0.06591796875,10.914634146341465,-79.02439024390245,118.23170731707319,140,6
439,1.044921875,0.4111328125,-0.06591796875,7.500000000000001,-75.85365853658537,115.00000000000001,140,6
440,1.0390625,0.39794921875,-0.0576171875,4.939024390243903,-74.08536585365854,111.89024390243904,140,6
441,1.02197265625,0.380859375,-0.05712890625,2.5,-71.82926829268294,108.17073170731709,140,6
442,1.01904296875,0.3623046875,-0.02490234375,2.804878048780488,-70.67073170731707,104.02439024390245,140,6
443,1.02490234375,0.3515625,0.005859375,4.207317073170732,-69.20731707317074,98.35365853658537,140,6
444,1.00634765625,0.33203125,0.0263671875,7.25609756097561,-67.98780487804879,93.10975609756099,140,6
445,0.9892578125,0.3134765625,0.00830078125,12.439024390243903,-69.39024390243902,87.13414634146342,140,6
446,0.9599609375,0.28759765625,-0.087890625,16.03658536585366,-70.48780487804879,80.1219512195122,140,6
447,0.9765625,0.33251953125,-0.11279296875,16.585365853658537,-68.17073170731707,73.78048780487805,140,6
448,0.87890625,0.3701171875,-0.09033203125,13.170731707317074,-63.71951219512196,68.59756097560977,140,6
449,0.9970703125,0.3974609375,-0.05419921875,9.207317073170733,-59.085365853658544,64.20731707317074,140,6
450,0.9521484375,0.35302734375,-0.044921875,7.8048780487804885,-56.40243902439025,59.93902439024391,140,6
451,0.91259765625,0.341796875,-0.0224609375,8.536585365853659,-51.707317073170735,54.207317073170735,140,6
452,0.93701171875,0.365234375,-0.01025390625,7.926829268292684,-46.28048780487805,48.41463414634147,140,6
453,0.92919921875,0.35888671875,-0.03466796875,8.597560975609756,-44.63414634146342,42.987804878048784,140,6
454,0.9130859375,0.3271484375,-0.0107421875,10.182926829268293,-43.71951219512196,37.37804878048781,140,6
455,0.923828125,0.333984375,-0.1591796875,10.24390243902439,-40.60975609756098,31.402439024390247,140,6
456,0.958984375,0.35791015625,-0.177734375,9.451219512195122,-38.78048780487805,27.743902439024392,140,6
457,0.9326171875,0.34326171875,-0.197265625,9.573170731707318,-37.5609756097561,24.02439024390244,140,6
458,0.908203125,0.30810546875,-0.20556640625,8.414634146341465,-34.57317073170732,20.0,140,6
459,0.9072265625,0.31103515625,-0.189453125,6.951219512195123,-46.707317073170735,16.28048780487805,140,6
460,0.91845703125,0.31640625,-0.142578125,4.817073170731708,-26.82926829268293,13.29268292682927,140,6
461,0.89599609375,0.27490234375,-0.111328125,2.6219512195121952,-22.31707317073171,10.0,140,6
462,0.884765625,0.24267578125,-0.10986328125,2.5,-19.207317073170735,5.853658536585367,140,6
463,0.892578125,0.23388671875,-0.16259765625,2.987804878048781,-17.865853658536587,1.829268292682927,140,6
464,0.88232421875,0.22119140625,-0.224609375,1.524390243902439,-15.487804878048783,-2.378048780487805,140,6
465,0.90380859375,0.23095703125,-0.2509765625,-0.24390243902439027,-13.536585365853659,-6.341463414634147,140,6
466,0.92236328125,0.2509765625,-0.24169921875,-3.231707317073171,-11.036585365853659,-9.634146341463415,140,6
467,0.892578125,0.208984375,-0.22412109375,-5.121951219512195,-8.78048780487805,-13.536585365853659,140,6
468,0.87548828125,0.185546875,-0.2109375,-6.219512195121951,-6.097560975609756,-17.439024390243905,140,6
469,0.87353515625,0.1826171875,-0.1640625,-7.01219512195122,-2.378048780487805,-21.52439024390244,140,6
470,0.88037109375,0.19140625,-0.14453125,-8.536585365853659,1.2804878048780488,-25.121951219512198,140,6
471,0.9990234375,0.1669921875,-0.14697265625,-9.390243902439025,5.426829268292684,-28.963414634146343,140,6
472,0.8671875,0.15673828125,-0.13134765625,-10.182926829268293,9.573170731707318,-32.31707317073171,140,6
473,0.9912109375,0.14794921875,-0.15625,-10.670731707317074,11.402439024390246,-35.243902439024396,140,6
474,0.8515625,0.24560546875,-0.208984375,-10.975609756097562,12.317073170731708,-38.10975609756098,140,6
475,0.841796875,0.1201171875,-0.2373046875,-12.01219512195122,13.902439024390246,-40.243902439024396,140,6
476,0.87060546875,0.150390625,-0.220703125,-14.451219512195124,16.03658536585366,-42.19512195121951,140,6
477,0.8603515625,0.14599609375,-0.19775390625,-17.439024390243905,18.170731707317074,-43.47560975609756,140,6
478,0.83740234375,0.1171875,-0.19384765625,-19.451219512195124,19.81707317073171,-44.57317073170732,140,6
479,0.818359375,0.11376953125,-0.19189453125,-20.914634146341466,21.52439024390244,-45.97560975609756,140,6
480,0.81982421875,0.119140625,-0.17041015625,-21.707317073170735,23.170731707317074,-47.50000000000001,140,6
481,0.81396484375,0.248046875,-0.15771484375,-23.29268292682927,25.60975609756098,-48.04878048780488,140,6
482,0.806640625,0.1171875,-0.14453125,-24.573170731707318,28.170731707317074,-48.41463414634147,140,6
483,0.79296875,0.11376953125,-0.16357421875,-25.0609756097561,29.695121951219516,-48.59756097560976,140,6
484,0.77880859375,0.10595703125,-0.1982421875,-24.146341463414636,29.573170731707318,-48.90243902439025,140,6
485,0.77685546875,0.11181640625,-0.22509765625,-23.902439024390247,30.121951219512198,-49.146341463414636,140,6
486,0.77978515625,0.13232421875,-0.22802734375,-24.085365853658537,30.975609756097565,-48.84146341463415,140,6
487,0.79296875,0.1337890625,-0.369140625,-25.426829268292686,31.03658536585366,-48.35365853658537,140,6
488,0.7724609375,0.13232421875,-0.26806640625,-27.80487804878049,32.07317073170732,-47.50000000000001,140,6
489,0.755859375,0.12109375,-0.2548828125,-29.32926829268293,32.5609756097561,-46.28048780487805,140,6
490,0.74462890625,0.12841796875,-0.22802734375,-29.75609756097561,32.5609756097561,-45.54878048780488,140,6
491,0.73046875,0.1201171875,-0.2119140625,-30.914634146341466,32.987804878048784,-44.268292682926834,140,6
492,0.70849609375,0.11962890625,-0.18115234375,-31.89024390243903,34.207317073170735,-42.926829268292686,140,6
493,0.69384765625,0.1044921875,-0.177734375,-32.13414634146342,33.65853658536586,-41.21951219512196,140,6
494,0.669921875,0.09619140625,-0.17138671875,-30.60975609756098,32.80487804878049,-39.81707317073171,140,6
495,0.66552734375,0.07958984375,-0.1767578125,-29.02439024390244,31.58536585365854,-38.59756097560976,140,6
496,0.65966796875,0.0908203125,-0.1748046875,-27.073170731707318,29.939024390243905,-36.40243902439025,140,6
497,0.6572265625,0.07861328125,-0.1787109375,-25.60975609756098,28.59756097560976,-34.451219512195124,140,6
498,0.64990234375,0.0927734375,-0.18505859375,-25.182926829268293,27.80487804878049,-32.5,140,6
499,0.63623046875,0.09375,-0.193359375,-24.878048780487806,27.195121951219516,-30.182926829268297,140,6
