,Ax,Ay,Az,Gx,Gy,Gz,distance,shot_type
0,0.728515625,-0.26806640625,-0.32666015625,-5.426829268292684,-0.7317073170731708,-3.1707317073170733,135,3
1,0.744140625,-0.2333984375,-0.30029296875,-8.536585365853659,2.073170731707317,-3.048780487804878,135,3
2,0.62646484375,-0.22265625,-0.29150390625,-8.902439024390244,4.146341463414634,-2.6219512195121952,135,3
3,0.87255859375,-0.21875,-0.26904296875,-7.439024390243903,4.817073170731708,-2.3170731707317076,135,3
4,0.7685546875,-0.20849609375,-0.12646484375,-6.158536585365854,5.975609756097562,-2.5609756097560976,135,3
5,0.783203125,-0.19580078125,-0.259765625,-6.402439024390245,7.865853658536586,-2.439024390243903,135,3
6,0.77734375,-0.193359375,-0.25341796875,-7.073170731707318,8.658536585365855,-1.9512195121951221,135,3
7,0.7705078125,-0.18994140625,-0.23046875,-6.707317073170732,8.841463414634147,-0.853658536585366,135,3
8,0.7509765625,-0.2216796875,-0.22802734375,-4.695121951219512,8.902439024390244,-0.3658536585365854,135,3
9,0.7587890625,-0.22998046875,-0.22265625,-0.6097560975609757,8.597560975609756,-1.4634146341463417,135,3
10,0.767578125,-0.21923828125,-0.24755859375,3.1707317073170733,7.378048780487806,-2.378048780487805,135,3
11,0.77392578125,-0.20166015625,-0.25048828125,5.426829268292684,8.414634146341465,-2.987804878048781,135,3
12,0.76318359375,-0.22314453125,-0.23681640625,7.195121951219513,8.719512195121952,-3.5975609756097566,135,3
13,0.7666015625,-0.2421875,-0.22265625,8.292682926829269,9.329268292682928,-4.51219512195122,135,3
14,0.77099609375,-0.26123046875,-0.2421875,6.097560975609756,10.792682926829269,-5.182926829268293,135,3
15,0.76953125,-0.27197265625,-0.24658203125,3.536585365853659,12.378048780487806,-5.060975609756098,135,3
16,0.8671875,-0.3232421875,-0.2646484375,0.6707317073170732,13.29268292682927,-4.329268292682928,135,3
17,0.72802734375,-0.2548828125,-0.28515625,-0.7926829268292683,13.353658536585368,-3.353658536585366,135,3
18,0.72314453125,-0.419921875,-0.30224609375,-0.853658536585366,12.74390243902439,-1.9512195121951221,135,3
19,0.69921875,-0.4482421875,-0.33447265625,1.0975609756097562,11.402439024390246,-0.6097560975609757,135,3
20,0.68798828125,-0.47705078125,-0.35498046875,3.536585365853659,10.365853658536587,0.3658536585365854,135,3
21,0.68017578125,-0.49365234375,-0.3759765625,5.670731707317073,9.573170731707318,1.829268292682927,135,3
22,0.658203125,-0.505859375,-0.39208984375,7.317073170731708,9.329268292682928,2.804878048780488,135,3
23,0.6474609375,-0.51025390625,-0.36572265625,8.841463414634147,8.292682926829269,3.4756097560975614,135,3
24,0.61865234375,-0.52490234375,-0.359375,10.30487804878049,6.951219512195123,4.75609756097561,135,3
25,0.6328125,-0.51806640625,-0.34814453125,12.80487804878049,4.75609756097561,4.2682926829268295,135,3
26,0.6513671875,-0.48486328125,-0.33935546875,14.939024390243905,2.378048780487805,4.878048780487806,135,3
27,0.6220703125,-0.46826171875,-0.32958984375,14.26829268292683,0.0,5.670731707317073,135,3
28,0.63525390625,-0.423828125,-0.3291015625,13.658536585365855,-0.30487804878048785,6.2804878048780495,135,3
29,0.65185546875,-0.38916015625,-0.3017578125,12.500000000000002,-1.2195121951219514,6.646341463414635,135,3
30,0.671875,-0.36279296875,-0.28125,12.134146341463415,-2.1341463414634148,6.402439024390245,135,3
31,0.697265625,-0.32080078125,-0.265625,13.170731707317074,-2.987804878048781,5.487804878048781,135,3
32,0.7138671875,-0.28466796875,-0.26513671875,15.426829268292684,-4.451219512195122,4.390243902439025,135,3
33,0.71875,-0.26708984375,-0.26220703125,18.414634146341466,-5.609756097560976,2.8658536585365857,135,3
34,0.71728515625,-0.37451171875,-0.248046875,22.80487804878049,-7.682926829268293,0.6707317073170732,135,3
35,0.7451171875,-0.220703125,-0.2353515625,28.59756097560976,-9.51219512195122,-1.1585365853658538,135,3
36,0.740234375,-0.2197265625,-0.25244140625,15.670731707317074,-9.817073170731708,-2.439024390243903,135,3
37,0.72705078125,-0.203125,-0.2490234375,32.13414634146342,-8.597560975609756,-3.2926829268292686,135,3
38,0.74755859375,-0.169921875,-0.2607421875,31.280487804878053,-6.2804878048780495,-3.2926829268292686,135,3
39,0.74853515625,-0.138671875,-0.3740234375,28.59756097560976,-2.804878048780488,-3.1097560975609757,135,3
40,0.76513671875,-0.130859375,-0.26416015625,24.512195121951223,0.7926829268292683,-3.1707317073170733,135,3
41,0.791015625,-0.1396484375,-0.27685546875,19.207317073170735,4.451219512195122,-2.5,135,3
42,0.8095703125,-0.17236328125,-0.26611328125,13.536585365853659,8.902439024390244,-2.25609756097561,135,3
43,0.8193359375,-0.2138671875,-0.24609375,9.02439024390244,11.890243902439025,-1.6463414634146343,135,3
44,0.80029296875,-0.26416015625,-0.23779296875,7.073170731707318,13.414634146341465,0.1829268292682927,135,3
45,0.7822265625,-0.3154296875,-0.2294921875,7.865853658536586,13.658536585365855,15.426829268292684,135,3
46,0.79150390625,-0.3330078125,-0.22509765625,9.146341463414634,13.353658536585368,-1.1585365853658538,135,3
47,0.78515625,-0.345703125,-0.24365234375,11.585365853658537,13.414634146341465,-1.2804878048780488,135,3
48,0.78515625,-0.34814453125,-0.25146484375,12.073170731707318,13.04878048780488,-1.4634146341463417,135,3
49,0.75927734375,-0.3642578125,-0.22021484375,13.109756097560977,11.829268292682928,-1.1585365853658538,135,3
50,0.7275390625,-0.39013671875,-0.20703125,15.914634146341465,9.695121951219512,-0.3658536585365854,135,3
51,0.7158203125,-0.41162109375,-0.21142578125,20.426829268292686,6.951219512195123,0.30487804878048785,135,3
52,0.7080078125,-0.42041015625,-0.20654296875,27.25609756097561,3.4756097560975614,1.3414634146341464,135,3
53,0.69384765625,-0.42236328125,-0.21923828125,33.04878048780488,0.24390243902439027,1.5853658536585367,135,3
54,0.70263671875,-0.40869140625,-0.24365234375,39.69512195121951,-2.987804878048781,1.5853658536585367,135,3
55,0.69384765625,-0.39794921875,-0.27001953125,42.01219512195122,-3.4756097560975614,1.1585365853658538,135,3
56,0.69384765625,-0.39990234375,-0.283203125,42.6219512195122,-2.378048780487805,0.7317073170731708,135,3
57,0.703125,-0.36279296875,-0.302734375,40.0,-0.7926829268292683,0.48780487804878053,135,3
58,0.693359375,-0.3662109375,-0.322265625,35.85365853658537,1.8902439024390245,0.5487804878048781,135,3
59,0.68701171875,-0.35302734375,-0.330078125,29.939024390243905,4.817073170731708,1.707317073170732,135,3
60,0.68212890625,-0.375,-0.33349609375,24.32926829268293,6.463414634146342,2.9268292682926833,135,3
61,0.66455078125,-0.400390625,-0.32958984375,20.121951219512198,7.01219512195122,4.2682926829268295,135,3
62,0.6455078125,-0.421875,-0.3388671875,17.012195121951223,8.536585365853659,4.573170731707317,135,3
63,0.66259765625,-0.4111328125,-0.33642578125,12.01219512195122,10.853658536585368,4.939024390243903,135,3
64,0.666015625,-0.41259765625,-0.34375,5.3048780487804885,12.500000000000002,5.182926829268293,135,3
65,0.671875,-0.41064453125,-0.3515625,15.30487804878049,14.329268292682928,5.182926829268293,135,3
66,0.6728515625,-0.41064453125,-0.3701171875,-4.939024390243903,13.719512195121952,4.573170731707317,135,3
67,0.6689453125,-0.39208984375,-0.38818359375,-3.048780487804878,11.28048780487805,3.536585365853659,135,3
68,0.69189453125,-0.3916015625,-0.3896484375,-2.1951219512195124,9.878048780487806,2.1341463414634148,135,3
69,0.7021484375,-0.37548828125,-0.39208984375,-3.963414634146342,9.26829268292683,0.9146341463414634,135,3
70,0.71435546875,-0.369140625,-0.44140625,-7.134146341463415,8.170731707317074,1.0975609756097562,135,3
71,0.68896484375,-0.41015625,-0.47216796875,-12.865853658536587,8.475609756097562,2.6219512195121952,135,3
72,0.66650390625,-0.44482421875,-0.46142578125,-21.951219512195124,11.463414634146343,5.3048780487804885,135,3
73,0.689453125,-0.43798828125,-0.40380859375,-15.914634146341465,18.53658536585366,6.7682926829268295,135,3
74,0.71826171875,-0.3935546875,-0.3486328125,-42.6219512195122,26.82926829268293,8.841463414634147,135,3
75,0.7529296875,-0.33251953125,-0.357421875,-50.243902439024396,33.90243902439025,10.182926829268293,135,3
76,0.73681640625,-0.3271484375,-0.12744140625,-51.585365853658544,38.29268292682927,10.975609756097562,135,3
77,0.7041015625,-0.34765625,-0.07470703125,-62.31707317073171,37.19512195121951,10.487804878048781,135,3
78,0.671875,-0.39208984375,-0.04638671875,-37.25609756097561,34.81707317073171,8.292682926829269,135,3
79,0.67919921875,-0.35009765625,-0.03271484375,-25.731707317073173,31.52439024390244,6.646341463414635,135,3
80,0.71435546875,-0.33544921875,0.1240234375,-14.817073170731708,28.231707317073173,7.25609756097561,135,3
81,0.7470703125,-0.333984375,-0.01171875,-6.097560975609756,23.414634146341466,7.134146341463415,135,3
82,0.76806640625,-0.29443359375,-0.04296875,0.7926829268292683,22.439024390243905,6.52439024390244,135,3
83,0.77490234375,-0.28515625,-0.06884765625,1.1585365853658538,24.085365853658537,5.7926829268292686,135,3
84,0.78173828125,-0.31201171875,-0.05224609375,-2.3170731707317076,28.353658536585368,6.341463414634147,135,3
85,0.791015625,-0.33642578125,-0.05615234375,-8.109756097560977,15.79268292682927,5.975609756097562,135,3
86,0.81005859375,-0.32080078125,-0.09912109375,-15.365853658536587,33.71951219512196,4.939024390243903,135,3
87,0.8251953125,-0.3076171875,-0.12744140625,-22.25609756097561,39.51219512195122,6.2804878048780495,135,3
88,0.78369140625,-0.3505859375,-0.2490234375,-29.75609756097561,46.15853658536586,8.231707317073171,135,3
89,0.75341796875,-0.4140625,-0.08154296875,-37.5609756097561,52.37804878048781,8.597560975609756,135,3
90,0.7333984375,-0.42236328125,-0.08447265625,-41.15853658536586,56.15853658536586,9.573170731707318,135,3
91,0.7373046875,-0.41845703125,-0.048828125,-39.024390243902445,58.47560975609757,12.073170731707318,135,3
92,0.712890625,-0.4560546875,0.00927734375,-35.85365853658537,59.451219512195124,14.756097560975611,135,3
93,0.70068359375,-0.46484375,0.119140625,-30.182926829268297,55.73170731707317,16.890243902439025,135,3
94,0.728515625,-0.38232421875,-0.09033203125,-24.32926829268293,51.28048780487806,18.963414634146343,135,3
95,0.75244140625,-0.322265625,-0.13818359375,-22.98780487804878,50.60975609756098,19.634146341463417,135,3
96,0.8720703125,-0.33447265625,-0.18505859375,-29.26829268292683,54.085365853658544,19.451219512195124,135,3
97,0.76611328125,-0.33544921875,-0.21142578125,-38.29268292682927,59.32926829268293,18.475609756097562,135,3
98,0.7900390625,-0.27587890625,-0.2021484375,-49.146341463414636,66.64634146341464,15.609756097560977,135,3
99,0.818359375,-0.22998046875,-0.17626953125,-59.51219512195122,70.79268292682927,13.963414634146343,135,3
100,0.8291015625,-0.24169921875,-0.1796875,-66.03658536585367,71.21951219512195,14.573170731707318,135,3
101,0.79541015625,-0.3017578125,-0.1591796875,-73.71951219512195,76.52439024390245,14.634146341463415,135,3
102,0.7626953125,-0.375,-0.14404296875,-81.34146341463415,84.26829268292684,15.426829268292684,135,3
103,0.78515625,-0.3310546875,-0.14794921875,-81.82926829268294,85.97560975609757,14.207317073170733,135,3
104,0.79345703125,-0.255859375,0.06298828125,-71.64634146341464,68.29268292682927,17.5609756097561,135,3
105,0.84716796875,-0.15283203125,-0.1435546875,-59.87804878048781,64.63414634146342,14.573170731707318,135,3
106,0.8466796875,-0.03955078125,-0.34912109375,-61.646341463414636,62.560975609756106,9.695121951219512,135,3
107,0.82421875,-0.0703125,-0.37890625,-64.32926829268293,63.53658536585366,5.609756097560976,135,3
108,0.814453125,-0.0771484375,-0.3076171875,-69.39024390243902,68.71951219512195,2.682926829268293,135,3
109,0.81640625,-0.111328125,-0.25830078125,-76.28048780487805,67.92682926829269,0.1829268292682927,135,3
110,0.75927734375,-0.16064453125,-0.26123046875,-76.76829268292684,64.32926829268293,-0.24390243902439027,135,3
111,0.6767578125,-0.2158203125,-0.24169921875,-76.40243902439025,61.28048780487806,-1.1585365853658538,135,3
112,0.6611328125,-0.20849609375,-0.1318359375,-73.17073170731707,56.463414634146346,-3.1707317073170733,135,3
113,0.65771484375,-0.21923828125,-0.2763671875,-64.87804878048782,50.487804878048784,-4.634146341463415,135,3
114,0.6796875,-0.2060546875,-0.3603515625,-58.59756097560976,45.426829268292686,-8.109756097560977,135,3
115,0.70849609375,-0.14013671875,-0.38818359375,-58.23170731707317,43.963414634146346,-11.951219512195124,135,3
116,0.7548828125,-0.0703125,-0.42041015625,-60.91463414634147,41.890243902439025,-13.78048780487805,135,3
117,0.7841796875,-0.0322265625,-0.3779296875,-65.1829268292683,39.32926829268293,-14.51219512195122,135,3
118,0.7919921875,-0.05859375,-0.34423828125,-68.59756097560977,39.63414634146342,-16.219512195121954,135,3
119,0.81640625,-0.06787109375,-0.36474609375,-69.32926829268293,36.34146341463415,-17.378048780487806,135,3
120,0.79736328125,-0.1083984375,-0.36279296875,-66.34146341463415,34.32926829268293,-19.085365853658537,135,3
121,0.78759765625,-0.076171875,-0.35693359375,-63.47560975609757,32.86585365853659,-22.012195121951223,135,3
122,0.7705078125,-0.07666015625,-0.30078125,-65.42682926829269,32.07317073170732,-23.658536585365855,135,3
123,0.740234375,-0.06005859375,-0.2998046875,-68.23170731707317,30.670731707317074,-25.365853658536587,135,3
124,0.7158203125,-0.06689453125,-0.29296875,-72.8048780487805,30.670731707317074,-26.76829268292683,135,3
125,0.697265625,-0.091796875,-0.283203125,-76.95121951219512,29.695121951219516,-27.743902439024392,135,3
126,0.7001953125,-0.09619140625,-0.26123046875,-77.7439024390244,28.231707317073173,-28.475609756097562,135,3
127,0.7265625,-0.0654296875,-0.283203125,-77.13414634146342,26.219512195121954,-30.121951219512198,135,3
128,0.74609375,-0.056640625,-0.30810546875,-79.02439024390245,24.451219512195124,-31.158536585365855,135,3
129,0.7353515625,-0.05908203125,-0.3037109375,-80.67073170731707,23.84146341463415,-32.86585365853659,135,3
130,0.76220703125,-0.03466796875,-0.32763671875,-82.98780487804879,24.878048780487806,-36.463414634146346,135,3
131,0.7978515625,-0.11572265625,-0.38671875,-84.39024390243902,20.182926829268293,-41.463414634146346,135,3
132,0.78564453125,0.00927734375,-0.365234375,-88.84146341463415,20.365853658536587,-43.963414634146346,135,3
133,0.779296875,-0.0341796875,-0.3623046875,-96.21951219512196,21.707317073170735,-45.54878048780488,135,3
134,0.78173828125,-0.02099609375,-0.3623046875,-104.20731707317074,21.402439024390247,-47.743902439024396,135,3
135,0.78125,-0.00634765625,-0.3076171875,-109.57317073170732,21.219512195121954,-47.31707317073171,135,3
136,0.78466796875,-0.02099609375,-0.30322265625,-114.26829268292684,23.658536585365855,-48.78048780487805,135,3
137,0.775390625,-0.03466796875,-0.2744140625,-118.65853658536587,25.60975609756098,-49.268292682926834,135,3
138,0.77294921875,-0.02685546875,-0.298828125,-120.2439024390244,23.04878048780488,-50.487804878048784,135,3
139,0.80322265625,0.02978515625,-0.390625,-119.20731707317074,18.78048780487805,-55.60975609756098,135,3
140,0.8369140625,0.1220703125,-0.44189453125,-119.51219512195124,15.060975609756099,-59.451219512195124,135,3
141,0.8447265625,0.09765625,-0.45361328125,-123.10975609756099,14.085365853658537,-63.59756097560976,135,3
142,0.8818359375,0.119140625,-0.46728515625,-128.59756097560978,13.475609756097562,-67.37804878048782,135,3
143,0.90283203125,0.244140625,-0.4423828125,-133.96341463414635,12.926829268292684,-70.1829268292683,135,3
144,0.90087890625,0.140625,-0.42626953125,-138.41463414634148,12.073170731707318,-72.43902439024392,135,3
145,0.89306640625,0.1337890625,-0.42041015625,-142.19512195121953,11.76829268292683,-75.1829268292683,135,3
146,0.88671875,0.125,-0.4052734375,-144.69512195121953,11.52439024390244,-77.98780487804879,135,3
147,0.90625,0.0771484375,-0.41357421875,-147.4390243902439,11.829268292682928,-80.97560975609757,135,3
148,0.904296875,0.04931640625,-0.43896484375,-146.40243902439025,10.121951219512196,-83.41463414634147,135,3
149,0.95458984375,0.1181640625,-0.52392578125,-142.01219512195124,4.451219512195122,-88.71951219512196,135,3
150,1.01806640625,0.23388671875,-0.58154296875,-140.7926829268293,-2.804878048780488,-93.53658536585367,135,3
151,1.05029296875,0.373046875,-0.61181640625,-144.69512195121953,-5.731707317073171,-98.35365853658537,135,3
152,1.0712890625,0.22412109375,-0.62109375,-147.13414634146343,-7.439024390243903,-103.04878048780489,135,3
153,1.10791015625,0.2294921875,-0.52783203125,-147.6219512195122,-7.682926829268293,-107.8048780487805,135,3
154,1.18310546875,0.26123046875,-0.4892578125,-150.85365853658539,-6.158536585365854,-112.6829268292683,135,3
155,1.19921875,0.25830078125,-0.5029296875,-157.5609756097561,-4.024390243902439,-116.89024390243904,135,3
156,1.18359375,0.24365234375,-0.474609375,-164.51219512195124,-0.06097560975609757,-121.70731707317074,135,3
157,1.20947265625,0.28076171875,-0.42578125,-170.91463414634148,5.548780487804878,-128.0487804878049,135,3
158,1.24609375,0.27685546875,-0.4970703125,-179.63414634146343,9.695121951219512,-131.76829268292684,135,3
159,1.2275390625,0.1943359375,-0.3671875,-183.35365853658539,11.219512195121952,-135.3048780487805,135,3
160,1.12548828125,0.20751953125,-0.3740234375,-181.03658536585368,10.426829268292684,-138.2317073170732,135,3
161,1.26904296875,0.236328125,-0.34375,-177.8658536585366,11.341463414634147,-142.9878048780488,135,3
162,1.3115234375,0.23779296875,-0.3505859375,-176.58536585365854,11.463414634146343,-147.01219512195124,135,3
163,1.302734375,0.20556640625,-0.34033203125,-175.1219512195122,12.865853658536587,-152.19512195121953,135,3
164,1.3369140625,0.2431640625,-0.33251953125,-173.0487804878049,12.987804878048781,-156.46341463414635,135,3
165,1.328125,0.220703125,-0.32373046875,-172.6829268292683,13.170731707317074,-160.7926829268293,135,3
166,1.31103515625,0.22607421875,-0.326171875,-172.19512195121953,13.78048780487805,-164.45121951219514,135,3
167,1.287109375,0.3662109375,-0.275390625,-172.07317073170734,13.963414634146343,-168.109756097561,135,3
168,1.3330078125,0.220703125,-0.2734375,-169.87804878048783,11.707317073170733,-170.1829268292683,135,3
169,1.33642578125,0.232421875,-0.28955078125,-166.03658536585368,10.487804878048781,-173.109756097561,135,3
170,1.33056640625,0.271484375,-0.2822265625,-163.84146341463415,9.390243902439025,-175.7317073170732,135,3
171,1.35498046875,0.28173828125,-0.33203125,-162.31707317073173,7.926829268292684,-179.02439024390245,135,3
172,1.3564453125,0.28125,-0.3076171875,-160.97560975609758,6.341463414634147,-180.06097560975613,135,3
173,1.37646484375,0.298828125,-0.33447265625,-157.37804878048783,3.8414634146341466,-182.8048780487805,135,3
174,1.39404296875,0.34912109375,-0.3720703125,-155.4878048780488,3.5975609756097566,-185.1219512195122,135,3
175,1.38671875,0.32958984375,-0.37646484375,-155.0609756097561,5.609756097560976,-171.76829268292684,135,3
176,1.3955078125,0.361328125,-0.3271484375,-154.93902439024393,10.0,-189.75609756097563,135,3
177,1.423828125,0.390625,-0.23291015625,-156.89024390243904,15.975609756097562,-190.4878048780488,135,3
178,1.41357421875,0.349609375,-0.13916015625,-159.45121951219514,19.634146341463417,-188.96341463414635,135,3
179,1.41943359375,0.359375,-0.1083984375,-159.63414634146343,23.29268292682927,-190.4268292682927,135,3
180,1.47314453125,0.46923828125,-0.08056640625,-160.0,25.426829268292686,-197.13414634146343,135,3
181,1.47705078125,0.49560546875,-0.1142578125,-159.69512195121953,25.243902439024392,-201.15853658536588,135,3
182,1.45654296875,0.4931640625,-0.01025390625,-157.31707317073173,27.31707317073171,-208.78048780487808,135,3
183,1.498046875,0.56884765625,-0.1240234375,-155.4878048780488,28.53658536585366,-217.43902439024393,135,3
184,1.3759765625,0.55078125,-0.0732421875,-154.87804878048783,15.609756097560977,-223.2317073170732,135,3
185,1.51806640625,0.6240234375,-0.072265625,-150.97560975609758,33.170731707317074,-226.70731707317074,135,3
186,1.53125,0.546875,-0.052734375,-150.4878048780488,37.6219512195122,-229.93902439024393,135,3
187,1.52734375,0.59814453125,-0.06591796875,-154.02439024390245,42.01219512195122,-230.7926829268293,135,3
188,1.6240234375,0.5498046875,-0.09814453125,-159.93902439024393,46.09756097560976,-229.93902439024393,135,3
189,1.4921875,0.556640625,-0.0791015625,-160.7926829268293,50.1829268292683,-229.45121951219514,135,3
190,1.47705078125,0.57177734375,-0.05712890625,-159.26829268292684,51.585365853658544,-230.18292682926833,135,3
191,1.44677734375,0.5283203125,-0.04541015625,-153.96341463414635,51.768292682926834,-231.34146341463418,135,3
192,1.41748046875,0.5283203125,-0.1220703125,-146.46341463414635,51.707317073170735,-236.40243902439028,135,3
193,1.384765625,0.5439453125,0.0380859375,-138.1707317073171,50.1829268292683,-240.97560975609758,135,3
194,1.353515625,0.5556640625,0.0703125,-130.5487804878049,47.37804878048781,-245.7317073170732,135,3
195,1.3310546875,0.55078125,0.09716796875,-124.45121951219514,62.25609756097562,-250.4878048780488,135,3
196,1.3037109375,0.544921875,0.13330078125,-118.04878048780489,43.10975609756098,-251.28048780487808,135,3
197,1.28271484375,0.5283203125,0.130859375,-111.95121951219514,41.707317073170735,-252.68292682926833,135,3
198,1.24169921875,0.48876953125,0.125,-104.69512195121952,39.32926829268293,-252.37804878048783,135,3
199,1.1787109375,0.453125,0.142578125,-94.39024390243904,37.6829268292683,-252.13414634146343,135,3
200,1.15966796875,0.470703125,0.05908203125,-88.17073170731707,37.80487804878049,-253.41463414634148,135,3
201,1.13232421875,0.5166015625,0.01611328125,-85.48780487804879,37.5,-253.1707317073171,135,3
202,1.0947265625,0.49609375,-0.0107421875,-84.26829268292684,37.07317073170732,-253.96341463414637,135,3
203,1.0869140625,0.46435546875,-0.0126953125,-81.58536585365854,38.41463414634147,-255.4268292682927,135,3
204,1.0380859375,0.427734375,-0.12255859375,-76.89024390243902,36.34146341463415,-254.75609756097563,135,3
205,0.97998046875,0.35791015625,0.04296875,-73.17073170731707,36.03658536585366,-254.87804878048783,135,3
206,0.9091796875,0.30322265625,0.08056640625,-68.71951219512195,33.170731707317074,-253.78048780487808,135,3
207,0.8369140625,0.2685546875,0.1279296875,-65.1829268292683,32.07317073170732,-253.41463414634148,135,3
208,0.7705078125,0.21484375,0.15966796875,-62.926829268292686,32.25609756097561,-253.65853658536588,135,3
209,0.72900390625,0.13134765625,0.15380859375,-60.243902439024396,30.975609756097565,-252.07317073170734,135,3
210,0.6865234375,0.03955078125,0.173828125,-54.75609756097561,29.26829268292683,-250.12195121951223,135,3
211,0.650390625,-0.01318359375,0.18994140625,-49.146341463414636,28.902439024390247,-246.46341463414637,135,3
212,0.6201171875,-0.09619140625,0.21142578125,-43.71951219512196,29.573170731707318,-241.95121951219514,135,3
213,0.56396484375,-0.15380859375,0.23876953125,-37.01219512195122,26.58536585365854,-234.63414634146343,135,3
214,0.47412109375,-0.26171875,0.28076171875,-32.6829268292683,26.951219512195124,-227.8658536585366,135,3
215,0.396484375,-0.287109375,0.32373046875,-27.865853658536587,28.719512195121954,-223.41463414634148,135,3
216,0.33984375,-0.3974609375,0.2734375,-25.426829268292686,29.26829268292683,-215.12195121951223,135,3
217,0.267578125,-0.40576171875,0.27294921875,-23.475609756097562,28.780487804878053,-205.91463414634148,135,3
218,0.22412109375,-0.44775390625,0.32958984375,-21.82926829268293,31.402439024390247,-196.52439024390245,135,3
219,0.1923828125,-0.39501953125,0.2763671875,-5.609756097560976,30.487804878048784,-183.2317073170732,135,3
220,0.17333984375,-0.56396484375,0.3671875,-21.585365853658537,32.13414634146342,-172.6829268292683,135,3
221,-0.0458984375,-0.6943359375,0.3369140625,-22.865853658536587,31.82926829268293,-157.8658536585366,135,3
222,-0.19482421875,-0.8310546875,0.388671875,-24.878048780487806,31.707317073170735,-144.81707317073173,135,3
223,-0.28662109375,-0.97998046875,0.39453125,-22.865853658536587,29.39024390243903,-129.51219512195124,135,3
224,-0.376953125,-1.08447265625,0.39208984375,-20.48780487804878,29.695121951219516,-113.29268292682927,135,3
225,-0.4873046875,-1.2021484375,0.4326171875,-18.170731707317074,29.695121951219516,-94.63414634146342,135,3
226,-0.625,-1.28515625,0.45556640625,-31.158536585365855,30.731707317073173,-75.1219512195122,135,3
227,-0.49267578125,-1.40625,0.5205078125,-12.256097560975611,32.01219512195122,-54.69512195121952,135,3
228,-0.50439453125,-1.59423828125,0.5791015625,-3.048780487804878,31.951219512195124,-35.0,135,3
229,-0.48779296875,-1.703125,0.5888671875,10.792682926829269,34.81707317073171,-16.76829268292683,135,3
230,-0.45947265625,-1.79296875,0.6083984375,25.000000000000004,34.146341463414636,2.7439024390243905,135,3
231,-0.4365234375,-1.888671875,0.5302734375,38.47560975609756,33.59756097560976,27.073170731707318,135,3
232,-0.36328125,-1.98193359375,0.47412109375,49.207317073170735,37.25609756097561,32.43902439024391,135,3
233,-0.2392578125,-2.06005859375,0.4384765625,54.87804878048781,39.63414634146342,74.93902439024392,135,3
234,-0.12060546875,-2.1640625,0.3447265625,47.743902439024396,42.86585365853659,101.34146341463415,135,3
235,-0.03564453125,-2.3701171875,0.30419921875,74.02439024390245,45.85365853658537,127.07317073170732,135,3
236,0.01318359375,-2.47216796875,0.37255859375,85.48780487804879,47.25609756097561,148.59756097560978,135,3
237,0.0048828125,-2.56884765625,0.4365234375,100.91463414634147,45.97560975609756,170.3048780487805,135,3
238,0.18310546875,-2.68701171875,0.45068359375,115.97560975609757,43.35365853658537,195.7317073170732,135,3
239,0.26806640625,-2.81640625,0.46533203125,127.19512195121952,44.024390243902445,222.7439024390244,135,3
240,0.25146484375,-2.87890625,0.49560546875,131.58536585365854,48.29268292682927,254.14634146341464,135,3
241,0.56787109375,-2.978515625,0.45166015625,127.8658536585366,53.17073170731708,293.2926829268293,135,3
242,0.796875,-3.1630859375,0.38623046875,122.92682926829269,60.487804878048784,335.7317073170732,135,3
243,1.1103515625,-3.25732421875,0.3154296875,119.93902439024392,69.32926829268293,380.06097560975616,135,3
244,1.39111328125,-3.576171875,0.17529296875,109.69512195121952,74.26829268292684,426.0975609756098,135,3
245,1.96435546875,-3.775390625,-0.0400390625,126.09756097560977,74.57317073170732,456.0365853658537,135,3
246,2.3935546875,-3.92724609375,-0.30810546875,163.41463414634148,75.1829268292683,513.5365853658537,135,3
247,3.02734375,-4.03076171875,-0.60791015625,190.85365853658539,66.76829268292684,555.0,135,3
248,3.6982421875,-4.08984375,-0.888671875,251.21951219512198,65.54878048780489,585.6707317073171,135,3
249,4.34130859375,-4.013671875,-1.15234375,337.8658536585366,86.89024390243904,603.719512195122,135,3
250,5.3408203125,-3.88671875,-1.15478515625,402.13414634146346,122.19512195121952,611.5243902439025,135,3
251,6.2373046875,-3.84375,-1.2119140625,422.74390243902445,166.52439024390245,617.3170731707318,135,3
252,6.92431640625,-3.68798828125,-1.36279296875,465.9756097560976,195.97560975609758,633.7804878048781,135,3
253,7.80078125,-3.60302734375,-2.2294921875,440.18292682926835,226.58536585365854,675.9146341463415,135,3
254,8.44287109375,-3.45703125,-2.94384765625,419.87804878048786,267.3170731707317,728.5975609756098,135,3
255,9.2080078125,-2.63671875,-3.4775390625,396.1585365853659,282.8658536585366,801.0975609756098,135,3
256,9.70361328125,-2.14892578125,-3.77685546875,402.74390243902445,277.8658536585366,854.8780487804879,135,3
257,10.41357421875,-1.64892578125,-4.65087890625,392.62195121951225,229.45121951219514,909.8170731707318,135,3
258,10.9609375,-1.228515625,-5.8017578125,402.01219512195127,155.1829268292683,954.0853658536586,135,3
259,10.9169921875,-0.54248046875,-6.56640625,457.01219512195127,82.25609756097562,960.3048780487806,135,3
260,10.7734375,0.07421875,-7.21337890625,570.0,14.451219512195124,941.0365853658537,135,3
261,10.55859375,-0.109375,-7.8994140625,728.7804878048781,-99.20731707317074,898.4146341463415,135,3
262,9.26513671875,-1.283203125,-8.62158203125,936.2804878048781,-206.34146341463418,831.9512195121952,135,3
263,7.73583984375,-2.4306640625,-8.3857421875,1184.268292682927,-357.19512195121956,776.6463414634147,135,3
264,6.8935546875,-3.41064453125,-8.93017578125,1448.59756097561,-546.6463414634147,563.2926829268293,135,3
265,6.9580078125,-3.380859375,9.248046875,1751.5243902439026,-1466.09756097561,323.2926829268293,135,3
266,5.9375,-16.0,-16.0,1149.4512195121952,-707.8048780487806,-351.82926829268297,135,3
267,15.99951171875,15.99951171875,-16.0,717.8048780487806,49.146341463414636,139.39024390243904,135,3
268,2.21044921875,-2.171875,7.7861328125,878.6585365853659,63.41463414634147,-294.39024390243907,135,3
269,4.7255859375,5.4912109375,0.99755859375,1747.8658536585367,438.4756097560976,-305.2439024390244,135,3
270,7.04541015625,-1.74365234375,-2.33740234375,1025.3658536585367,27.439024390243905,-476.6463414634147,135,3
271,6.25048828125,2.5458984375,1.17529296875,741.1585365853659,178.90243902439025,-459.1463414634147,135,3
272,4.7998046875,1.1484375,1.11083984375,875.7317073170733,191.21951219512198,-417.74390243902445,135,3
273,5.44970703125,-3.4736328125,-0.54833984375,688.5365853658537,137.01219512195124,-565.7317073170732,135,3
274,6.03173828125,-2.35791015625,-1.14306640625,529.3902439024391,83.17073170731707,-666.219512195122,135,3
275,4.623046875,-3.25,-2.58984375,447.62195121951225,175.1219512195122,-714.939024390244,135,3
276,4.5361328125,-2.33056640625,-2.22509765625,364.39024390243907,227.56097560975613,-760.8536585365854,135,3
277,4.87109375,-2.4638671875,-2.3310546875,318.1707317073171,205.00000000000003,-810.3658536585367,135,3
278,4.28369140625,-2.0146484375,-2.384765625,260.1219512195122,264.9390243902439,-835.9756097560976,135,3
279,4.01220703125,-1.84033203125,-2.48046875,203.59756097560978,295.2439024390244,-842.5000000000001,135,3
280,4.2744140625,-1.15380859375,-2.68505859375,110.54878048780489,331.0975609756098,-806.9512195121952,135,3
281,4.01953125,-1.47509765625,-2.51318359375,18.84146341463415,389.63414634146346,-753.9634146341464,135,3
282,3.63037109375,-2.04638671875,-2.61083984375,-31.89024390243903,417.80487804878055,-709.7560975609757,135,3
283,3.42919921875,-1.79150390625,-2.32568359375,-91.34146341463415,447.43902439024396,-659.0243902439025,135,3
284,2.9736328125,-1.9443359375,-2.2958984375,-129.8780487804878,442.19512195121956,-612.3170731707318,135,3
285,2.63330078125,-1.9658203125,-2.365234375,-153.2317073170732,433.4756097560976,-590.609756097561,135,3
286,2.47998046875,-1.6640625,-2.021484375,-165.4268292682927,408.6585365853659,-541.829268292683,135,3
287,2.158203125,-1.29736328125,-1.8583984375,-170.0609756097561,385.4878048780488,-517.5,135,3
288,2.04638671875,-1.05810546875,-1.5693359375,-182.8048780487805,373.109756097561,-497.98780487804885,135,3
289,1.81591796875,-1.02783203125,-1.48974609375,-188.90243902439025,370.1829268292683,-476.95121951219517,135,3
290,1.68896484375,-1.05078125,-1.36767578125,-230.97560975609758,380.18292682926835,-453.7804878048781,135,3
291,1.54638671875,-0.84375,-1.1865234375,-251.89024390243904,382.50000000000006,-425.4878048780488,135,3
292,1.1904296875,-0.83544921875,-1.35791015625,-255.4878048780488,375.06097560975616,-404.0853658536586,135,3
293,0.94482421875,-0.861328125,-1.623046875,-265.3658536585366,368.4756097560976,-364.0243902439025,135,3
294,0.71337890625,-0.74169921875,-1.6435546875,-235.7926829268293,368.1707317073171,-340.0609756097561,135,3
295,0.580078125,-0.806640625,-1.66259765625,-223.96341463414637,363.9634146341464,-320.2439024390244,135,3
296,0.6103515625,-0.81005859375,-1.7119140625,-223.78048780487808,355.8536585365854,-302.37804878048786,135,3
297,0.66259765625,-0.62939453125,-1.7626953125,-223.41463414634148,340.9756097560976,-285.7926829268293,135,3
298,0.69482421875,-0.3330078125,-1.7197265625,-220.06097560975613,328.109756097561,-267.4390243902439,135,3
299,0.6669921875,-0.15966796875,-1.4443359375,-214.02439024390245,316.5243902439025,-245.4878048780488,135,3
300,0.40771484375,-0.13916015625,-1.19189453125,-212.13414634146343,300.4878048780488,-228.78048780487808,135,3
301,0.15869140625,-0.169921875,-1.07373046875,-207.19512195121953,286.0365853658537,-218.90243902439028,135,3
302,0.07421875,-0.2109375,-1.01904296875,-199.32926829268294,270.609756097561,-211.64634146341464,135,3
303,0.0673828125,0.033203125,-0.87744140625,-207.8658536585366,258.7804878048781,-207.13414634146343,135,3
304,0.09814453125,-0.03466796875,-1.2001953125,-221.03658536585368,234.57317073170734,-197.50000000000003,135,3
305,0.09521484375,-0.07080078125,-1.24072265625,-229.39024390243904,220.4878048780488,-189.08536585365854,135,3
306,0.18994140625,-0.00146484375,-1.16552734375,-233.2926829268293,200.97560975609758,-183.59756097560978,135,3
307,0.19970703125,-0.248046875,-1.1005859375,-240.3048780487805,185.4878048780488,-181.52439024390245,135,3
308,0.02294921875,-0.337890625,-1.0947265625,-243.78048780487808,170.00000000000003,-175.4878048780488,135,3
309,-0.166015625,-0.43798828125,-1.0537109375,-238.35365853658539,170.6707317073171,-165.4878048780488,135,3
310,-0.61083984375,-0.583984375,-0.98388671875,-230.97560975609758,141.46341463414635,-140.7317073170732,135,3
311,-0.77783203125,-0.578125,-0.916015625,-220.12195121951223,125.91463414634147,-154.69512195121953,135,3
312,-0.8671875,-0.509765625,-0.8447265625,-210.3048780487805,119.69512195121952,-151.64634146341464,135,3
313,-0.763671875,-0.3515625,-0.83740234375,-211.40243902439028,113.90243902439025,-144.20731707317074,135,3
314,-0.70263671875,-0.2587890625,-0.87158203125,-207.19512195121953,108.41463414634147,-129.20731707317074,135,3
315,-0.74365234375,-0.3642578125,-1.015625,-217.37804878048783,97.6829268292683,-110.00000000000001,135,3
316,-0.9423828125,-0.54931640625,-1.03857421875,-175.609756097561,91.28048780487806,-95.42682926829269,135,3
317,-1.16162109375,-0.74853515625,-0.9814453125,-161.15853658536588,85.97560975609757,-87.13414634146342,135,3
318,-1.298828125,-0.6875,-0.79736328125,-153.2926829268293,82.8658536585366,-85.1219512195122,135,3
319,-1.30224609375,-0.73828125,-0.68359375,-149.69512195121953,81.70731707317074,-79.69512195121952,135,3
320,-1.27099609375,-0.39111328125,-0.6015625,-155.5487804878049,76.28048780487805,-73.71951219512195,135,3
321,-1.224609375,-0.35888671875,-0.78515625,-153.53658536585368,71.09756097560977,-66.82926829268293,135,3
322,-1.17724609375,-0.2138671875,-0.89794921875,-143.1707317073171,77.5,-58.29268292682927,135,3
323,-1.2265625,-0.2314453125,-0.91552734375,-132.13414634146343,50.36585365853659,-49.451219512195124,135,3
324,-1.36328125,-0.3857421875,-0.8837890625,-112.8048780487805,45.97560975609756,-41.524390243902445,135,3
325,-1.275390625,-0.41357421875,-0.73779296875,-101.70731707317074,39.08536585365854,-34.024390243902445,135,3
326,-1.25048828125,-0.38427734375,-0.73486328125,-94.87804878048782,30.60975609756098,-28.414634146341466,135,3
327,-1.1640625,-0.31005859375,-0.875,-86.40243902439025,25.792682926829272,-25.975609756097562,135,3
328,-1.09423828125,-0.21142578125,-0.69921875,-78.35365853658537,18.78048780487805,-22.743902439024392,135,3
329,-1.046875,-0.19775390625,-0.66259765625,-72.19512195121952,12.560975609756099,-20.121951219512198,135,3
330,-1.05419921875,-0.1962890625,-0.634765625,-68.10975609756098,5.0,-16.82926829268293,135,3
331,-1.05224609375,-0.20849609375,-0.64111328125,-59.87804878048781,-1.5853658536585367,-10.670731707317074,135,3
332,-1.10888671875,-0.27587890625,-0.6484375,-50.60975609756098,-9.207317073170733,-3.2926829268292686,135,3
333,-1.169921875,-0.35302734375,-0.6005859375,-38.84146341463415,-16.402439024390244,3.353658536585366,135,3
334,-1.19970703125,-0.408203125,-0.57080078125,-28.780487804878053,-23.414634146341466,9.451219512195122,135,3
335,-1.201171875,-0.3828125,-0.56201171875,-19.81707317073171,-28.475609756097562,15.426829268292684,135,3
336,-1.1943359375,-0.3486328125,-0.578125,-12.378048780487806,-37.01219512195122,22.012195121951223,135,3
337,-1.181640625,-0.31396484375,-0.59619140625,-4.634146341463415,-44.268292682926834,26.76829268292683,135,3
338,-1.17578125,-0.265625,-0.5634765625,1.8902439024390245,-51.15853658536586,30.54878048780488,135,3
339,-1.1650390625,-0.212890625,-0.55078125,6.097560975609756,-58.10975609756098,33.53658536585366,135,3
340,-1.166015625,-0.16357421875,-0.6240234375,11.52439024390244,-63.59756097560976,34.87804878048781,135,3
341,-1.16845703125,-0.146484375,-0.43603515625,15.243902439024392,-70.73170731707317,34.93902439024391,135,3
342,-1.189453125,-0.15283203125,-0.39794921875,19.26829268292683,-74.02439024390245,35.609756097560975,135,3
343,-1.20361328125,-0.15869140625,-0.353515625,21.585365853658537,-77.5,35.670731707317074,135,3
344,-1.22705078125,-0.1728515625,-0.32470703125,24.81707317073171,-81.34146341463415,34.51219512195122,135,3
345,-1.22900390625,-0.15576171875,-0.2890625,29.146341463414636,-83.84146341463415,34.207317073170735,135,3
346,-1.21337890625,-0.1396484375,-0.27392578125,33.109756097560975,-86.95121951219512,34.08536585365854,135,3
347,-1.19384765625,-0.11474609375,-0.2568359375,37.19512195121951,-89.57317073170732,34.87804878048781,135,3
348,-1.20654296875,-0.10546875,-0.25244140625,40.0609756097561,-78.23170731707317,36.21951219512196,135,3
349,-1.2109375,-0.0888671875,-0.2724609375,44.451219512195124,-98.78048780487806,37.743902439024396,135,3
350,-1.22265625,-0.08642578125,-0.25341796875,31.34146341463415,-101.28048780487806,39.63414634146342,135,3
351,-1.21484375,-0.0771484375,-0.224609375,49.75609756097561,-103.71951219512196,42.37804878048781,135,3
352,-1.19482421875,-0.07080078125,-0.20703125,54.51219512195122,-107.01219512195122,45.0609756097561,135,3
353,-1.1875,-0.0546875,-0.19970703125,58.963414634146346,-111.21951219512196,47.86585365853659,135,3
354,-1.1640625,-0.0380859375,-0.1796875,64.26829268292684,-115.67073170731709,48.170731707317074,135,3
355,-1.11376953125,0.02392578125,-0.13525390625,68.29268292682927,-118.10975609756099,48.84146341463415,135,3
356,-1.0791015625,0.033203125,-0.07763671875,70.79268292682927,-120.06097560975611,48.84146341463415,135,3
357,-1.05224609375,0.0556640625,-0.00830078125,73.29268292682927,-122.13414634146342,49.085365853658544,135,3
358,-1.0302734375,0.0751953125,0.015625,77.07317073170732,-124.26829268292684,49.085365853658544,135,3
359,-0.990234375,0.08154296875,0.04541015625,80.2439024390244,-124.81707317073172,47.43902439024391,135,3
360,-0.95361328125,0.10791015625,0.05517578125,82.31707317073172,-125.91463414634147,45.487804878048784,135,3
361,-0.921875,0.13427734375,0.0595703125,83.59756097560977,-127.13414634146342,42.804878048780495,135,3
362,-0.88232421875,0.15625,0.09814453125,86.09756097560977,-128.2926829268293,40.1219512195122,135,3
363,-0.89404296875,0.16357421875,0.16064453125,87.92682926829269,-129.51219512195124,38.90243902439025,135,3
364,-0.9091796875,0.13671875,0.20556640625,89.63414634146342,-130.3658536585366,38.65853658536586,135,3
365,-0.9326171875,0.10986328125,0.22802734375,91.70731707317074,-131.52439024390245,38.90243902439025,135,3
366,-0.94580078125,0.087890625,0.23291015625,91.40243902439025,-132.7439024390244,37.987804878048784,135,3
367,-0.93017578125,0.09130859375,0.22998046875,92.13414634146342,-133.35365853658539,38.23170731707317,135,3
368,-0.91748046875,0.08984375,0.23876953125,95.91463414634147,-137.4390243902439,39.93902439024391,135,3
369,-0.9130859375,0.06689453125,0.2294921875,99.08536585365854,-138.65853658536585,40.1219512195122,135,3
370,-0.88916015625,0.07177734375,0.13427734375,101.28048780487806,-139.39024390243904,40.79268292682927,135,3
371,-0.8681640625,0.080078125,0.2705078125,99.87804878048782,-139.32926829268294,41.524390243902445,135,3
372,-0.8427734375,0.12744140625,0.302734375,97.19512195121952,-137.25609756097563,42.743902439024396,135,3
373,-0.81884765625,0.16064453125,0.32275390625,91.76829268292684,-135.85365853658539,44.57317073170732,135,3
374,-0.78662109375,0.189453125,0.31689453125,88.17073170731707,-134.63414634146343,46.40243902439025,135,3
375,-0.75048828125,0.21435546875,0.33349609375,88.10975609756099,-136.52439024390245,49.39024390243903,135,3
376,-0.7314453125,0.22607421875,0.33935546875,90.0609756097561,-140.3658536585366,51.34146341463415,135,3
377,-0.72900390625,0.21240234375,0.35400390625,88.23170731707317,-139.69512195121953,50.36585365853659,135,3
378,-0.69873046875,0.12646484375,0.37841796875,85.1829268292683,-140.2439024390244,48.71951219512196,135,3
379,-0.6728515625,0.25927734375,0.38330078125,82.92682926829269,-141.21951219512195,48.41463414634147,135,3
380,-0.68017578125,0.369140625,0.49267578125,81.95121951219512,-141.52439024390245,48.10975609756098,135,3
381,-0.6708984375,0.2294921875,0.4091796875,82.6219512195122,-142.25609756097563,48.04878048780488,135,3
382,-0.662109375,0.2314453125,0.44580078125,84.81707317073172,-142.9268292682927,48.10975609756098,135,3
383,-0.6328125,0.24267578125,0.4697265625,88.29268292682927,-144.32926829268294,48.90243902439025,135,3
384,-0.5849609375,0.2705078125,0.4580078125,91.28048780487806,-145.3658536585366,49.207317073170735,135,3
385,-0.5595703125,0.27783203125,0.458984375,94.51219512195122,-147.4390243902439,50.1219512195122,135,3
386,-0.564453125,0.27490234375,0.44482421875,97.92682926829269,-149.75609756097563,50.73170731707317,135,3
387,-0.578125,0.2783203125,0.47509765625,96.34146341463415,-149.93902439024393,51.15853658536586,135,3
388,-0.59326171875,0.27294921875,0.4921875,90.00000000000001,-147.8658536585366,51.34146341463415,135,3
389,-0.6025390625,0.26611328125,0.533203125,82.5609756097561,-146.82926829268294,52.926829268292686,135,3
390,-0.60498046875,0.26025390625,0.53662109375,77.6829268292683,-145.1829268292683,54.39024390243903,135,3
391,-0.6044921875,0.24462890625,0.5400390625,76.52439024390245,-144.32926829268294,56.585365853658544,135,3
392,-0.5849609375,0.240234375,0.54541015625,77.98780487804879,-144.32926829268294,59.146341463414636,135,3
393,-0.53271484375,0.25390625,0.54345703125,81.09756097560977,-146.82926829268294,47.01219512195122,135,3
394,-0.4833984375,0.306640625,0.5224609375,85.42682926829269,-148.96341463414635,65.97560975609757,135,3
395,-0.42919921875,0.32958984375,0.5048828125,88.53658536585367,-150.91463414634148,68.35365853658537,135,3
396,-0.40087890625,0.35302734375,0.5048828125,88.41463414634147,-151.40243902439025,70.0609756097561,135,3
397,-0.38427734375,0.38232421875,0.533203125,82.07317073170732,-148.53658536585368,70.97560975609757,135,3
398,-0.3271484375,0.408203125,0.5654296875,72.07317073170732,-143.84146341463415,72.43902439024392,135,3
399,-0.29296875,0.4130859375,0.58935546875,66.34146341463415,-140.609756097561,72.8048780487805,135,3
400,-0.2763671875,0.40869140625,0.599609375,64.39024390243902,-138.71951219512195,71.89024390243902,135,3
401,-0.2529296875,0.4013671875,0.61376953125,69.51219512195122,-137.31707317073173,70.3658536585366,135,3
402,-0.220703125,0.41552734375,0.63720703125,75.85365853658537,-137.9268292682927,69.14634146341464,135,3
403,-0.1943359375,0.4619140625,0.64892578125,79.08536585365854,-136.58536585365854,67.98780487804879,135,3
404,-0.1806640625,0.513671875,0.638671875,79.45121951219512,-135.85365853658539,67.8048780487805,135,3
405,-0.18115234375,0.5615234375,0.61962890625,77.07317073170732,-133.65853658536585,67.01219512195122,135,3
406,-0.16845703125,0.61474609375,0.60546875,72.8658536585366,-132.25609756097563,67.13414634146342,135,3
407,-0.16650390625,0.658203125,0.6201171875,71.03658536585367,-132.13414634146343,67.43902439024392,135,3
408,-0.1455078125,0.6806640625,0.65625,70.0,-132.13414634146343,67.6219512195122,135,3
409,-0.126953125,0.66357421875,0.6650390625,68.53658536585367,-131.34146341463415,67.13414634146342,135,3
410,-0.1044921875,0.65185546875,0.6982421875,69.20731707317074,-130.6707317073171,66.34146341463415,135,3
411,-0.0947265625,0.6337890625,0.7294921875,70.42682926829269,-129.57317073170734,65.60975609756098,135,3
412,-0.078125,0.63330078125,0.7548828125,71.58536585365854,-127.13414634146342,63.963414634146346,135,3
413,-0.06396484375,0.64892578125,0.78369140625,73.10975609756098,-140.3658536585366,63.23170731707317,135,3
414,-0.052734375,0.634765625,0.787109375,72.5609756097561,-121.34146341463416,62.560975609756106,135,3
415,-0.0322265625,0.64111328125,0.77880859375,70.85365853658537,-118.29268292682927,61.585365853658544,135,3
416,-0.02197265625,0.6435546875,0.74755859375,71.15853658536587,-115.42682926829269,60.304878048780495,135,3
417,-0.00146484375,0.669921875,0.72265625,71.34146341463415,-113.04878048780489,57.987804878048784,135,3
418,0.04052734375,0.71875,0.6962890625,73.17073170731707,-113.71951219512196,57.07317073170732,135,3
419,0.05224609375,0.73974609375,0.68359375,73.35365853658537,-112.8048780487805,54.69512195121952,135,3
420,0.07080078125,0.771484375,0.68505859375,72.31707317073172,-111.52439024390245,53.47560975609757,135,3
421,0.07958984375,0.7861328125,0.73974609375,69.87804878048782,-110.79268292682927,51.82926829268293,135,3
422,0.0859375,0.8056640625,0.68505859375,70.73170731707317,-110.97560975609757,51.82926829268293,135,3
423,0.06982421875,0.75390625,0.7880859375,72.8658536585366,-109.32926829268294,50.426829268292686,135,3
424,0.06494140625,0.7158203125,0.826171875,73.71951219512195,-106.95121951219514,50.36585365853659,135,3
425,0.033203125,0.673828125,0.828125,75.79268292682927,-103.29268292682927,50.97560975609756,135,3
426,0.0205078125,0.6728515625,0.81396484375,72.37804878048782,-97.6219512195122,51.15853658536586,135,3
427,0.0,0.6875,0.75927734375,68.10975609756098,-93.17073170731707,52.43902439024391,135,3
428,-0.0048828125,0.74951171875,0.7568359375,66.03658536585367,-89.81707317073172,53.35365853658537,135,3
429,0.01171875,0.77490234375,0.74072265625,63.78048780487806,-87.98780487804879,53.71951219512196,135,3
430,0.00244140625,0.78173828125,0.73046875,77.92682926829269,-85.73170731707317,55.304878048780495,135,3
431,-0.013671875,0.8134765625,0.73388671875,60.060975609756106,-84.08536585365854,55.487804878048784,135,3
432,-0.00439453125,0.8583984375,0.74169921875,58.963414634146346,-82.6829268292683,55.0609756097561,135,3
433,0.0341796875,0.853515625,0.7421875,57.743902439024396,-82.13414634146342,54.81707317073171,135,3
434,0.04638671875,0.8388671875,0.73681640625,55.487804878048784,-79.63414634146342,53.41463414634147,135,3
435,0.06689453125,0.82958984375,0.7568359375,52.25609756097561,-76.28048780487805,51.951219512195124,135,3
436,0.07373046875,0.8447265625,0.7646484375,49.75609756097561,-72.5609756097561,51.40243902439025,135,3
437,0.07275390625,0.853515625,0.7666015625,46.646341463414636,-66.52439024390245,50.73170731707317,135,3
438,0.0869140625,0.85400390625,0.79248046875,43.29268292682927,-60.67073170731708,49.87804878048781,135,3
439,0.10009765625,0.88720703125,0.87060546875,42.987804878048784,-55.60975609756098,48.78048780487805,135,3
440,0.1015625,0.8974609375,0.7255859375,42.37804878048781,-50.85365853658537,46.89024390243903,135,3
441,0.1201171875,0.91748046875,0.69580078125,41.21951219512196,-48.59756097560976,62.37804878048781,135,3
442,0.259765625,0.91552734375,0.6884765625,39.32926829268293,-42.37804878048781,41.15853658536586,135,3
443,0.140625,0.9599609375,0.7021484375,34.390243902439025,-37.6829268292683,38.78048780487805,135,3
444,0.1630859375,0.86181640625,0.6669921875,31.219512195121954,-33.71951219512196,36.890243902439025,135,3
445,0.2060546875,0.9765625,0.67822265625,27.621951219512198,-32.86585365853659,33.41463414634146,135,3
446,0.166015625,0.91796875,0.66748046875,25.0609756097561,-32.19512195121951,31.03658536585366,135,3
447,0.12353515625,0.86376953125,0.63720703125,22.621951219512198,-31.82926829268293,29.207317073170735,135,3
448,0.12939453125,0.68994140625,0.5595703125,21.219512195121954,-31.158536585365855,29.207317073170735,135,3
449,0.16455078125,0.84765625,0.63134765625,19.146341463414636,-31.951219512195124,27.80487804878049,135,3
450,0.1376953125,0.802734375,0.61669921875,16.646341463414636,-30.487804878048784,27.134146341463417,135,3
451,0.14697265625,0.79736328125,0.60107421875,14.451219512195124,-30.54878048780488,25.792682926829272,135,3
452,0.15576171875,0.791015625,0.564453125,13.170731707317074,-30.975609756097565,24.75609756097561,135,3
453,0.15283203125,0.7978515625,0.5498046875,10.853658536585368,-31.09756097560976,23.475609756097562,135,3
454,0.15966796875,0.82080078125,0.5458984375,7.926829268292684,-30.487804878048784,22.134146341463417,135,3
455,0.16796875,0.8212890625,0.5419921875,4.573170731707317,-29.75609756097561,28.231707317073173,135,3
456,-0.017578125,0.88134765625,0.53076171875,0.30487804878048785,-28.53658536585366,19.207317073170735,135,3
457,0.15625,0.8017578125,0.54296875,-4.573170731707317,-28.414634146341466,19.939024390243905,135,3
458,0.10498046875,0.7255859375,0.5166015625,-8.597560975609756,-26.707317073170735,19.695121951219512,135,3
459,0.095703125,0.73681640625,0.54931640625,-10.609756097560977,-24.573170731707318,18.53658536585366,135,3
460,0.107421875,0.705078125,0.568359375,-10.365853658536587,-23.475609756097562,18.53658536585366,135,3
461,0.12451171875,0.6787109375,0.55029296875,-8.170731707317074,-22.865853658536587,18.475609756097562,135,3
462,0.11572265625,0.6494140625,0.56982421875,-6.890243902439025,-21.097560975609756,18.10975609756098,135,3
463,0.12255859375,0.630859375,0.5576171875,-5.548780487804878,-20.182926829268293,17.621951219512198,135,3
464,0.140625,0.63671875,0.51953125,-4.207317073170732,-19.695121951219512,17.5609756097561,135,3
465,0.146484375,0.66455078125,0.4755859375,-5.3048780487804885,-19.878048780487806,16.34146341463415,135,3
466,0.17041015625,0.69677734375,0.41455078125,-8.353658536585366,-20.670731707317074,14.817073170731708,135,3
467,0.17578125,0.72802734375,0.419921875,-11.951219512195124,-22.621951219512198,1.3414634146341464,135,3
468,0.06884765625,0.451171875,0.50341796875,-14.634146341463415,-23.53658536585366,16.585365853658537,135,3
469,0.16552734375,0.71240234375,0.42138671875,-23.231707317073173,-22.012195121951223,17.134146341463417,135,3
470,0.10107421875,0.68408203125,0.4287109375,-29.02439024390244,-20.54878048780488,19.207317073170735,135,3
471,0.07666015625,0.671875,0.40576171875,-33.23170731707317,-19.390243902439025,21.585365853658537,135,3
472,0.0517578125,0.638671875,0.39892578125,-34.146341463414636,-19.146341463414636,23.475609756097562,135,3
473,0.0478515625,0.62353515625,0.39013671875,-32.987804878048784,-20.79268292682927,18.29268292682927,135,3
474,-0.17333984375,0.7373046875,0.4091796875,-26.76829268292683,-23.353658536585368,26.219512195121954,135,3
475,0.08935546875,0.59326171875,0.40869140625,-21.34146341463415,-26.58536585365854,26.219512195121954,135,3
476,0.091796875,0.591796875,0.44287109375,-13.414634146341465,-29.451219512195124,26.76829268292683,135,3
477,0.1083984375,0.607421875,0.4716796875,-4.390243902439025,-37.43902439024391,26.219512195121954,135,3
478,0.138671875,0.6533203125,0.4716796875,1.2804878048780488,-36.82926829268293,26.52439024390244,135,3
479,0.1005859375,0.62890625,0.4677734375,5.182926829268293,-40.0609756097561,46.15853658536586,135,3
480,0.142578125,0.53173828125,0.45068359375,6.829268292682928,-36.890243902439025,29.32926829268293,135,3
481,0.1171875,0.625,0.412109375,3.5975609756097566,-34.75609756097561,32.07317073170732,135,3
482,0.1220703125,0.62890625,0.39892578125,0.7926829268292683,-34.08536585365854,31.58536585365854,135,3
483,0.142578125,0.73974609375,0.36767578125,-1.402439024390244,-32.926829268292686,32.80487804878049,135,3
484,0.15673828125,0.6171875,0.35791015625,-3.536585365853659,-33.71951219512196,34.451219512195124,135,3
485,0.15625,0.60400390625,0.376953125,-2.6219512195121952,-35.243902439024396,35.487804878048784,135,3
486,0.18310546875,0.61181640625,0.37548828125,-1.6463414634146343,-36.463414634146346,36.03658536585366,135,3
487,0.2119140625,0.60498046875,0.39794921875,-0.06097560975609757,-38.10975609756098,36.34146341463415,135,3
488,0.23291015625,0.619140625,0.42626953125,0.30487804878048785,-39.93902439024391,35.79268292682927,135,3
489,0.255859375,0.607421875,0.41015625,-3.1707317073170733,-40.54878048780488,35.670731707317074,135,3
490,0.25390625,0.58642578125,0.4443359375,-11.341463414634147,-37.19512195121951,34.390243902439025,135,3
491,0.2763671875,0.61572265625,0.4638671875,-17.134146341463417,-34.57317073170732,46.646341463414636,135,3
492,0.29638671875,0.64208984375,0.4990234375,-19.75609756097561,-32.01219512195122,28.84146341463415,135,3
493,0.29248046875,0.63720703125,0.544921875,-18.414634146341466,-30.365853658536587,27.621951219512198,135,3
494,0.3017578125,0.62841796875,0.54638671875,-15.914634146341465,-32.86585365853659,28.59756097560976,135,3
495,0.27001953125,0.580078125,0.5234375,-12.500000000000002,-34.451219512195124,29.08536585365854,135,3
496,0.26513671875,0.5634765625,0.4990234375,-6.707317073170732,-36.09756097560976,29.207317073170735,135,3
497,0.275390625,0.556640625,0.4736328125,-15.30487804878049,-39.87804878048781,29.39024390243903,135,3
498,0.296875,0.55517578125,0.44482421875,6.52439024390244,-42.31707317073171,28.59756097560976,135,3
499,0.3330078125,0.57763671875,0.4208984375,12.682926829268293,-46.21951219512196,28.719512195121954,135,3
