,Ax,Ay,Az,Gx,Gy,Gz,distance,shot_type
0,0.56982421875,-0.71484375,-0.24755859375,17.743902439024392,-1.2195121951219514,2.3170731707317076,145,2
1,0.5869140625,-0.70703125,-0.1513671875,17.682926829268293,0.3658536585365854,4.51219512195122,145,2
2,0.60205078125,-0.6865234375,-0.20947265625,14.390243902439027,1.707317073170732,5.914634146341464,145,2
3,0.6376953125,-0.640625,-0.27001953125,10.24390243902439,3.536585365853659,7.743902439024391,145,2
4,0.64990234375,-0.63330078125,-0.28662109375,5.975609756097562,4.51219512195122,7.865853658536586,145,2
5,0.64892578125,-0.64111328125,-0.31494140625,4.207317073170732,4.695121951219512,7.987804878048781,145,2
6,0.6337890625,-0.66796875,-0.3017578125,4.695121951219512,3.536585365853659,7.8048780487804885,145,2
7,0.6591796875,-0.63671875,-0.2607421875,4.51219512195122,2.6219512195121952,7.073170731707318,145,2
8,0.6533203125,-0.609375,-0.228515625,3.963414634146342,1.524390243902439,7.25609756097561,145,2
9,0.63134765625,-0.603515625,-0.20849609375,5.7926829268292686,-0.6707317073170732,8.353658536585366,145,2
10,0.62841796875,-0.6240234375,-0.19091796875,4.75609756097561,1.0365853658536586,10.0,145,2
11,0.6220703125,-0.60205078125,-0.2099609375,2.378048780487805,2.1951219512195124,11.52439024390244,145,2
12,0.6376953125,-0.58544921875,-0.19140625,1.829268292682927,5.060975609756098,14.085365853658537,145,2
13,0.63232421875,-0.5986328125,-0.18017578125,-0.6707317073170732,3.9024390243902443,15.426829268292684,145,2
14,0.5830078125,-0.615234375,-0.2001953125,0.48780487804878053,4.390243902439025,17.926829268292686,145,2
15,0.611328125,-0.5625,-0.18994140625,2.0121951219512195,5.2439024390243905,17.5,145,2
16,0.6318359375,-0.52587890625,-0.17626953125,2.3170731707317076,5.975609756097562,17.073170731707318,145,2
17,0.6552734375,-0.49267578125,-0.1962890625,2.25609756097561,6.890243902439025,15.975609756097562,145,2
18,0.66650390625,-0.47705078125,-0.21484375,0.9146341463414634,7.8048780487804885,13.902439024390246,145,2
19,0.70458984375,-0.43994140625,-0.20703125,-0.48780487804878053,9.207317073170733,12.378048780487806,145,2
20,0.7119140625,-0.44482421875,-0.17236328125,-3.658536585365854,12.073170731707318,10.731707317073171,145,2
21,0.72412109375,-0.431640625,-0.16015625,-6.951219512195123,15.182926829268293,9.695121951219512,145,2
22,0.73486328125,-0.4375,-0.13330078125,-7.317073170731708,15.30487804878049,9.207317073170733,145,2
23,0.70654296875,-0.4794921875,-0.1298828125,-3.9024390243902443,12.926829268292684,9.207317073170733,145,2
24,0.6884765625,-0.49462890625,-0.1044921875,0.7317073170731708,10.121951219512196,8.231707317073171,145,2
25,0.72509765625,-0.46435546875,-0.115234375,3.7195121951219514,8.658536585365855,7.25609756097561,145,2
26,0.732421875,-0.43994140625,-0.1279296875,5.914634146341464,10.182926829268293,5.487804878048781,145,2
27,0.6259765625,-0.43798828125,-0.0771484375,6.646341463414635,12.74390243902439,3.1097560975609757,145,2
28,0.7412109375,-0.43994140625,-0.08544921875,5.0,14.695121951219514,2.0121951219512195,145,2
29,0.74560546875,-0.4423828125,-0.16357421875,4.573170731707317,14.939024390243905,-0.426829268292683,145,2
30,0.763671875,-0.43896484375,-0.18505859375,3.414634146341464,16.76829268292683,-2.25609756097561,145,2
31,0.78662109375,-0.439453125,-0.18701171875,-2.1951219512195124,21.097560975609756,-4.817073170731708,145,2
32,0.7802734375,-0.47314453125,-0.16357421875,-9.146341463414634,25.670731707317074,-7.25609756097561,145,2
33,0.75048828125,-0.5009765625,-0.14306640625,-11.52439024390244,27.195121951219516,-8.353658536585366,145,2
34,0.72802734375,-0.5703125,-0.1171875,-10.121951219512196,26.82926829268293,-8.963414634146343,145,2
35,0.701171875,-0.60498046875,-0.11376953125,-5.670731707317073,23.963414634146343,-9.756097560975611,145,2
36,0.67431640625,-0.63818359375,-0.0966796875,1.524390243902439,18.963414634146343,-9.02439024390244,145,2
37,0.62353515625,-0.6708984375,-0.06689453125,11.097560975609756,13.04878048780488,-6.890243902439025,145,2
38,0.61279296875,-0.68310546875,-0.06591796875,20.54878048780488,7.01219512195122,-4.817073170731708,145,2
39,0.62109375,-0.6708984375,-0.142578125,27.682926829268297,-0.9146341463414634,-3.658536585365854,145,2
40,0.68359375,-0.5244140625,-0.25634765625,33.65853658536586,-3.414634146341464,-4.329268292682928,145,2
41,0.7177734375,-0.49462890625,-0.2333984375,28.658536585365855,2.5,-3.5975609756097566,145,2
42,0.71484375,-0.4951171875,-0.18017578125,19.573170731707318,10.365853658536587,-3.1097560975609757,145,2
43,0.72314453125,-0.47900390625,-0.166015625,10.548780487804878,14.756097560975611,-3.9024390243902443,145,2
44,0.74658203125,-0.43505859375,-0.1953125,7.01219512195122,15.670731707317074,-6.036585365853659,145,2
45,0.73193359375,-0.43798828125,-0.1748046875,8.597560975609756,13.78048780487805,-6.707317073170732,145,2
46,0.6767578125,-0.54345703125,-0.10546875,13.353658536585368,10.670731707317074,-5.121951219512195,145,2
47,0.65380859375,-0.59228515625,-0.115234375,21.34146341463415,4.146341463414634,-4.634146341463415,145,2
48,0.66650390625,-0.58544921875,-0.138671875,28.658536585365855,-0.9146341463414634,-3.7195121951219514,145,2
49,0.63037109375,-0.60791015625,-0.11279296875,32.37804878048781,-3.8414634146341466,-2.1341463414634148,145,2
50,0.50390625,-0.580078125,-0.13037109375,34.51219512195122,-6.402439024390245,-2.073170731707317,145,2
51,0.66650390625,-0.51953125,-0.1767578125,34.75609756097561,-5.548780487804878,-2.804878048780488,145,2
52,0.69189453125,-0.5126953125,-0.18994140625,28.84146341463415,-1.2195121951219514,-3.4756097560975614,145,2
53,0.7109375,-0.51513671875,-0.20458984375,21.951219512195124,3.414634146341464,-4.024390243902439,145,2
54,0.703125,-0.51416015625,-0.20849609375,14.02439024390244,8.292682926829269,-4.085365853658537,145,2
55,0.7109375,-0.3779296875,-0.2177734375,8.048780487804878,11.219512195121952,-3.963414634146342,145,2
56,0.68359375,-0.537109375,-0.20947265625,3.780487804878049,12.80487804878049,-3.1707317073170733,145,2
57,0.671875,-0.56884765625,-0.22509765625,15.365853658536587,13.475609756097562,-2.6219512195121952,145,2
58,0.66259765625,-0.5673828125,-0.234375,-2.6219512195121952,12.195121951219512,-2.1951219512195124,145,2
59,0.650390625,-0.5908203125,-0.21240234375,-3.4756097560975614,10.670731707317074,-1.3414634146341464,145,2
60,0.61865234375,-0.6240234375,-0.20458984375,-2.7439024390243905,8.109756097560977,-0.426829268292683,145,2
61,0.62841796875,-0.60595703125,-0.23388671875,-1.524390243902439,4.695121951219512,-0.6707317073170732,145,2
62,0.6611328125,-0.59228515625,-0.26708984375,-1.9512195121951221,3.780487804878049,-0.853658536585366,145,2
63,0.640625,-0.6044921875,-0.37158203125,-4.329268292682928,4.939024390243903,-0.6707317073170732,145,2
64,0.62744140625,-0.61181640625,-0.24169921875,-7.621951219512196,5.3048780487804885,-1.2804878048780488,145,2
65,0.7451171875,-0.74951171875,-0.25048828125,-11.158536585365855,7.317073170731708,-1.2804878048780488,145,2
66,0.60888671875,-0.64306640625,-0.23388671875,-14.085365853658537,6.707317073170732,-1.0365853658536586,145,2
67,0.62158203125,-0.6513671875,-0.240234375,-14.695121951219514,5.975609756097562,-15.609756097560977,145,2
68,0.61669921875,-0.66259765625,-0.2255859375,-15.853658536585368,5.426829268292684,1.4634146341463417,145,2
69,0.61328125,-0.6708984375,-0.2177734375,-15.914634146341465,4.207317073170732,2.1951219512195124,145,2
70,0.63720703125,-0.64306640625,-0.1943359375,-14.756097560975611,5.0,4.390243902439025,145,2
71,0.65087890625,-0.74755859375,-0.1630859375,-15.487804878048783,6.158536585365854,5.548780487804878,145,2
72,0.66552734375,-0.56689453125,-0.095703125,-16.76829268292683,9.634146341463415,5.426829268292684,145,2
73,0.697265625,-0.54296875,-0.091796875,-19.512195121951223,12.80487804878049,4.75609756097561,145,2
74,0.70068359375,-0.49560546875,-0.048828125,-22.439024390243905,15.79268292682927,3.658536585365854,145,2
75,0.7158203125,-0.462890625,-0.0263671875,-21.76829268292683,14.26829268292683,2.8658536585365857,145,2
76,0.7041015625,-0.49755859375,-0.00537109375,-19.207317073170735,11.890243902439025,1.8902439024390245,145,2
77,0.705078125,-0.46435546875,0.00146484375,-14.390243902439027,9.51219512195122,-1.0975609756097562,145,2
78,0.7451171875,-0.43359375,-0.01416015625,-13.04878048780488,9.390243902439025,-2.25609756097561,145,2
79,0.73095703125,-0.4365234375,-0.0478515625,-14.939024390243905,10.487804878048781,-2.0121951219512195,145,2
80,0.68115234375,-0.46923828125,-0.05615234375,-17.012195121951223,12.195121951219512,-0.426829268292683,145,2
81,0.67626953125,-0.62255859375,-0.056640625,-17.621951219512198,0.24390243902439027,0.0,145,2
82,0.7109375,-0.4912109375,-0.033203125,-19.512195121951223,21.890243902439025,-0.1829268292682927,145,2
83,0.7353515625,-0.49072265625,-0.033203125,-24.81707317073171,30.426829268292686,-0.30487804878048785,145,2
84,0.7431640625,-0.50048828125,-0.05712890625,-34.268292682926834,40.91463414634147,-0.30487804878048785,145,2
85,0.75732421875,-0.4814453125,-0.03759765625,-41.09756097560976,48.65853658536586,-0.48780487804878053,145,2
86,0.73974609375,-0.50732421875,-0.00244140625,-45.00000000000001,53.59756097560976,1.3414634146341464,145,2
87,0.720703125,-0.5556640625,0.0380859375,-45.1829268292683,55.0609756097561,3.1097560975609757,145,2
88,0.7109375,-0.57080078125,0.05810546875,-44.51219512195122,58.23170731707317,3.963414634146342,145,2
89,0.6796875,-0.59228515625,0.107421875,-43.53658536585366,59.81707317073171,4.878048780487806,145,2
90,0.65673828125,-0.6015625,0.10888671875,-38.65853658536586,58.71951219512196,5.853658536585367,145,2
91,0.67333984375,-0.58935546875,0.0947265625,-33.53658536585366,56.524390243902445,5.975609756097562,145,2
92,0.69775390625,-0.5751953125,0.06787109375,-30.487804878048784,56.951219512195124,6.097560975609756,145,2
93,0.7099609375,-0.57373046875,0.01708984375,-30.853658536585368,58.47560975609757,6.341463414634147,145,2
94,0.71728515625,-0.57958984375,0.0390625,-29.451219512195124,59.87804878048781,6.219512195121951,145,2
95,0.71337890625,-0.578125,0.0703125,-26.28048780487805,59.81707317073171,6.7682926829268295,145,2
96,0.69775390625,-0.587890625,0.08203125,-23.353658536585368,59.268292682926834,6.219512195121951,145,2
97,0.6943359375,-0.56591796875,0.05517578125,-22.926829268292686,59.87804878048781,5.670731707317073,145,2
98,0.69873046875,-0.537109375,0.046875,-24.451219512195124,61.09756097560976,5.670731707317073,145,2
99,0.7109375,-0.51171875,0.0859375,-24.390243902439025,62.37804878048781,6.52439024390244,145,2
100,0.7041015625,-0.5439453125,0.1025390625,-23.29268292682927,63.29268292682927,8.597560975609756,145,2
101,0.681640625,-0.56396484375,0.11279296875,-22.865853658536587,64.57317073170732,9.695121951219512,145,2
102,0.66455078125,-0.57373046875,0.04736328125,-21.158536585365855,62.926829268292686,11.463414634146343,145,2
103,0.66357421875,-0.5673828125,0.01123046875,-16.52439024390244,61.707317073170735,12.500000000000002,145,2
104,0.6904296875,-0.5576171875,0.0068359375,-16.52439024390244,63.17073170731708,11.890243902439025,145,2
105,0.70947265625,-0.53125,-0.06494140625,-23.353658536585368,67.7439024390244,11.52439024390244,145,2
106,0.76123046875,-0.42333984375,-0.1318359375,-30.426829268292686,74.02439024390245,10.0,145,2
107,0.78662109375,-0.38671875,-0.150390625,-41.03658536585366,80.3658536585366,7.8048780487804885,145,2
108,0.7705078125,-0.40673828125,-0.107421875,-49.75609756097561,85.3048780487805,6.463414634146342,145,2
109,0.736328125,-0.43798828125,-0.04736328125,-52.25609756097561,86.70731707317074,6.463414634146342,145,2
110,0.71728515625,-0.4619140625,-0.04736328125,-51.646341463414636,84.57317073170732,6.890243902439025,145,2
111,0.7109375,-0.45556640625,-0.06787109375,-50.426829268292686,82.92682926829269,7.01219512195122,145,2
112,0.65673828125,-0.4833984375,-0.0888671875,-52.86585365853659,82.37804878048782,7.134146341463415,145,2
113,0.64501953125,-0.46240234375,-0.08349609375,-55.00000000000001,81.58536585365854,6.402439024390245,145,2
114,0.6669921875,-0.43505859375,-0.15087890625,-57.6829268292683,93.59756097560977,5.487804878048781,145,2
115,0.7138671875,-0.3544921875,-0.21337890625,-58.65853658536586,77.13414634146342,3.780487804878049,145,2
116,0.716796875,-0.3935546875,-0.18603515625,-61.09756097560976,77.37804878048782,2.439024390243903,145,2
117,0.693359375,-0.41943359375,-0.111328125,-58.59756097560976,75.1219512195122,2.6219512195121952,145,2
118,0.6943359375,-0.4140625,-0.07763671875,-54.69512195121952,70.60975609756098,2.5,145,2
119,0.681640625,-0.40673828125,-0.10888671875,-52.19512195121952,66.70731707317074,2.3170731707317076,145,2
120,0.64697265625,-0.408203125,-0.14697265625,-50.36585365853659,62.19512195121952,1.2804878048780488,145,2
121,0.64013671875,-0.39208984375,-0.11376953125,-47.6219512195122,59.81707317073171,15.426829268292684,145,2
122,0.66650390625,-0.3837890625,-0.087890625,-45.1219512195122,56.82926829268293,-1.7682926829268295,145,2
123,0.6865234375,-0.36865234375,-0.18359375,-44.024390243902445,49.57317073170732,-4.573170731707317,145,2
124,0.6943359375,-0.2841796875,-0.24365234375,-45.0609756097561,46.28048780487805,-10.060975609756099,145,2
125,0.74853515625,-0.26171875,-0.248046875,-46.28048780487805,44.146341463414636,-13.658536585365855,145,2
126,0.75537109375,-0.2900390625,-0.1923828125,-49.87804878048781,44.146341463414636,-17.012195121951223,145,2
127,0.76806640625,-0.31591796875,-0.1728515625,-52.50000000000001,43.29268292682927,-19.512195121951223,145,2
128,0.7197265625,-0.33544921875,-0.16357421875,-54.268292682926834,40.79268292682927,-21.219512195121954,145,2
129,0.70556640625,-0.3056640625,-0.130859375,-55.1829268292683,38.23170731707317,-22.926829268292686,145,2
130,0.6962890625,-0.3232421875,-0.130859375,-55.243902439024396,35.609756097560975,-24.390243902439025,145,2
131,0.701171875,-0.32861328125,-0.13232421875,-53.84146341463415,31.76829268292683,-25.48780487804878,145,2
132,0.69580078125,-0.3115234375,-0.1630859375,-53.65853658536586,28.292682926829272,-27.621951219512198,145,2
133,0.6962890625,-0.279296875,-0.1953125,-53.35365853658537,23.84146341463415,-30.487804878048784,145,2
134,0.73095703125,-0.24267578125,-0.21630859375,-54.57317073170732,21.28048780487805,-34.024390243902445,145,2
135,0.75634765625,-0.25146484375,-0.2529296875,-56.768292682926834,18.353658536585368,-38.29268292682927,145,2
136,0.7890625,-0.228515625,-0.2568359375,-58.90243902439025,17.621951219512198,-40.85365853658537,145,2
137,0.818359375,-0.20849609375,-0.2373046875,-65.73170731707317,18.902439024390244,-43.29268292682927,145,2
138,0.787109375,-0.22607421875,-0.21337890625,-73.53658536585367,21.34146341463415,-44.87804878048781,145,2
139,0.79052734375,-0.2109375,-0.1904296875,-80.0,22.621951219512198,-47.6219512195122,145,2
140,0.79150390625,-0.1884765625,-0.1904296875,-85.73170731707317,24.207317073170735,-51.15853658536586,145,2
141,0.7880859375,-0.18212890625,-0.17431640625,-90.67073170731707,25.365853658536587,-54.451219512195124,145,2
142,0.78515625,-0.21240234375,-0.1572265625,-93.47560975609757,25.243902439024392,-56.646341463414636,145,2
143,0.81884765625,-0.18505859375,-0.13671875,-96.03658536585367,24.939024390243905,-59.51219512195122,145,2
144,0.81494140625,-0.208984375,-0.14892578125,-97.5609756097561,23.10975609756098,-61.21951219512196,145,2
145,0.8271484375,-0.2236328125,-0.21533203125,-98.65853658536587,19.146341463414636,-63.963414634146346,145,2
146,0.86376953125,-0.1630859375,-0.189453125,-99.87804878048782,19.512195121951223,-67.6829268292683,145,2
147,0.92626953125,-0.14794921875,-0.201171875,-104.81707317073172,21.463414634146343,-71.76829268292684,145,2
148,0.9423828125,-0.14599609375,-0.197265625,-110.79268292682927,23.231707317073173,-75.85365853658537,145,2
149,0.95458984375,-0.14501953125,-0.166015625,-116.76829268292684,25.792682926829272,-79.75609756097562,145,2
150,0.935546875,-0.16748046875,-0.00048828125,-121.28048780487806,27.500000000000004,-81.46341463414635,145,2
151,0.90478515625,-0.22119140625,-0.13720703125,-122.25609756097562,27.743902439024392,-83.53658536585367,145,2
152,0.90966796875,-0.19140625,-0.1123046875,-121.58536585365854,27.743902439024392,-86.28048780487805,145,2
153,0.9482421875,-0.16064453125,-0.125,-121.09756097560977,26.707317073170735,-89.69512195121952,145,2
154,0.9658203125,-0.1669921875,-0.1611328125,-121.15853658536587,25.670731707317074,-93.59756097560977,145,2
155,0.990234375,-0.14306640625,-0.171875,-120.42682926829269,23.963414634146343,-97.6219512195122,145,2
156,1.03173828125,-0.10791015625,-0.22998046875,-120.60975609756099,22.195121951219512,-101.95121951219512,145,2
157,1.0673828125,-0.08642578125,-0.23486328125,-123.96341463414635,23.902439024390247,-105.91463414634147,145,2
158,1.10107421875,-0.07275390625,-0.12548828125,-129.02439024390245,26.34146341463415,-110.2439024390244,145,2
159,1.1318359375,-0.02783203125,-0.23876953125,-134.32926829268294,29.207317073170735,-115.54878048780489,145,2
160,1.13671875,-0.044921875,-0.21630859375,-138.2926829268293,30.975609756097565,-119.08536585365854,145,2
161,1.12158203125,-0.0712890625,-0.2216796875,-138.2317073170732,29.634146341463417,-123.17073170731709,145,2
162,1.1376953125,-0.041015625,-0.29541015625,-138.1707317073171,28.658536585365855,-128.0487804878049,145,2
163,1.171875,0.0146484375,-0.28173828125,-125.06097560975611,31.52439024390244,-133.71951219512195,145,2
164,1.232421875,0.0380859375,-0.29345703125,-142.8658536585366,32.07317073170732,-138.71951219512195,145,2
165,1.26416015625,0.03076171875,-0.31787109375,-144.87804878048783,32.5609756097561,-144.39024390243904,145,2
166,1.28515625,0.0263671875,-0.341796875,-145.4878048780488,33.109756097560975,-148.2926829268293,145,2
167,1.33837890625,0.07568359375,-0.34033203125,-146.82926829268294,31.58536585365854,-151.89024390243904,145,2
168,1.32861328125,0.05224609375,-0.25146484375,-150.4878048780488,33.29268292682927,-157.13414634146343,145,2
169,1.35595703125,0.05029296875,-0.421875,-152.13414634146343,34.268292682926834,-161.64634146341464,145,2
170,1.255859375,0.080078125,-0.42333984375,-153.2317073170732,34.93902439024391,-167.5609756097561,145,2
171,1.43603515625,0.14501953125,-0.44970703125,-157.01219512195124,36.768292682926834,-173.59756097560978,145,2
172,1.47021484375,0.1904296875,-0.4052734375,-162.01219512195124,42.5609756097561,-181.21951219512198,145,2
173,1.53515625,0.15625,-0.39501953125,-163.96341463414635,43.04878048780488,-185.97560975609758,145,2
174,1.548828125,0.0751953125,-0.39404296875,-163.109756097561,43.10975609756098,-191.95121951219514,145,2
175,1.58447265625,0.08935546875,-0.35205078125,-159.75609756097563,42.6829268292683,-196.82926829268294,145,2
176,1.63525390625,0.00048828125,-0.28955078125,-156.89024390243904,40.79268292682927,-201.34146341463418,145,2
177,1.6669921875,0.107421875,-0.26416015625,-157.6829268292683,41.58536585365854,-205.91463414634148,145,2
178,1.66748046875,0.00537109375,-0.2138671875,-159.02439024390245,44.57317073170732,-213.2317073170732,145,2
179,1.7412109375,0.14794921875,-0.208984375,-159.93902439024393,45.487804878048784,-203.41463414634148,145,2
180,1.7724609375,0.13671875,-0.18994140625,-158.84146341463415,45.36585365853659,-225.06097560975613,145,2
181,1.8037109375,0.14697265625,-0.17919921875,-156.89024390243904,31.280487804878053,-231.21951219512198,145,2
182,1.849609375,0.17724609375,-0.20263671875,-153.109756097561,44.024390243902445,-237.9878048780488,145,2
183,1.90576171875,0.24072265625,-0.22021484375,-150.4268292682927,45.670731707317074,-245.91463414634148,145,2
184,1.9326171875,0.25341796875,-0.162109375,-151.76829268292684,47.43902439024391,-251.95121951219514,145,2
185,1.92919921875,0.232421875,-0.14404296875,-151.28048780487805,48.04878048780488,-255.7317073170732,145,2
186,1.8974609375,0.2138671875,-0.11474609375,-148.90243902439025,49.085365853658544,-259.8170731707317,145,2
187,1.8759765625,0.2099609375,-0.1279296875,-146.89024390243904,52.6829268292683,-263.5975609756098,145,2
188,1.87744140625,0.26708984375,-0.123046875,-146.95121951219514,56.40243902439025,-267.3780487804878,145,2
189,1.888671875,0.2939453125,-0.11083984375,-150.2439024390244,46.82926829268293,-270.9146341463415,145,2
190,1.88916015625,0.3134765625,-0.080078125,-151.40243902439025,66.03658536585367,-274.26829268292687,145,2
191,1.8759765625,0.35009765625,-0.05029296875,-147.9268292682927,66.46341463414635,-278.719512195122,145,2
192,1.8896484375,0.35009765625,-0.0458984375,-144.63414634146343,66.40243902439025,-282.8048780487805,145,2
193,1.85595703125,0.36328125,0.04736328125,-141.89024390243904,68.29268292682927,-287.5,145,2
194,1.81201171875,0.36865234375,0.1015625,-138.65853658536585,65.67073170731707,-289.8780487804878,145,2
195,1.759765625,0.36474609375,0.1416015625,-134.20731707317074,65.91463414634147,-292.5609756097561,145,2
196,1.71826171875,0.38720703125,0.20654296875,-132.5609756097561,67.6219512195122,-294.20731707317077,145,2
197,1.6787109375,0.3837890625,0.20947265625,-132.13414634146343,70.91463414634147,-295.4268292682927,145,2
198,1.64306640625,0.36328125,0.21826171875,-126.58536585365854,73.59756097560977,-296.76829268292687,145,2
199,1.64794921875,0.3134765625,0.20263671875,-117.37804878048782,74.81707317073172,-297.01219512195127,145,2
200,1.63330078125,0.2744140625,0.05322265625,-110.91463414634147,78.90243902439025,-299.32926829268297,145,2
201,1.6240234375,0.27099609375,0.0703125,-103.84146341463415,83.29268292682927,-297.8658536585366,145,2
202,1.60595703125,0.25537109375,0.072265625,-97.07317073170732,87.43902439024392,-295.3658536585366,145,2
203,1.5185546875,0.2490234375,0.0166015625,-89.26829268292684,88.65853658536587,-291.6463414634147,145,2
204,1.376953125,0.064453125,0.02783203125,-93.65853658536587,88.53658536585367,-286.0365853658537,145,2
205,1.31396484375,0.09033203125,0.05126953125,-63.04878048780488,82.7439024390244,-281.4634146341464,145,2
206,1.26123046875,0.09912109375,0.083984375,-50.54878048780488,82.25609756097562,-277.3170731707317,145,2
207,1.2490234375,0.0693359375,0.1044921875,-44.69512195121952,80.79268292682927,-277.25609756097566,145,2
208,1.234375,0.0087890625,0.04736328125,-42.987804878048784,81.03658536585367,-276.4634146341464,145,2
209,1.15625,-0.08203125,0.1220703125,-41.890243902439025,79.81707317073172,-276.0975609756098,145,2
210,1.13427734375,-0.12060546875,-0.099609375,-38.963414634146346,73.78048780487805,-273.109756097561,145,2
211,1.0810546875,-0.19775390625,-0.0126953125,-38.90243902439025,74.93902439024392,-270.4878048780488,145,2
212,1.0009765625,-0.3076171875,0.03125,-41.768292682926834,74.51219512195122,-266.4024390243903,145,2
213,0.84130859375,-0.42431640625,0.072265625,-39.75609756097561,73.84146341463415,-259.32926829268297,145,2
214,0.6904296875,-0.47607421875,0.09375,-37.07317073170732,71.70731707317074,-251.64634146341464,145,2
215,0.5927734375,-0.4658203125,0.07568359375,-36.707317073170735,68.59756097560977,-243.96341463414637,145,2
216,0.5341796875,-0.4853515625,0.044921875,-41.58536585365854,70.91463414634147,-236.58536585365854,145,2
217,0.4677734375,-0.51416015625,0.0087890625,-45.91463414634147,72.6219512195122,-227.56097560975613,145,2
218,0.38671875,-0.59033203125,0.05224609375,-46.58536585365854,65.48780487804879,-216.95121951219514,145,2
219,0.32275390625,-0.66552734375,0.01123046875,-42.01219512195122,61.09756097560976,-208.71951219512198,145,2
220,0.2314453125,-0.78369140625,0.04443359375,-41.463414634146346,57.50000000000001,-197.19512195121953,145,2
221,0.0810546875,-0.88720703125,0.0830078125,-37.07317073170732,53.17073170731708,-183.90243902439025,145,2
222,-0.048828125,-0.97802734375,0.1669921875,-31.402439024390247,50.54878048780488,-186.82926829268294,145,2
223,-0.2119140625,-1.10302734375,0.17578125,-26.09756097560976,42.6829268292683,-153.0487804878049,145,2
224,-0.357421875,-1.244140625,0.08056640625,-19.512195121951223,34.63414634146342,-133.84146341463415,145,2
225,-0.4248046875,-1.27783203125,0.2216796875,-9.939024390243903,33.35365853658537,-114.57317073170732,145,2
226,-0.5185546875,-1.32080078125,0.25,-4.939024390243903,33.04878048780488,-108.96341463414635,145,2
227,-0.64404296875,-1.44384765625,0.3681640625,-5.548780487804878,34.57317073170732,-72.92682926829269,145,2
228,-0.72216796875,-1.630859375,0.31787109375,-3.5975609756097566,35.609756097560975,-48.29268292682927,145,2
229,-0.7822265625,-1.818359375,0.33984375,2.682926829268293,35.243902439024396,-23.902439024390247,145,2
230,-0.7744140625,-1.978515625,0.421875,14.329268292682928,35.0609756097561,-15.182926829268293,145,2
231,-0.73193359375,-2.09326171875,0.40673828125,27.865853658536587,31.76829268292683,23.84146341463415,145,2
232,-0.7099609375,-2.1728515625,0.294921875,39.146341463414636,28.658536585365855,45.97560975609756,145,2
233,-0.681640625,-2.27783203125,0.25732421875,49.51219512195122,25.792682926829272,68.29268292682927,145,2
234,-0.64892578125,-2.41845703125,0.31103515625,63.963414634146346,22.378048780487806,89.75609756097562,145,2
235,-0.583984375,-2.544921875,0.337890625,77.07317073170732,19.146341463414636,113.71951219512196,145,2
236,-0.47265625,-2.69580078125,0.26171875,87.43902439024392,17.134146341463417,139.87804878048783,145,2
237,-0.408203125,-2.87939453125,0.24267578125,95.91463414634147,14.939024390243905,171.52439024390245,145,2
238,-0.35107421875,-3.0986328125,0.02099609375,106.58536585365854,11.036585365853659,208.35365853658539,145,2
239,-0.296875,-3.150390625,0.0419921875,117.25609756097562,8.597560975609756,234.81707317073173,145,2
240,-0.26806640625,-3.48681640625,0.10595703125,123.71951219512196,5.7926829268292686,295.609756097561,145,2
241,-0.142578125,-3.65869140625,0.0458984375,129.8780487804878,2.1951219512195124,342.37804878048786,145,2
242,0.10546875,-3.82421875,-0.03759765625,138.96341463414635,0.12195121951219513,389.1463414634147,145,2
243,0.44189453125,-4.0849609375,-0.0625,149.51219512195124,-1.0975609756097562,435.4878048780488,145,2
244,0.80078125,-4.31591796875,-0.15771484375,165.7926829268293,1.9512195121951221,476.3414634146342,145,2
245,1.43115234375,-4.5263671875,-0.18212890625,185.7926829268293,0.3658536585365854,514.2682926829269,145,2
246,2.0634765625,-4.6494140625,-0.3427734375,210.6707317073171,-3.8414634146341466,532.3780487804878,145,2
247,2.69189453125,-4.9033203125,-0.59765625,236.95121951219514,-11.28048780487805,561.9512195121952,145,2
248,3.61474609375,-4.916015625,-0.83984375,268.3536585365854,-17.073170731707318,594.2682926829269,145,2
249,4.62158203125,-5.01220703125,-1.00146484375,303.5365853658537,-22.98780487804878,634.2682926829269,145,2
250,5.30322265625,-5.04052734375,-0.9541015625,348.2317073170732,-22.439024390243905,657.7439024390244,145,2
251,6.16845703125,-5.04833984375,-1.01513671875,393.9024390243903,-18.84146341463415,695.609756097561,145,2
252,7.0595703125,-5.17529296875,-1.40576171875,462.31707317073176,-0.24390243902439027,736.8902439024391,145,2
253,7.85009765625,-5.23291015625,-1.822265625,514.329268292683,35.670731707317074,769.329268292683,145,2
254,8.67138671875,-4.87060546875,-2.640625,549.3902439024391,61.34146341463415,800.9756097560976,145,2
255,9.302734375,-4.58544921875,-3.63232421875,586.3414634146342,74.57317073170732,834.0853658536586,145,2
256,10.1591796875,-4.22412109375,-4.9462890625,572.8658536585366,106.21951219512196,870.0000000000001,145,2
257,11.03759765625,-3.642578125,-5.91943359375,520.1829268292684,151.52439024390245,887.1951219512196,145,2
258,11.06396484375,-2.47265625,-6.62646484375,485.24390243902445,185.3048780487805,902.6829268292684,145,2
259,11.03857421875,-1.70068359375,-7.13330078125,509.63414634146346,111.58536585365854,935.0000000000001,145,2
260,10.00341796875,-2.078125,-7.43115234375,547.0731707317074,2.9268292682926833,942.3780487804879,145,2
261,8.2802734375,-3.33251953125,-7.728515625,684.939024390244,-185.1219512195122,895.3658536585367,145,2
262,6.92626953125,-4.4580078125,-7.4267578125,905.1829268292684,-412.13414634146346,842.1341463414635,145,2
263,5.78125,-5.57373046875,-7.65673828125,1149.6341463414635,-663.109756097561,721.2804878048781,145,2
264,5.89892578125,-6.076171875,-8.994140625,1392.8658536585367,-886.1585365853659,293.3536585365854,145,2
265,11.99951171875,2.51708984375,1.833984375,533.1707317073171,-89.20731707317074,524.5121951219512,145,2
266,-16.0,-12.20263671875,-7.2822265625,1935.548780487805,-740.6707317073171,225.00000000000003,145,2
267,12.9501953125,0.68017578125,-14.66455078125,1456.5853658536587,-376.4024390243903,-104.87804878048782,145,2
268,15.99951171875,4.408203125,4.5205078125,631.0365853658537,303.2317073170732,-42.19512195121951,145,2
269,-3.70556640625,-7.48828125,-0.92138671875,1431.2804878048782,-195.1829268292683,77.8658536585366,145,2
270,1.91015625,-3.7236328125,-2.4765625,942.5000000000001,59.81707317073171,-194.63414634146343,145,2
271,7.39404296875,-2.02587890625,-1.12109375,938.1707317073171,-21.890243902439025,-229.32926829268294,145,2
272,5.65380859375,-3.57080078125,-3.1904296875,880.0000000000001,-34.51219512195122,-353.109756097561,145,2
273,6.087890625,-2.7734375,-3.1435546875,785.3658536585367,-137.9878048780488,-461.219512195122,145,2
274,4.54443359375,-3.37890625,-4.91552734375,698.719512195122,-151.76829268292684,-585.6707317073171,145,2
275,3.8154296875,-3.0869140625,-4.73046875,536.1585365853659,-112.13414634146342,-655.1829268292684,145,2
276,2.341796875,-3.21630859375,-3.84033203125,394.51219512195127,-48.84146341463415,-712.9878048780488,145,2
277,1.412109375,-2.93310546875,-2.8515625,271.2804878048781,57.01219512195122,-752.5000000000001,145,2
278,0.8154296875,-2.5146484375,-2.02197265625,235.18292682926833,127.25609756097562,-772.9268292682927,145,2
279,0.29638671875,-2.466796875,-2.15087890625,226.76829268292684,213.84146341463418,-783.4756097560976,145,2
280,0.26123046875,-2.22314453125,-2.00146484375,241.58536585365854,263.2317073170732,-771.5243902439025,145,2
281,0.798828125,-1.57568359375,-1.4091796875,249.57317073170734,298.2317073170732,-757.3170731707318,145,2
282,0.60498046875,-1.65087890625,-0.71435546875,235.609756097561,363.719512195122,-745.4878048780488,145,2
283,0.95361328125,-1.67529296875,-0.30859375,198.90243902439025,394.39024390243907,-719.6951219512196,145,2
284,1.3740234375,-1.45068359375,-0.58154296875,147.7439024390244,397.01219512195127,-682.5000000000001,145,2
285,1.92041015625,-1.1142578125,-1.10009765625,84.81707317073172,397.19512195121956,-635.3658536585366,145,2
286,2.21484375,-0.76611328125,-1.34765625,23.963414634146343,392.62195121951225,-595.8536585365854,145,2
287,2.30078125,-0.9677734375,-1.08984375,-16.646341463414636,386.3414634146342,-562.2560975609756,145,2
288,2.07373046875,-1.267578125,-0.8818359375,-90.54878048780489,387.62195121951225,-540.4878048780488,145,2
289,1.9638671875,-1.2890625,-0.84619140625,-127.7439024390244,375.1829268292683,-511.3414634146342,145,2
290,1.76611328125,-1.1875,-0.7626953125,-174.51219512195124,394.81707317073176,-472.74390243902445,145,2
291,1.6240234375,-1.068359375,-0.98974609375,-187.8658536585366,405.5487804878049,-433.6585365853659,145,2
292,1.34814453125,-0.96875,-1.24560546875,-208.2926829268293,375.8536585365854,-398.8414634146342,145,2
293,1.26416015625,-0.81787109375,-1.29638671875,-207.01219512195124,360.8536585365854,-389.87804878048786,145,2
294,1.09130859375,-0.67236328125,-1.2431640625,-210.7926829268293,350.3048780487805,-354.0243902439025,145,2
295,0.90771484375,-0.587890625,-1.23828125,-220.3048780487805,345.609756097561,-335.00000000000006,145,2
296,0.798828125,-0.39013671875,-1.2109375,-229.87804878048783,332.5609756097561,-324.32926829268297,145,2
297,0.62646484375,-0.46240234375,-1.49267578125,-233.71951219512198,317.9878048780488,-315.3658536585366,145,2
298,0.64111328125,-0.44384765625,-1.57763671875,-229.75609756097563,304.32926829268297,-296.6463414634147,145,2
299,0.69287109375,-0.23583984375,-1.36669921875,-233.96341463414637,306.70731707317077,-271.5853658536586,145,2
300,0.36962890625,-0.40576171875,-1.25146484375,-236.89024390243904,292.25609756097566,-242.9268292682927,145,2
301,0.0341796875,-0.45263671875,-1.2919921875,-246.03658536585368,282.19512195121956,-221.46341463414637,145,2
302,-0.162109375,-0.2392578125,-1.2294921875,-235.7317073170732,261.0365853658537,-199.51219512195124,145,2
303,-0.40869140625,-0.4814453125,-1.1044921875,-238.84146341463418,242.9268292682927,-180.609756097561,145,2
304,-0.56396484375,-0.39794921875,-1.03271484375,-240.24390243902442,234.32926829268294,-160.6707317073171,145,2
305,-0.78857421875,-0.5712890625,-1.21142578125,-244.81707317073173,214.75609756097563,-145.7926829268293,145,2
306,-0.68798828125,-0.61328125,-1.31787109375,-220.12195121951223,192.01219512195124,-136.76829268292684,145,2
307,-0.69140625,-0.4375,-1.0390625,-201.52439024390245,172.01219512195124,-132.9878048780488,145,2
308,-0.68017578125,-0.31884765625,-0.88623046875,-201.70731707317074,164.75609756097563,-122.8658536585366,145,2
309,-0.67041015625,-0.2265625,-0.85791015625,-215.7926829268293,163.59756097560978,-105.3048780487805,145,2
310,-0.77685546875,-0.248046875,-0.919921875,-226.95121951219514,160.4878048780488,-85.1829268292683,145,2
311,-0.94775390625,-0.32275390625,-1.16748046875,-216.15853658536588,149.93902439024393,-70.79268292682927,145,2
312,-1.02197265625,-0.33349609375,-1.1318359375,-193.1707317073171,132.4390243902439,-61.707317073170735,145,2
313,-1.06396484375,-0.2294921875,-1.1279296875,-187.07317073170734,112.07317073170732,-55.67073170731708,145,2
314,-1.0390625,-0.078125,-1.11328125,-154.02439024390245,97.07317073170732,-48.71951219512196,145,2
315,-1.06005859375,-0.0625,-1.15673828125,-145.0609756097561,83.10975609756099,-38.170731707317074,145,2
316,-1.17822265625,-0.091796875,-1.150390625,-132.25609756097563,69.81707317073172,-27.25609756097561,145,2
317,-1.2998046875,-0.22021484375,-1.02294921875,-116.03658536585367,57.743902439024396,-16.28048780487805,145,2
318,-1.4306640625,-0.26416015625,-0.8876953125,-107.19512195121952,44.63414634146342,-6.707317073170732,145,2
319,-1.44580078125,-0.23193359375,-0.99951171875,-100.1829268292683,33.78048780487805,3.1707317073170733,145,2
320,-1.43896484375,-0.16357421875,-0.92919921875,-91.64634146341464,19.878048780487806,12.500000000000002,145,2
321,-1.4208984375,-0.087890625,-0.97509765625,-80.97560975609757,3.9024390243902443,20.0609756097561,145,2
322,-1.37646484375,-0.029296875,-0.96923828125,-67.6829268292683,-10.548780487804878,26.34146341463415,145,2
323,-1.35302734375,-0.01123046875,-0.89697265625,-56.463414634146346,-23.475609756097562,32.5609756097561,145,2
324,-1.322265625,0.12060546875,-0.85400390625,-45.426829268292686,-36.463414634146346,38.90243902439025,145,2
325,-1.3095703125,0.029296875,-0.85205078125,-34.87804878048781,-50.1219512195122,43.04878048780488,145,2
326,-1.2861328125,0.103515625,-0.82177734375,-21.82926829268293,-61.463414634146346,46.03658536585366,145,2
327,-1.248046875,0.13671875,-0.7021484375,-14.02439024390244,-69.93902439024392,49.207317073170735,145,2
328,-1.2177734375,0.18359375,-0.58984375,-10.365853658536587,-77.19512195121952,51.951219512195124,145,2
329,-1.19873046875,0.19189453125,-0.5205078125,-8.109756097560977,-83.41463414634147,54.57317073170732,145,2
330,-1.15673828125,0.2412109375,-0.5263671875,-5.3048780487804885,-91.21951219512196,56.463414634146346,145,2
331,-1.24755859375,0.25634765625,-0.52734375,-0.6097560975609757,-97.6219512195122,57.926829268292686,145,2
332,-1.12255859375,0.2373046875,-0.47705078125,5.2439024390243905,-104.45121951219514,58.963414634146346,145,2
333,-1.10986328125,0.23388671875,-0.4267578125,12.74390243902439,-110.1219512195122,58.90243902439025,145,2
334,-1.09423828125,0.2080078125,-0.3662109375,17.31707317073171,-112.31707317073172,59.146341463414636,145,2
335,-1.076171875,0.2255859375,-0.32373046875,21.097560975609756,-116.70731707317074,59.63414634146342,145,2
336,-1.06103515625,0.2373046875,-0.298828125,26.03658536585366,-121.40243902439025,60.304878048780495,145,2
337,-1.0517578125,0.12744140625,-0.265625,32.743902439024396,-126.70731707317074,60.60975609756098,145,2
338,-1.04443359375,0.25439453125,-0.22216796875,37.31707317073171,-130.6707317073171,61.40243902439025,145,2
339,-1.03173828125,0.2763671875,-0.19775390625,41.707317073170735,-134.51219512195124,61.03658536585366,145,2
340,-1.015625,0.28515625,-0.158203125,44.024390243902445,-135.3658536585366,60.00000000000001,145,2
341,-1.01708984375,0.3125,-0.10595703125,46.34146341463415,-137.9268292682927,59.57317073170732,145,2
342,-1.00830078125,0.31591796875,-0.09326171875,47.19512195121952,-139.51219512195124,60.00000000000001,145,2
343,-1.02099609375,0.3173828125,-0.0703125,48.41463414634147,-140.0609756097561,58.41463414634147,145,2
344,-1.00146484375,0.3154296875,-0.06201171875,49.146341463414636,-142.4390243902439,59.207317073170735,145,2
345,-0.99609375,0.31640625,-0.04833984375,50.304878048780495,-144.26829268292684,59.51219512195122,145,2
346,-0.95703125,0.3310546875,-0.02001953125,49.57317073170732,-145.6707317073171,59.51219512195122,145,2
347,-0.89697265625,0.34619140625,-0.00439453125,49.207317073170735,-147.19512195121953,60.60975609756098,145,2
348,-0.8701171875,0.34130859375,0.03466796875,49.69512195121952,-149.69512195121953,61.768292682926834,145,2
349,-0.857421875,0.32958984375,0.08984375,52.987804878048784,-150.7926829268293,62.01219512195122,145,2
350,-0.8203125,0.31884765625,0.15673828125,57.25609756097561,-151.58536585365854,60.67073170731708,145,2
351,-0.77685546875,0.34033203125,0.1904296875,59.81707317073171,-150.2439024390244,59.024390243902445,145,2
352,-0.728515625,0.25390625,0.18994140625,46.82926829268293,-150.7317073170732,58.35365853658537,145,2
353,-0.7021484375,0.39453125,0.2265625,65.48780487804879,-153.96341463414635,58.10975609756098,145,2
354,-0.74072265625,0.3681640625,0.2646484375,69.32926829268293,-154.51219512195124,57.07317073170732,145,2
355,-0.62548828125,0.35009765625,0.28564453125,72.8658536585366,-153.2317073170732,55.73170731707317,145,2
356,-0.73828125,0.37939453125,0.2880859375,73.71951219512195,-150.97560975609758,53.59756097560976,145,2
357,-0.70361328125,0.40625,0.2998046875,72.6829268292683,-147.8048780487805,53.17073170731708,145,2
358,-0.681640625,0.4189453125,0.27978515625,69.51219512195122,-145.4878048780488,54.085365853658544,145,2
359,-0.68701171875,0.41455078125,0.3017578125,71.52439024390245,-148.59756097560978,55.60975609756098,145,2
360,-0.7294921875,0.251953125,0.29150390625,73.53658536585367,-149.20731707317074,55.00000000000001,145,2
361,-0.7216796875,0.3779296875,0.31689453125,76.40243902439025,-150.5487804878049,55.73170731707317,145,2
362,-0.68896484375,0.390625,0.34228515625,78.53658536585367,-150.6707317073171,56.15853658536586,145,2
363,-0.65576171875,0.41015625,0.38916015625,77.5609756097561,-148.90243902439025,57.25609756097561,145,2
364,-0.623046875,0.40185546875,0.4189453125,74.14634146341464,-145.97560975609758,58.35365853658537,145,2
365,-0.6259765625,0.396484375,0.40087890625,71.52439024390245,-142.6219512195122,59.57317073170732,145,2
366,-0.61865234375,0.40771484375,0.38623046875,68.65853658536587,-138.90243902439025,60.54878048780488,145,2
367,-0.583984375,0.43798828125,0.39306640625,66.21951219512195,-136.40243902439025,46.89024390243903,145,2
368,-0.54931640625,0.44091796875,0.37060546875,63.10975609756098,-135.3048780487805,65.1829268292683,145,2
369,-0.53662109375,0.41259765625,0.34521484375,59.451219512195124,-136.21951219512195,67.43902439024392,145,2
370,-0.55859375,0.49560546875,0.37841796875,58.53658536585366,-136.52439024390245,69.32926829268293,145,2
371,-0.54296875,0.3759765625,0.416015625,60.67073170731708,-136.89024390243904,71.40243902439025,145,2
372,-0.5009765625,0.388671875,0.41259765625,46.951219512195124,-137.8048780487805,73.96341463414635,145,2
373,-0.46630859375,0.40234375,0.4013671875,61.28048780487806,-136.64634146341464,74.63414634146342,145,2
374,-0.41796875,0.41552734375,0.4013671875,58.84146341463415,-135.91463414634148,75.73170731707317,145,2
375,-0.37939453125,0.45166015625,0.4189453125,56.585365853658544,-134.51219512195124,76.52439024390245,145,2
376,-0.341796875,0.462890625,0.44287109375,54.085365853658544,-133.84146341463415,77.5609756097561,145,2
377,-0.34033203125,0.45068359375,0.43896484375,50.91463414634147,-132.7439024390244,79.02439024390245,145,2
378,-0.337890625,0.4365234375,0.4267578125,49.57317073170732,-132.25609756097563,80.2439024390244,145,2
379,-0.33154296875,0.43603515625,0.39892578125,50.00000000000001,-132.37804878048783,81.46341463414635,145,2
380,-0.3115234375,0.4541015625,0.3837890625,50.85365853658537,-133.47560975609758,83.23170731707317,145,2
381,-0.26611328125,0.48291015625,0.396484375,49.268292682926834,-134.63414634146343,85.42682926829269,145,2
382,-0.22900390625,0.513671875,0.4111328125,45.73170731707317,-134.32926829268294,86.34146341463415,145,2
383,-0.21142578125,0.54052734375,0.43701171875,41.21951219512196,-132.9878048780488,87.8658536585366,145,2
384,-0.17333984375,0.5673828125,0.4521484375,37.07317073170732,-131.52439024390245,88.84146341463415,145,2
385,-0.14892578125,0.583984375,0.46630859375,34.390243902439025,-131.76829268292684,90.85365853658537,145,2
386,-0.130859375,0.56640625,0.4990234375,33.170731707317074,-131.70731707317074,92.13414634146342,145,2
387,-0.1103515625,0.54736328125,0.48974609375,33.84146341463415,-132.07317073170734,93.47560975609757,145,2
388,-0.06982421875,0.56201171875,0.4599609375,36.34146341463415,-133.65853658536585,94.75609756097562,145,2
389,-0.0283203125,0.55859375,0.4482421875,36.82926829268293,-133.35365853658539,95.97560975609757,145,2
390,0.0146484375,0.58984375,0.4384765625,34.93902439024391,-130.1219512195122,96.28048780487806,145,2
391,0.08740234375,0.6220703125,0.4287109375,31.951219512195124,-127.92682926829269,96.40243902439025,145,2
392,0.11328125,0.6435546875,0.46337890625,29.81707317073171,-126.28048780487806,95.2439024390244,145,2
393,0.13037109375,0.63720703125,0.47509765625,30.0609756097561,-126.03658536585367,95.91463414634147,145,2
394,0.13134765625,0.6240234375,0.4873046875,31.58536585365854,-126.21951219512196,96.76829268292684,145,2
395,0.123046875,0.61474609375,0.48193359375,32.86585365853659,-126.09756097560977,95.60975609756099,145,2
396,0.1220703125,0.62744140625,0.4990234375,33.963414634146346,-125.48780487804879,95.0609756097561,145,2
397,0.1484375,0.654296875,0.5185546875,34.81707317073171,-109.32926829268294,95.00000000000001,145,2
398,0.1650390625,0.666015625,0.50927734375,37.01219512195122,-126.34146341463416,97.5609756097561,145,2
399,0.1640625,0.66455078125,0.490234375,36.951219512195124,-125.79268292682927,97.19512195121952,145,2
400,0.177734375,0.68017578125,0.48974609375,34.207317073170735,-124.81707317073172,98.53658536585367,145,2
401,0.2158203125,0.71044921875,0.4833984375,29.26829268292683,-123.47560975609757,99.63414634146342,145,2
402,0.24658203125,0.7353515625,0.49853515625,23.10975609756098,-121.82926829268294,98.90243902439025,145,2
403,0.27490234375,0.74169921875,0.509765625,18.353658536585368,-120.91463414634147,99.75609756097562,145,2
404,0.26025390625,0.71044921875,0.51953125,17.743902439024392,-121.03658536585367,98.71951219512196,145,2
405,0.26025390625,0.68994140625,0.54345703125,21.28048780487805,-121.46341463414635,97.92682926829269,145,2
406,0.27490234375,0.67578125,0.5263671875,24.451219512195124,-121.64634146341464,99.08536585365854,145,2
407,0.3076171875,0.7001953125,0.50439453125,28.658536585365855,-123.65853658536587,99.69512195121952,145,2
408,0.31884765625,0.7021484375,0.43603515625,15.670731707317074,-125.48780487804879,100.67073170731709,145,2
409,0.3466796875,0.71484375,0.416015625,29.08536585365854,-140.4268292682927,100.00000000000001,145,2
410,0.392578125,0.724609375,0.4140625,24.451219512195124,-122.8048780487805,97.98780487804879,145,2
411,0.43017578125,0.7705078125,0.4130859375,19.02439024390244,-119.57317073170732,96.64634146341464,145,2
412,0.443359375,0.79638671875,0.42041015625,12.865853658536587,-116.64634146341464,94.14634146341464,145,2
413,0.46044921875,0.796875,0.43896484375,8.902439024390244,-115.2439024390244,108.96341463414635,145,2
414,0.447265625,0.7705078125,0.4658203125,9.390243902439025,-116.95121951219514,94.14634146341464,145,2
415,0.41357421875,0.72021484375,0.458984375,14.26829268292683,-117.8048780487805,94.20731707317074,145,2
416,0.41650390625,0.70263671875,0.453125,20.365853658536587,-119.14634146341464,95.00000000000001,145,2
417,0.44287109375,0.6962890625,0.41064453125,27.682926829268297,-121.28048780487806,95.1219512195122,145,2
418,0.46875,0.6884765625,0.34326171875,30.670731707317074,-122.6829268292683,97.19512195121952,145,2
419,0.45166015625,0.63671875,0.2802734375,24.81707317073171,-119.45121951219514,95.97560975609757,145,2
420,0.5009765625,0.65576171875,0.28955078125,17.926829268292686,-113.65853658536587,78.17073170731707,145,2
421,0.55712890625,0.70849609375,0.31689453125,12.01219512195122,-109.51219512195122,92.8658536585366,145,2
422,0.60498046875,0.724609375,0.310546875,7.500000000000001,-107.37804878048782,94.20731707317074,145,2
423,0.60205078125,0.6728515625,0.29736328125,4.695121951219512,-106.89024390243904,95.0609756097561,145,2
424,0.57373046875,0.64990234375,0.3232421875,5.3048780487804885,-107.56097560975611,95.3048780487805,145,2
425,0.57470703125,0.6455078125,0.345703125,9.329268292682928,-109.02439024390245,95.3048780487805,145,2
426,0.57421875,0.63037109375,0.3154296875,14.26829268292683,-112.6829268292683,96.40243902439025,145,2
427,0.54736328125,0.58544921875,0.259765625,19.32926829268293,-117.7439024390244,98.35365853658537,145,2
428,0.51416015625,0.55712890625,0.21728515625,21.707317073170735,-118.71951219512196,99.93902439024392,145,2
429,0.5341796875,0.52685546875,0.21142578125,17.98780487804878,-114.32926829268294,97.25609756097562,145,2
430,0.62109375,0.56201171875,0.220703125,9.634146341463415,-107.25609756097562,96.28048780487806,145,2
431,0.69580078125,0.623046875,0.22119140625,1.1585365853658538,-100.73170731707317,94.45121951219512,145,2
432,0.7333984375,0.650390625,0.22119140625,-5.731707317073171,-96.52439024390245,93.78048780487806,145,2
433,0.7265625,0.60693359375,0.20751953125,-8.597560975609756,-94.57317073170732,92.6829268292683,145,2
434,0.71240234375,0.57373046875,0.212890625,-7.560975609756098,-94.14634146341464,91.21951219512196,145,2
435,0.70556640625,0.54150390625,0.20068359375,-3.536585365853659,-95.79268292682927,90.3658536585366,145,2
436,0.70458984375,0.51953125,0.17724609375,0.5487804878048781,-96.82926829268294,89.45121951219512,145,2
437,0.6875,0.5146484375,0.17822265625,5.0,-99.26829268292684,90.3048780487805,145,2
438,0.67138671875,0.47998046875,0.15966796875,9.451219512195122,-101.58536585365854,91.89024390243904,145,2
439,0.64501953125,0.43798828125,0.10888671875,10.853658536585368,-101.89024390243904,92.50000000000001,145,2
440,0.6748046875,0.4453125,0.2490234375,12.195121951219512,-101.95121951219512,91.64634146341464,145,2
441,0.72509765625,0.46875,0.1533203125,11.829268292682928,-98.53658536585367,89.81707317073172,145,2
442,0.78271484375,0.4892578125,0.14501953125,7.500000000000001,-109.20731707317074,87.5609756097561,145,2
443,0.8056640625,0.6201171875,0.13037109375,1.4634146341463417,-87.6829268292683,85.73170731707317,145,2
444,0.826171875,0.49267578125,0.13427734375,-2.8658536585365857,-84.75609756097562,82.8658536585366,145,2
445,0.83056640625,0.46142578125,0.12841796875,-3.2926829268292686,-81.28048780487805,79.93902439024392,145,2
446,0.814453125,0.42333984375,0.11328125,-1.7682926829268295,-79.87804878048782,78.23170731707317,145,2
447,0.78955078125,0.40966796875,0.07568359375,1.3414634146341464,-80.60975609756099,77.8048780487805,145,2
448,0.74072265625,0.37548828125,0.07861328125,5.365853658536586,-81.95121951219512,77.92682926829269,145,2
449,0.70703125,0.34716796875,0.05078125,9.26829268292683,-81.58536585365854,77.8048780487805,145,2
450,0.6962890625,0.33251953125,0.0361328125,10.30487804878049,-78.35365853658537,75.91463414634147,145,2
451,0.7392578125,0.35986328125,0.06103515625,8.963414634146343,-73.29268292682927,75.3048780487805,145,2
452,0.75830078125,0.41064453125,0.05859375,4.634146341463415,-67.8048780487805,74.63414634146342,145,2
453,0.79443359375,0.41259765625,0.03466796875,-1.2804878048780488,-62.865853658536594,73.84146341463415,145,2
454,0.79931640625,0.3974609375,0.03564453125,-4.878048780487806,-59.93902439024391,72.31707317073172,145,2
455,0.8203125,0.37841796875,0.04833984375,-4.75609756097561,-56.89024390243903,69.26829268292684,145,2
456,0.8427734375,0.37451171875,0.05517578125,-3.8414634146341466,-52.86585365853659,65.2439024390244,145,2
457,0.853515625,0.49853515625,0.0302734375,-3.658536585365854,-50.00000000000001,61.768292682926834,145,2
458,0.830078125,0.37109375,-0.044921875,-3.963414634146342,-48.04878048780488,58.71951219512196,145,2
459,0.8193359375,0.3671875,-0.05615234375,-3.4756097560975614,-46.09756097560976,55.97560975609757,145,2
460,0.833984375,0.3720703125,-0.06201171875,-2.9268292682926833,-44.32926829268293,54.207317073170735,145,2
461,0.84423828125,0.25244140625,-0.03564453125,-3.658536585365854,-42.50000000000001,51.768292682926834,145,2
462,0.8466796875,0.361328125,-0.046875,-5.2439024390243905,-40.1829268292683,49.207317073170735,145,2
463,0.8505859375,0.3642578125,-0.03125,-6.585365853658537,-37.5609756097561,46.15853658536586,145,2
464,0.857421875,0.36328125,-0.02587890625,-8.170731707317074,-35.0,43.29268292682927,145,2
465,0.8505859375,0.3603515625,-0.0224609375,-10.853658536585368,-31.646341463414636,40.1829268292683,145,2
466,0.8515625,0.3662109375,-0.01953125,-12.378048780487806,-28.963414634146343,37.5609756097561,145,2
467,0.85107421875,0.36376953125,-0.02197265625,-12.987804878048781,-26.76829268292683,35.0,145,2
468,0.849609375,0.3544921875,-0.02734375,-12.926829268292684,-25.0609756097561,32.80487804878049,145,2
469,0.833984375,0.353515625,-0.0537109375,-14.02439024390244,-22.80487804878049,29.939024390243905,145,2
470,0.83544921875,0.35498046875,-0.068359375,-14.451219512195124,-21.585365853658537,27.743902439024392,145,2
471,0.8359375,0.35107421875,-0.08203125,-15.79268292682927,-19.451219512195124,24.634146341463417,145,2
472,0.826171875,0.35205078125,-0.078125,-17.25609756097561,-16.76829268292683,21.463414634146343,145,2
473,0.8349609375,0.34765625,-0.0625,-18.231707317073173,-14.695121951219514,18.84146341463415,145,2
474,0.82177734375,0.34326171875,-0.0634765625,-19.146341463414636,-12.317073170731708,15.853658536585368,145,2
475,0.80126953125,0.32763671875,-0.07470703125,-20.0,-9.573170731707318,13.414634146341465,145,2
476,0.796875,0.3203125,-0.06982421875,-20.0609756097561,-7.073170731707318,10.853658536585368,145,2
477,0.794921875,0.31982421875,-0.072265625,-21.28048780487805,-4.390243902439025,8.414634146341465,145,2
478,0.7958984375,0.30859375,-0.07373046875,-22.31707317073171,-1.707317073170732,6.097560975609756,145,2
479,0.7763671875,0.31396484375,-0.08984375,-23.53658536585366,0.7926829268292683,3.9024390243902443,145,2
480,0.77392578125,0.296875,-0.095703125,-23.719512195121954,2.378048780487805,1.8902439024390245,145,2
481,0.7685546875,0.29052734375,-0.1201171875,-23.719512195121954,3.231707317073171,-0.1829268292682927,145,2
482,0.76904296875,0.28564453125,-0.12744140625,-23.658536585365855,4.024390243902439,-2.682926829268293,145,2
483,0.76123046875,0.28759765625,-0.138671875,-23.04878048780488,4.51219512195122,-4.207317073170732,145,2
484,0.77294921875,0.29150390625,-0.13037109375,-23.475609756097562,5.426829268292684,-6.52439024390244,145,2
485,0.76806640625,0.2880859375,-0.24755859375,-24.451219512195124,6.341463414634147,-8.475609756097562,145,2
486,0.765625,0.27880859375,-0.12353515625,-24.878048780487806,7.378048780487806,-9.756097560975611,145,2
487,0.76611328125,0.26611328125,-0.10595703125,-24.939024390243905,8.048780487804878,-11.646341463414634,145,2
488,0.76318359375,0.259765625,-0.10595703125,-24.451219512195124,8.963414634146343,-12.74390243902439,145,2
489,0.75048828125,0.2412109375,-0.10107421875,-24.573170731707318,10.24390243902439,-14.085365853658537,145,2
490,0.7392578125,0.22705078125,-0.10693359375,-24.81707317073171,10.670731707317074,-14.939024390243905,145,2
491,0.728515625,0.2080078125,-0.12451171875,-23.963414634146343,10.792682926829269,-0.12195121951219513,145,2
492,0.72314453125,0.20703125,-0.13623046875,-23.53658536585366,10.060975609756099,-16.158536585365855,145,2
493,0.72998046875,0.201171875,-0.13525390625,-23.475609756097562,10.487804878048781,-16.646341463414636,145,2
494,0.73486328125,0.19482421875,-0.1298828125,-24.085365853658537,11.341463414634147,-17.134146341463417,145,2
495,0.73583984375,0.189453125,-0.1357421875,-25.48780487804878,12.80487804878049,-17.5609756097561,145,2
496,0.73486328125,0.1845703125,-0.13330078125,-27.500000000000004,14.817073170731708,-17.5609756097561,145,2
497,0.73291015625,0.17626953125,-0.13134765625,-29.451219512195124,16.28048780487805,-17.5609756097561,145,2
498,0.720703125,0.1728515625,-0.115234375,-30.121951219512198,17.31707317073171,-17.195121951219512,145,2
499,0.70947265625,0.146484375,-0.115234375,-30.121951219512198,18.10975609756098,-16.890243902439025,145,2
