,Ax,Ay,Az,Gx,Gy,Gz,distance,shot_type
0,0.70361328125,-0.5234375,-0.26318359375,0.30487804878048785,11.097560975609756,2.25609756097561,140,4
1,0.70751953125,-0.5380859375,-0.26416015625,-0.426829268292683,11.951219512195124,2.1341463414634148,140,4
2,0.69287109375,-0.537109375,-0.251953125,-0.06097560975609757,11.646341463414634,1.829268292682927,140,4
3,0.6865234375,-0.552734375,-0.23828125,1.8902439024390245,10.0,1.402439024390244,140,4
4,0.68798828125,-0.54931640625,-0.234375,4.085365853658537,8.353658536585366,1.0975609756097562,140,4
5,0.68408203125,-0.5439453125,-0.2265625,5.548780487804878,7.682926829268293,0.853658536585366,140,4
6,0.66943359375,-0.53662109375,-0.22412109375,5.7926829268292686,6.951219512195123,0.48780487804878053,140,4
7,0.67236328125,-0.533203125,-0.21826171875,6.646341463414635,6.707317073170732,0.1829268292682927,140,4
8,0.67822265625,-0.5234375,-0.20849609375,6.890243902439025,6.707317073170732,-0.12195121951219513,140,4
9,0.673828125,-0.52099609375,-0.19921875,6.829268292682928,7.073170731707318,-0.06097560975609757,140,4
10,0.67138671875,-0.5126953125,-0.20166015625,7.073170731707318,7.865853658536586,0.24390243902439027,140,4
11,0.669921875,-0.51318359375,-0.2119140625,6.402439024390245,9.390243902439025,0.6097560975609757,140,4
12,0.673828125,-0.5068359375,-0.2177734375,4.878048780487806,11.28048780487805,1.2804878048780488,140,4
13,0.66748046875,-0.51416015625,-0.216796875,3.4756097560975614,12.926829268292684,2.0121951219512195,140,4
14,0.65283203125,-0.53173828125,-0.2080078125,2.5609756097560976,14.878048780487806,2.9268292682926833,140,4
15,0.6474609375,-0.5400390625,-0.20458984375,0.7926829268292683,17.439024390243905,3.8414634146341466,140,4
16,0.6630859375,-0.5166015625,-0.18798828125,0.3658536585365854,20.54878048780488,5.121951219512195,140,4
17,0.65625,-0.54833984375,-0.17236328125,-0.6097560975609757,23.04878048780488,6.829268292682928,140,4
18,0.66650390625,-0.544921875,-0.169921875,-1.4634146341463417,26.28048780487805,7.865853658536586,140,4
19,0.66943359375,-0.52587890625,-0.1767578125,-3.7195121951219514,29.26829268292683,9.207317073170733,140,4
20,0.701171875,-0.501953125,-0.1787109375,-3.8414634146341466,29.451219512195124,8.841463414634147,140,4
21,0.70654296875,-0.51611328125,-0.2119140625,-1.829268292682927,26.03658536585366,8.414634146341465,140,4
22,0.70751953125,-0.48828125,-0.2724609375,1.3414634146341464,21.402439024390247,8.292682926829269,140,4
23,0.7109375,-0.478515625,-0.341796875,2.682926829268293,17.98780487804878,7.926829268292684,140,4
24,0.71826171875,-0.4677734375,-0.34033203125,4.329268292682928,14.695121951219514,6.52439024390244,140,4
25,0.72607421875,-0.466796875,-0.3388671875,4.817073170731708,12.560975609756099,4.939024390243903,140,4
26,0.73583984375,-0.47607421875,-0.34228515625,2.9268292682926833,12.256097560975611,3.5975609756097566,140,4
27,0.740234375,-0.46923828125,-0.326171875,0.853658536585366,13.231707317073171,2.439024390243903,140,4
28,0.7197265625,-0.49658203125,-0.27734375,-1.8902439024390245,14.26829268292683,1.3414634146341464,140,4
29,0.7138671875,-0.50634765625,-0.1318359375,-2.073170731707317,14.146341463414636,0.48780487804878053,140,4
30,0.70263671875,-0.51025390625,-0.236328125,-1.8902439024390245,13.109756097560977,0.48780487804878053,140,4
31,0.67724609375,-0.52880859375,-0.23876953125,-0.3658536585365854,11.158536585365855,1.0365853658536586,140,4
32,0.615234375,-0.587890625,-0.234375,3.1707317073170733,9.146341463414634,2.073170731707317,140,4
33,0.6015625,-0.59130859375,-0.2099609375,6.829268292682928,8.170731707317074,2.804878048780488,140,4
34,0.61474609375,-0.5810546875,-0.1865234375,8.536585365853659,9.634146341463415,3.048780487804878,140,4
35,0.62939453125,-0.552734375,-0.193359375,8.475609756097562,11.28048780487805,3.2926829268292686,140,4
36,0.615234375,-0.5537109375,-0.22119140625,6.890243902439025,12.195121951219512,3.780487804878049,140,4
37,0.60498046875,-0.55615234375,-0.24365234375,4.451219512195122,14.329268292682928,4.451219512195122,140,4
38,0.6240234375,-0.5537109375,-0.22021484375,1.3414634146341464,16.890243902439025,4.75609756097561,140,4
39,0.640625,-0.56103515625,-0.20068359375,-1.6463414634146343,18.902439024390244,5.182926829268293,140,4
40,0.64501953125,-0.5703125,-0.2109375,-2.8658536585365857,20.182926829268293,4.75609756097561,140,4
41,0.64599609375,-0.5771484375,-0.205078125,-3.353658536585366,20.0,4.51219512195122,140,4
42,0.65576171875,-0.564453125,-0.20849609375,-3.963414634146342,19.26829268292683,4.2682926829268295,140,4
43,0.65478515625,-0.560546875,-0.169921875,-3.048780487804878,18.10975609756098,3.536585365853659,140,4
44,0.65966796875,-0.5576171875,-0.1455078125,-1.524390243902439,16.03658536585366,3.231707317073171,140,4
45,0.68115234375,-0.55712890625,-0.13720703125,0.7926829268292683,13.841463414634148,3.1707317073170733,140,4
46,0.66552734375,-0.55029296875,-0.1474609375,4.207317073170732,11.76829268292683,3.5975609756097566,140,4
47,0.64013671875,-0.57666015625,-0.1396484375,6.7682926829268295,9.695121951219512,4.634146341463415,140,4
48,0.65771484375,-0.5634765625,-0.150390625,8.353658536585366,9.146341463414634,4.329268292682928,140,4
49,0.65625,-0.5361328125,-0.14404296875,9.573170731707318,9.451219512195122,4.634146341463415,140,4
50,0.67333984375,-0.52734375,-0.14794921875,9.756097560975611,10.0,5.121951219512195,140,4
51,0.6748046875,-0.5224609375,-0.16650390625,9.390243902439025,11.036585365853659,4.695121951219512,140,4
52,0.67529296875,-0.50830078125,-0.1748046875,9.817073170731708,11.890243902439025,4.451219512195122,140,4
53,0.6826171875,-0.52001953125,-0.16015625,8.597560975609756,14.207317073170733,4.51219512195122,140,4
54,0.677734375,-0.517578125,-0.14453125,7.560975609756098,16.463414634146343,4.024390243902439,140,4
55,0.68798828125,-0.51513671875,-0.1142578125,7.01219512195122,17.743902439024392,3.536585365853659,140,4
56,0.69189453125,-0.5146484375,-0.1318359375,5.548780487804878,17.621951219512198,4.2682926829268295,140,4
57,0.6728515625,-0.5244140625,-0.1669921875,4.207317073170732,18.719512195121954,5.060975609756098,140,4
58,0.66845703125,-0.5361328125,-0.16748046875,1.829268292682927,21.219512195121954,6.097560975609756,140,4
59,0.6669921875,-0.5283203125,-0.14208984375,-0.5487804878048781,24.390243902439025,7.195121951219513,140,4
60,0.67529296875,-0.54443359375,-0.2470703125,-3.231707317073171,27.500000000000004,8.536585365853659,140,4
61,0.67138671875,-0.5517578125,-0.12353515625,-6.829268292682928,30.487804878048784,10.24390243902439,140,4
62,0.66455078125,-0.55078125,-0.1171875,-8.841463414634147,33.29268292682927,12.073170731707318,140,4
63,0.64501953125,-0.59033203125,-0.2470703125,-11.341463414634147,35.0,14.695121951219514,140,4
64,0.65087890625,-0.58642578125,-0.13330078125,-11.951219512195124,36.524390243902445,14.390243902439027,140,4
65,0.67236328125,-0.5810546875,-0.08203125,-11.707317073170733,39.81707317073171,15.731707317073171,140,4
66,0.68212890625,-0.5888671875,-0.0576171875,-12.073170731707318,43.59756097560976,15.914634146341465,140,4
67,0.69921875,-0.578125,-0.04736328125,-11.463414634146343,46.58536585365854,15.121951219512196,140,4
68,0.673828125,-0.5849609375,-0.052734375,-9.329268292682928,62.37804878048781,15.182926829268293,140,4
69,0.65673828125,-0.58544921875,-0.04541015625,-5.731707317073171,46.707317073170735,15.060975609756099,140,4
70,0.6689453125,-0.56884765625,-0.01953125,-3.8414634146341466,48.59756097560976,14.390243902439027,140,4
71,0.70263671875,-0.5458984375,-0.0390625,-5.731707317073171,50.36585365853659,13.841463414634148,140,4
72,0.6865234375,-0.53369140625,-0.10107421875,-7.134146341463415,48.963414634146346,12.865853658536587,140,4
73,0.6953125,-0.52880859375,-0.1044921875,-6.219512195121951,49.32926829268293,11.76829268292683,140,4
74,0.7158203125,-0.53857421875,-0.09228515625,-4.695121951219512,48.10975609756098,10.365853658536587,140,4
75,0.69287109375,-0.59326171875,-0.09375,-2.1951219512195124,45.670731707317074,9.878048780487806,140,4
76,0.673828125,-0.501953125,-0.06689453125,2.804878048780488,42.07317073170732,9.51219512195122,140,4
77,0.66455078125,-0.50732421875,-0.0654296875,7.500000000000001,38.10975609756098,9.573170731707318,140,4
78,0.65087890625,-0.60400390625,-0.24755859375,9.451219512195122,34.451219512195124,9.451219512195122,140,4
79,0.68798828125,-0.52685546875,-0.14892578125,9.085365853658537,33.29268292682927,8.231707317073171,140,4
80,0.72802734375,-0.486328125,-0.2021484375,3.231707317073171,34.69512195121951,6.158536585365854,140,4
81,0.7529296875,-0.43994140625,-0.23779296875,-8.353658536585366,41.463414634146346,4.390243902439025,140,4
82,0.7705078125,-0.4130859375,-0.23291015625,-21.219512195121954,49.146341463414636,2.6219512195121952,140,4
83,0.826171875,-0.3623046875,-0.24365234375,-16.03658536585366,55.365853658536594,0.7926829268292683,140,4
84,0.828125,-0.39111328125,-0.21337890625,-37.6829268292683,56.21951219512196,0.9756097560975611,140,4
85,0.87353515625,-0.37548828125,-0.181640625,-35.1219512195122,51.524390243902445,0.6707317073170732,140,4
86,0.70654296875,-0.57421875,-0.166015625,-25.792682926829272,44.93902439024391,0.7926829268292683,140,4
87,0.666015625,-0.60595703125,-0.17529296875,-15.914634146341465,37.987804878048784,0.7317073170731708,140,4
88,0.68212890625,-0.53271484375,-0.17724609375,-10.792682926829269,35.79268292682927,0.9756097560975611,140,4
89,0.67919921875,-0.45458984375,-0.16943359375,-14.817073170731708,35.73170731707317,15.30487804878049,140,4
90,0.689453125,-0.38134765625,-0.20703125,-21.951219512195124,38.53658536585366,-3.4756097560975614,140,4
91,0.693359375,-0.36865234375,-0.2001953125,-30.487804878048784,39.32926829268293,-5.914634146341464,140,4
92,0.68017578125,-0.38037109375,-0.216796875,-34.63414634146342,39.87804878048781,-8.170731707317074,140,4
93,0.6826171875,-0.40380859375,-0.17431640625,-36.34146341463415,37.31707317073171,-9.390243902439025,140,4
94,0.68505859375,-0.42431640625,-0.20556640625,-34.93902439024391,32.13414634146342,-9.695121951219512,140,4
95,0.64599609375,-0.453125,-0.224609375,-30.487804878048784,27.31707317073171,-9.573170731707318,140,4
96,0.64453125,-0.45751953125,-0.20068359375,-26.28048780487805,24.451219512195124,-10.0,140,4
97,0.69970703125,-0.4013671875,-0.19384765625,-24.81707317073171,22.25609756097561,-10.731707317073171,140,4
98,0.73388671875,-0.3583984375,-0.2412109375,-26.707317073170735,22.439024390243905,-11.76829268292683,140,4
99,0.708984375,-0.36328125,-0.244140625,-32.6829268292683,25.0609756097561,-12.926829268292684,140,4
100,0.7216796875,-0.3310546875,-0.22998046875,-39.93902439024391,29.39024390243903,-15.243902439024392,140,4
101,0.75048828125,-0.29541015625,-0.2109375,-48.170731707317074,32.5609756097561,-16.52439024390244,140,4
102,0.716796875,-0.34716796875,-0.13671875,-54.87804878048781,33.71951219512196,-17.682926829268293,140,4
103,0.7158203125,-0.3642578125,-0.26611328125,-57.6219512195122,33.90243902439025,-19.81707317073171,140,4
104,0.73193359375,-0.35498046875,-0.25048828125,-57.926829268292686,31.89024390243903,-20.731707317073173,140,4
105,0.763671875,-0.34521484375,-0.27001953125,-59.207317073170735,29.695121951219516,-21.82926829268293,140,4
106,0.755859375,-0.33251953125,-0.29248046875,-62.13414634146342,28.59756097560976,-24.26829268292683,140,4
107,0.7421875,-0.32421875,-0.2685546875,-66.89024390243902,29.02439024390244,-25.60975609756098,140,4
108,0.71728515625,-0.361328125,-0.20166015625,-71.15853658536587,30.792682926829272,-26.03658536585366,140,4
109,0.7177734375,-0.37451171875,-0.15869140625,-73.10975609756098,31.89024390243903,-25.000000000000004,140,4
110,0.71044921875,-0.3818359375,-0.16748046875,-74.26829268292684,32.07317073170732,-25.000000000000004,140,4
111,0.70166015625,-0.35205078125,-0.21875,-75.79268292682927,31.52439024390244,-25.670731707317074,140,4
112,0.71240234375,-0.333984375,-0.220703125,-77.6219512195122,31.52439024390244,-27.80487804878049,140,4
113,0.73583984375,-0.328125,-0.22802734375,-80.3658536585366,30.914634146341466,-29.573170731707318,140,4
114,0.7578125,-0.31640625,-0.2685546875,-84.39024390243902,31.52439024390244,-32.37804878048781,140,4
115,0.77685546875,-0.296875,-0.271484375,-89.08536585365854,31.89024390243903,-35.0609756097561,140,4
116,0.77880859375,-0.2919921875,-0.2802734375,-78.41463414634147,32.31707317073171,-36.707317073170735,140,4
117,0.7763671875,-0.30517578125,-0.263671875,-97.98780487804879,33.35365853658537,-37.926829268292686,140,4
118,0.77587890625,-0.32861328125,-0.27392578125,-100.54878048780489,33.47560975609756,-38.90243902439025,140,4
119,0.767578125,-0.333984375,-0.2568359375,-101.15853658536587,32.5609756097561,-39.87804878048781,140,4
120,0.765625,-0.33984375,-0.25390625,-102.01219512195122,32.07317073170732,-40.54878048780488,140,4
121,0.77880859375,-0.3203125,-0.25390625,-104.39024390243904,32.926829268292686,-41.890243902439025,140,4
122,0.7841796875,-0.31005859375,-0.2734375,-108.84146341463416,34.207317073170735,-42.43902439024391,140,4
123,0.775390625,-0.31689453125,-0.29931640625,-112.50000000000001,34.390243902439025,-44.08536585365854,140,4
124,0.8046875,-0.27978515625,-0.30224609375,-115.85365853658537,34.57317073170732,-45.54878048780488,140,4
125,0.81494140625,-0.28076171875,-0.3037109375,-120.85365853658537,35.91463414634147,-46.463414634146346,140,4
126,0.82080078125,-0.26416015625,-0.31005859375,-126.76829268292684,37.80487804878049,-48.04878048780488,140,4
127,0.8134765625,-0.265625,-0.28564453125,-130.91463414634148,39.268292682926834,-50.91463414634147,140,4
128,0.830078125,-0.31640625,-0.25732421875,-133.84146341463415,41.646341463414636,-51.40243902439025,140,4
129,0.80126953125,-0.35498046875,-0.2421875,-133.109756097561,42.987804878048784,-51.82926829268293,140,4
130,0.8046875,-0.3251953125,-0.23388671875,-133.2317073170732,44.63414634146342,-53.17073170731708,140,4
131,0.81982421875,-0.2919921875,-0.2265625,-133.71951219512195,47.07317073170732,-54.207317073170735,140,4
132,0.81591796875,-0.29052734375,-0.27783203125,-134.20731707317074,46.28048780487805,-55.00000000000001,140,4
133,0.8564453125,-0.2216796875,-0.314453125,-131.58536585365854,43.41463414634147,-57.865853658536594,140,4
134,0.90576171875,-0.19677734375,-0.25341796875,-129.75609756097563,37.43902439024391,-61.40243902439025,140,4
135,0.96142578125,-0.13330078125,-0.419921875,-129.26829268292684,34.32926829268293,-66.70731707317074,140,4
136,1.00244140625,-0.1220703125,-0.40625,-135.0609756097561,37.07317073170732,-72.19512195121952,140,4
137,1.0029296875,-0.16064453125,-0.39404296875,-142.9268292682927,41.09756097560976,-77.5609756097561,140,4
138,1.01708984375,-0.1533203125,-0.38671875,-149.08536585365854,44.32926829268293,-81.52439024390245,140,4
139,0.99560546875,-0.17041015625,-0.369140625,-152.8048780487805,46.34146341463415,-85.00000000000001,140,4
140,0.9697265625,-0.19091796875,-0.3828125,-155.6707317073171,49.024390243902445,-88.59756097560977,140,4
141,0.98193359375,-0.1748046875,-0.37158203125,-158.0487804878049,50.97560975609756,-91.58536585365854,140,4
142,1.0029296875,-0.16259765625,-0.39111328125,-160.0,51.28048780487806,-94.63414634146342,140,4
143,0.986328125,-0.1767578125,-0.39599609375,-162.13414634146343,52.926829268292686,-97.37804878048782,140,4
144,0.88037109375,-0.1787109375,-0.41552734375,-164.51219512195124,54.32926829268293,-101.34146341463415,140,4
145,1.03173828125,-0.15625,-0.4228515625,-166.09756097560978,53.65853658536586,-105.79268292682927,140,4
146,1.06298828125,-0.12744140625,-0.4638671875,-166.64634146341464,52.19512195121952,-110.06097560975611,140,4
147,1.0849609375,-0.12353515625,-0.44580078125,-167.25609756097563,51.40243902439025,-113.90243902439025,140,4
148,1.095703125,-0.12841796875,-0.423828125,-168.59756097560978,51.585365853658544,-117.6829268292683,140,4
149,1.1201171875,-0.115234375,-0.4326171875,-168.41463414634148,51.89024390243903,-121.70731707317074,140,4
150,1.1396484375,-0.08154296875,-0.41552734375,-169.32926829268294,52.31707317073171,-125.73170731707319,140,4
151,1.12744140625,-0.10546875,-0.43603515625,-171.58536585365854,52.804878048780495,-128.0487804878049,140,4
152,1.123046875,-0.1103515625,-0.4189453125,-172.19512195121953,54.51219512195122,-131.82926829268294,140,4
153,1.16357421875,-0.0771484375,-0.40234375,-171.89024390243904,56.03658536585366,-135.2439024390244,140,4
154,1.20703125,-0.0498046875,-0.39501953125,-170.4268292682927,54.63414634146342,-138.47560975609758,140,4
155,1.220703125,-0.03759765625,-0.39892578125,-168.96341463414635,53.41463414634147,-142.8048780487805,140,4
156,1.22607421875,-0.029296875,-0.41259765625,-167.8048780487805,51.951219512195124,-147.07317073170734,140,4
157,1.24853515625,-0.02490234375,-0.41552734375,-165.97560975609758,50.487804878048784,-151.76829268292684,140,4
158,1.2568359375,-0.02783203125,-0.38623046875,-164.32926829268294,49.93902439024391,-155.91463414634148,140,4
159,1.27783203125,-0.0029296875,-0.404296875,-163.109756097561,47.5609756097561,-159.63414634146343,140,4
160,1.3046875,0.05517578125,-0.419921875,-160.6707317073171,44.93902439024391,-165.00000000000003,140,4
161,1.34765625,0.1015625,-0.3974609375,-161.28048780487805,44.268292682926834,-169.93902439024393,140,4
162,1.36376953125,0.07421875,-0.37841796875,-163.65853658536588,45.0609756097561,-173.41463414634148,140,4
163,1.3876953125,0.0908203125,-0.34228515625,-164.51219512195124,31.34146341463415,-176.58536585365854,140,4
164,1.40283203125,0.0966796875,-0.31201171875,-164.93902439024393,49.024390243902445,-180.1219512195122,140,4
165,1.4033203125,0.076171875,-0.29443359375,-164.32926829268294,49.268292682926834,-182.43902439024393,140,4
166,1.41015625,0.10205078125,-0.259765625,-164.14634146341464,51.524390243902445,-185.609756097561,140,4
167,1.41357421875,0.12548828125,-0.21044921875,-164.87804878048783,54.51219512195122,-188.53658536585368,140,4
168,1.40673828125,0.10302734375,-0.177734375,-164.26829268292684,56.03658536585366,-192.19512195121953,140,4
169,1.3974609375,0.091796875,-0.15283203125,-161.09756097560978,57.01219512195122,-196.70731707317074,140,4
170,1.40625,0.1171875,-0.099609375,-171.09756097560978,56.82926829268293,-202.8048780487805,140,4
171,1.4736328125,0.18310546875,-0.07763671875,-150.1219512195122,55.243902439024396,-209.26829268292684,140,4
172,1.53271484375,0.234375,-0.0771484375,-147.13414634146343,53.90243902439025,-214.26829268292684,140,4
173,1.5146484375,0.2119140625,-0.03564453125,-146.64634146341464,56.28048780487806,-219.08536585365854,140,4
174,1.52490234375,0.19287109375,0.0107421875,-145.7317073170732,57.987804878048784,-223.47560975609758,140,4
175,1.51220703125,0.1787109375,0.0478515625,-143.2926829268293,60.060975609756106,-225.4878048780488,140,4
176,1.46044921875,0.1611328125,0.05517578125,-139.75609756097563,61.40243902439025,-226.58536585365854,140,4
177,1.47119140625,0.21826171875,0.02685546875,-134.14634146341464,60.426829268292686,-230.18292682926833,140,4
178,1.466796875,0.26123046875,0.0390625,-132.8658536585366,61.34146341463415,-232.43902439024393,140,4
179,1.42333984375,0.2783203125,0.04736328125,-131.40243902439025,64.81707317073172,-236.15853658536588,140,4
180,1.42333984375,0.30078125,0.07080078125,-128.78048780487805,65.85365853658537,-240.12195121951223,140,4
181,1.41845703125,0.326171875,0.15966796875,-123.23170731707319,64.69512195121952,-245.18292682926833,140,4
182,1.4443359375,0.3447265625,0.18408203125,-115.06097560975611,61.82926829268293,-252.01219512195124,140,4
183,1.4951171875,0.42138671875,0.16064453125,-108.84146341463416,57.6829268292683,-259.57317073170736,140,4
184,1.490234375,0.447265625,0.19091796875,-104.75609756097562,55.243902439024396,-268.0487804878049,140,4
185,1.486328125,0.45947265625,0.20849609375,-100.97560975609757,53.71951219512196,-278.4756097560976,140,4
186,1.49072265625,0.455078125,0.24462890625,-97.01219512195122,51.82926829268293,-285.6707317073171,140,4
187,1.41162109375,0.32080078125,0.26513671875,-91.89024390243904,51.524390243902445,-287.25609756097566,140,4
188,1.3447265625,0.28857421875,0.30712890625,-82.13414634146342,49.81707317073171,-284.57317073170736,140,4
189,1.27294921875,0.322265625,0.294921875,-73.35365853658537,48.47560975609756,-281.219512195122,140,4
190,1.1953125,0.322265625,0.12890625,-71.52439024390245,49.207317073170735,-277.25609756097566,140,4
191,1.1162109375,0.3017578125,0.06884765625,-71.52439024390245,50.79268292682927,-274.57317073170736,140,4
192,1.09033203125,0.330078125,0.14599609375,-68.17073170731707,52.6219512195122,-272.01219512195127,140,4
193,1.00244140625,0.4052734375,0.14013671875,-69.02439024390245,55.91463414634147,-271.4024390243903,140,4
194,1.1396484375,0.40380859375,0.103515625,-75.0,60.243902439024396,-271.5243902439025,140,4
195,1.08544921875,0.32470703125,0.07763671875,-81.64634146341464,64.14634146341464,-269.8170731707317,140,4
196,1.12451171875,0.18359375,0.10693359375,-80.60975609756099,65.91463414634147,-268.2317073170732,140,4
197,0.94140625,0.16748046875,0.17138671875,-72.19512195121952,64.32926829268293,-264.1463414634147,140,4
198,0.89111328125,0.1787109375,0.2578125,-65.1829268292683,61.524390243902445,-259.8780487804878,140,4
199,0.80712890625,0.12646484375,0.29296875,-59.75609756097562,61.28048780487806,-255.6707317073171,140,4
200,0.71875,0.099609375,0.30810546875,-54.75609756097561,61.21951219512196,-251.15853658536588,140,4
201,0.66162109375,0.06884765625,0.31640625,-48.04878048780488,61.28048780487806,-245.5487804878049,140,4
202,0.611328125,0.05322265625,0.31103515625,-40.85365853658537,59.207317073170735,-239.87804878048783,140,4
203,0.5927734375,0.0302734375,0.3408203125,-33.29268292682927,58.53658536585366,-235.4878048780488,140,4
204,0.57666015625,0.0048828125,0.3330078125,-28.292682926829272,56.463414634146346,-231.82926829268294,140,4
205,0.54931640625,-0.0498046875,0.2421875,-24.32926829268293,49.39024390243903,-227.8658536585366,140,4
206,0.5244140625,-0.08056640625,0.2197265625,-20.670731707317074,46.463414634146346,-225.7926829268293,140,4
207,0.48388671875,-0.14892578125,0.27099609375,-15.975609756097562,45.1829268292683,-222.25609756097563,140,4
208,0.42724609375,-0.22021484375,0.28564453125,-10.121951219512196,42.987804878048784,-217.56097560975613,140,4
209,0.34814453125,-0.2822265625,0.31591796875,-4.451219512195122,40.54878048780488,-212.31707317073173,140,4
210,0.3076171875,-0.26953125,0.39453125,3.1707317073170733,38.41463414634147,-204.26829268292684,140,4
211,0.2216796875,-0.30126953125,0.41162109375,6.829268292682928,37.5,-194.14634146341464,140,4
212,0.1474609375,-0.3720703125,0.46435546875,7.317073170731708,38.23170731707317,-183.0487804878049,140,4
213,0.0634765625,-0.46728515625,0.4140625,5.487804878048781,40.0,-170.0609756097561,140,4
214,-0.05859375,-0.57666015625,0.3154296875,3.1097560975609757,38.23170731707317,-171.21951219512198,140,4
215,-0.15576171875,-0.65771484375,0.35791015625,4.390243902439025,36.82926829268293,-142.13414634146343,140,4
216,-0.2216796875,-0.728515625,0.396484375,6.829268292682928,37.5,-128.47560975609758,140,4
217,-0.30078125,-0.740234375,0.42529296875,7.560975609756098,37.25609756097561,-115.12195121951221,140,4
218,-0.365234375,-0.7861328125,0.44921875,5.609756097560976,39.390243902439025,-100.60975609756099,140,4
219,-0.42431640625,-0.8671875,0.48486328125,3.780487804878049,41.951219512195124,-84.63414634146342,140,4
220,-0.52392578125,-0.97265625,0.4716796875,1.3414634146341464,42.19512195121951,-68.10975609756098,140,4
221,-0.7509765625,-1.099609375,0.451171875,-0.426829268292683,42.6219512195122,-49.63414634146342,140,4
222,-0.85107421875,-1.16259765625,0.51611328125,-0.48780487804878053,39.146341463414636,-45.79268292682927,140,4
223,-0.83837890625,-1.2548828125,0.52734375,1.4634146341463417,39.451219512195124,-8.78048780487805,140,4
224,-0.841796875,-1.328125,0.47265625,1.8902439024390245,38.35365853658537,12.926829268292684,140,4
225,-0.86181640625,-1.44287109375,0.37255859375,3.231707317073171,37.31707317073171,34.268292682926834,140,4
226,-0.859375,-1.37646484375,0.39453125,5.121951219512195,34.024390243902445,54.57317073170732,140,4
227,-0.83984375,-1.56591796875,0.38330078125,7.743902439024391,36.951219512195124,75.48780487804879,140,4
228,-0.78662109375,-1.5849609375,0.40234375,10.365853658536587,33.04878048780488,78.71951219512196,140,4
229,-0.71337890625,-1.67333984375,0.31689453125,17.378048780487806,32.25609756097561,115.06097560975611,140,4
230,-0.56298828125,-1.7197265625,0.27294921875,27.743902439024392,29.695121951219516,136.28048780487805,140,4
231,-0.42236328125,-1.77392578125,0.294921875,35.426829268292686,30.365853658536587,142.01219512195124,140,4
232,-0.29443359375,-1.833984375,0.27392578125,42.86585365853659,29.75609756097561,178.59756097560978,140,4
233,-0.140625,-1.8564453125,0.197265625,52.43902439024391,28.53658536585366,198.71951219512198,140,4
234,0.02197265625,-1.8935546875,0.2412109375,60.67073170731708,26.28048780487805,202.9878048780488,140,4
235,0.173828125,-1.95068359375,0.0732421875,72.19512195121952,23.78048780487805,238.84146341463418,140,4
236,0.2978515625,-1.96044921875,0.05078125,84.69512195121952,21.158536585365855,258.5365853658537,140,4
237,0.43408203125,-1.98828125,0.05908203125,91.46341463414635,20.243902439024392,278.2317073170732,140,4
238,0.5390625,-2.03955078125,0.0419921875,94.32926829268294,21.34146341463415,299.51219512195127,140,4
239,0.69140625,-2.10888671875,0.0244140625,95.1219512195122,24.02439024390244,322.7439024390244,140,4
240,0.8466796875,-2.23095703125,0.03466796875,92.37804878048782,28.10975609756098,350.06097560975616,140,4
241,0.93310546875,-2.44482421875,0.01953125,91.46341463414635,29.695121951219516,382.19512195121956,140,4
242,1.08203125,-2.67138671875,-0.0302734375,95.54878048780489,26.951219512195124,414.69512195121956,140,4
243,1.33447265625,-2.8740234375,-0.134765625,101.82926829268294,22.5609756097561,451.0365853658537,140,4
244,1.5380859375,-3.1494140625,-0.298828125,111.34146341463416,10.853658536585368,489.69512195121956,140,4
245,2.07373046875,-3.26611328125,-0.5498046875,109.81707317073172,5.060975609756098,527.0121951219512,140,4
246,2.498046875,-3.70361328125,-0.62939453125,139.08536585365854,15.54878048780488,570.6707317073171,140,4
247,3.00048828125,-4.0439453125,-0.8779296875,166.58536585365854,-13.475609756097562,620.6707317073171,140,4
248,3.70458984375,-4.5244140625,-1.3125,190.7926829268293,-29.207317073170735,668.048780487805,140,4
249,4.48828125,-4.8505859375,-1.57080078125,223.96341463414637,-43.29268292682927,710.609756097561,140,4
250,5.48095703125,-5.17333984375,-1.69287109375,273.109756097561,-40.85365853658537,735.7926829268293,140,4
251,6.07568359375,-5.34130859375,-1.53759765625,317.8658536585366,-25.365853658536587,733.719512195122,140,4
252,6.83251953125,-5.1669921875,-1.50244140625,342.01219512195127,-22.621951219512198,759.0243902439025,140,4
253,7.55517578125,-4.94970703125,-1.75927734375,381.4634146341464,-29.75609756097561,790.548780487805,140,4
254,8.099609375,-5.1328125,-2.4267578125,445.18292682926835,-37.5,826.9512195121952,140,4
255,8.6689453125,-5.3759765625,-3.13134765625,486.3414634146342,-50.1219512195122,859.3902439024391,140,4
256,10.0087890625,-5.1796875,-3.70654296875,550.7317073170732,-62.25609756097562,907.3780487804879,140,4
257,11.841796875,-4.40576171875,-4.45849609375,592.1341463414635,-42.25609756097561,930.3658536585367,140,4
258,12.322265625,-3.05908203125,-5.30322265625,583.5365853658537,-40.36585365853659,926.4634146341464,140,4
259,12.6904296875,-1.9921875,-6.443359375,613.2317073170732,-74.39024390243902,902.7439024390245,140,4
260,12.6767578125,-0.876953125,-6.8857421875,709.1463414634147,-187.13414634146343,843.4146341463415,140,4
261,10.66455078125,-1.14453125,-6.7744140625,835.8536585365854,-296.82926829268297,753.8414634146342,140,4
262,8.68408203125,-1.68212890625,-6.70458984375,1008.7195121951221,-455.5487804878049,643.5365853658537,140,4
263,7.75,-1.14453125,-7.29443359375,1274.1463414634147,-660.9756097560976,536.829268292683,140,4
264,6.6572265625,-0.57421875,-15.974609375,1997.987804878049,-1245.1219512195123,447.9878048780488,140,4
265,3.81884765625,-9.86474609375,-16.0,1027.5609756097563,-381.4634146341464,-340.9756097560976,140,4
266,15.5625,10.60302734375,-1.560546875,1437.9878048780488,-378.8414634146342,133.78048780487805,140,4
267,-2.76513671875,-3.27099609375,6.11767578125,1502.0731707317075,-392.37804878048786,-320.4268292682927,140,4
268,9.09326171875,2.5244140625,-6.56640625,1979.207317073171,-530.548780487805,-266.76829268292687,140,4
269,7.31494140625,0.64599609375,-1.4052734375,1209.6341463414635,-196.64634146341464,-561.6463414634147,140,4
270,4.55615234375,0.939453125,4.0625,857.6219512195123,101.15853658536587,-450.12195121951225,140,4
271,4.7822265625,-1.76904296875,3.15576171875,773.048780487805,89.45121951219512,-416.5853658536586,140,4
272,5.21728515625,-6.18310546875,-0.1328125,630.7317073170732,16.219512195121954,-563.9024390243903,140,4
273,5.3037109375,-4.58251953125,-1.935546875,500.24390243902445,11.890243902439025,-667.6219512195122,140,4
274,4.435546875,-4.775390625,-2.2626953125,414.57317073170736,20.48780487804878,-736.5853658536586,140,4
275,4.14599609375,-3.98681640625,-1.92529296875,356.89024390243907,48.47560975609756,-775.2439024390245,140,4
276,3.92919921875,-3.75927734375,-2.060546875,287.7439024390244,104.32926829268294,-815.9146341463415,140,4
277,4.04443359375,-2.81787109375,-2.04248046875,246.46341463414637,171.34146341463415,-828.5975609756098,140,4
278,4.1318359375,-2.21240234375,-2.228515625,182.01219512195124,248.84146341463418,-817.1341463414635,140,4
279,4.29052734375,-2.06005859375,-2.443359375,85.3048780487805,322.9268292682927,-797.0731707317074,140,4
280,4.36962890625,-2.095703125,-2.2880859375,8.475609756097562,382.8658536585366,-778.1707317073171,140,4
281,4.03564453125,-2.38818359375,-2.32080078125,-54.39024390243903,433.1707317073171,-728.3536585365854,140,4
282,3.572265625,-2.6083984375,-2.32958984375,-99.93902439024392,475.6707317073171,-669.7560975609757,140,4
283,2.94873046875,-2.49169921875,-2.32177734375,-129.14634146341464,492.43902439024396,-600.4268292682927,140,4
284,2.4287109375,-2.41796875,-2.32666015625,-154.20731707317074,495.24390243902445,-552.8048780487806,140,4
285,1.89892578125,-2.06591796875,-2.220703125,-161.46341463414635,482.13414634146346,-517.3170731707318,140,4
286,1.5634765625,-1.888671875,-1.9482421875,-160.4878048780488,454.45121951219517,-491.2804878048781,140,4
287,1.4521484375,-1.650390625,-1.9150390625,-155.7926829268293,431.219512195122,-469.87804878048786,140,4
288,1.5517578125,-1.48974609375,-2.01611328125,-156.46341463414635,408.7804878048781,-448.8414634146342,140,4
289,1.70654296875,-1.12255859375,-1.982421875,-160.5487804878049,391.4634146341464,-424.63414634146346,140,4
290,1.77197265625,-0.83056640625,-1.89013671875,-184.51219512195124,391.1585365853659,-406.6463414634147,140,4
291,1.7578125,-0.82373046875,-1.8740234375,-213.1707317073171,389.26829268292687,-379.20731707317077,140,4
292,1.607421875,-0.7890625,-2.0400390625,-240.7317073170732,390.9146341463415,-352.6829268292683,140,4
293,1.3740234375,-0.8427734375,-2.21728515625,-252.56097560975613,386.89024390243907,-331.0365853658537,140,4
294,1.16796875,-0.77978515625,-2.146484375,-239.93902439024393,369.1463414634147,-320.1829268292683,140,4
295,1.12158203125,-0.77001953125,-2.11962890625,-233.2317073170732,351.2804878048781,-314.69512195121956,140,4
296,0.94677734375,-0.76904296875,-1.9423828125,-199.02439024390245,338.1707317073171,-307.5609756097561,140,4
297,0.86376953125,-0.73291015625,-1.68359375,-191.82926829268294,335.0609756097561,-295.609756097561,140,4
298,0.72802734375,-0.65283203125,-1.61083984375,-214.26829268292684,316.76829268292687,-288.2317073170732,140,4
299,0.5439453125,-0.8037109375,-1.740234375,-214.39024390243904,302.37804878048786,-268.0487804878049,140,4
300,0.53466796875,-0.6484375,-1.64111328125,-219.69512195121953,299.20731707317077,-235.91463414634148,140,4
301,0.3251953125,-0.634765625,-1.5302734375,-261.5243902439025,295.3658536585366,-205.85365853658539,140,4
302,-0.220703125,-1.23583984375,-1.27685546875,-259.7560975609756,285.1829268292683,-185.3048780487805,140,4
303,-0.36865234375,-0.70263671875,-1.0986328125,-256.1585365853659,275.7926829268293,-180.85365853658539,140,4
304,-0.40283203125,-0.56298828125,-0.8154296875,-252.07317073170734,266.82926829268297,-177.31707317073173,140,4
305,-0.32958984375,-0.48779296875,-0.8359375,-247.13414634146343,254.32926829268294,-179.32926829268294,140,4
306,-0.0673828125,-0.189453125,-0.98583984375,-247.01219512195124,245.7926829268293,-174.14634146341464,140,4
307,-0.07568359375,-0.1845703125,-1.06103515625,-246.70731707317074,228.78048780487808,-159.02439024390245,140,4
308,-0.2197265625,-0.26708984375,-1.01806640625,-242.43902439024393,211.15853658536588,-154.93902439024393,140,4
309,-0.55078125,-0.41015625,-0.97509765625,-237.62195121951223,193.96341463414635,-140.0,140,4
310,-0.8125,-0.60986328125,-0.86083984375,-222.31707317073173,180.06097560975613,-118.59756097560977,140,4
311,-0.921875,-0.328125,-0.7333984375,-213.2926829268293,187.01219512195124,-117.6829268292683,140,4
312,-0.884765625,-0.12939453125,-0.65478515625,-214.14634146341464,163.78048780487805,-122.13414634146342,140,4
313,-0.77490234375,0.05517578125,-0.71728515625,-219.32926829268294,161.40243902439025,-125.3048780487805,140,4
314,-0.64306640625,0.20556640625,-0.7548828125,-216.15853658536588,147.13414634146343,-121.03658536585367,140,4
315,-0.69921875,0.14794921875,-0.94482421875,-207.8658536585366,139.9390243902439,-112.19512195121952,140,4
316,-0.84716796875,-0.052734375,-0.9765625,-198.47560975609758,133.35365853658539,-102.98780487804879,140,4
317,-1.04833984375,-0.1767578125,-0.884765625,-185.609756097561,130.5487804878049,-91.21951219512196,140,4
318,-1.24755859375,-0.32568359375,-0.79052734375,-175.3048780487805,125.97560975609757,-78.53658536585367,140,4
319,-1.37353515625,-0.42529296875,-0.8046875,-165.97560975609758,124.45121951219514,-68.65853658536587,140,4
320,-1.40869140625,-0.423828125,-0.82568359375,-159.20731707317074,120.42682926829269,-62.804878048780495,140,4
321,-1.388671875,-0.3330078125,-0.8330078125,-150.97560975609758,112.19512195121952,-58.41463414634147,140,4
322,-1.27099609375,-0.373046875,-0.8955078125,-155.4878048780488,100.06097560975611,-54.57317073170732,140,4
323,-1.16845703125,-0.1767578125,-0.8740234375,-133.78048780487805,89.93902439024392,-51.09756097560976,140,4
324,-1.10595703125,-0.103515625,-0.93359375,-128.35365853658539,84.45121951219512,-44.93902439024391,140,4
325,-1.2373046875,-0.22607421875,-0.95166015625,-126.89024390243904,79.45121951219512,-36.34146341463415,140,4
326,-1.41162109375,-0.3779296875,-0.978515625,-122.56097560975611,67.8658536585366,-28.84146341463415,140,4
327,-1.50830078125,-0.61962890625,-0.93310546875,-102.8048780487805,57.987804878048784,-22.439024390243905,140,4
328,-1.5048828125,-0.46728515625,-0.849609375,-89.75609756097562,47.6219512195122,-14.329268292682928,140,4
329,-1.419921875,-0.38623046875,-0.88623046875,-85.1219512195122,42.31707317073171,-6.158536585365854,140,4
330,-1.32080078125,-0.30517578125,-0.9072265625,-80.42682926829269,35.243902439024396,-15.121951219512196,140,4
331,-1.32373046875,-0.25,-0.96142578125,-76.21951219512196,25.243902439024392,6.463414634146342,140,4
332,-1.30517578125,-0.2490234375,-0.9814453125,-67.01219512195122,17.195121951219512,10.975609756097562,140,4
333,-1.29833984375,-0.2421875,-0.94775390625,-57.19512195121952,8.841463414634147,15.30487804878049,140,4
334,-1.28564453125,-0.2529296875,-0.875,-47.6829268292683,0.7317073170731708,21.097560975609756,140,4
335,-1.3037109375,-0.28271484375,-0.83154296875,-40.243902439024396,-6.951219512195123,26.402439024390247,140,4
336,-1.28369140625,-0.2763671875,-0.84130859375,-46.524390243902445,-15.54878048780488,15.670731707317074,140,4
337,-1.2529296875,-0.25341796875,-0.8349609375,-20.670731707317074,-23.414634146341466,34.69512195121951,140,4
338,-1.22021484375,-0.20751953125,-0.81396484375,-13.536585365853659,-29.512195121951223,37.6219512195122,140,4
339,-1.19921875,-0.16748046875,-0.802734375,-6.585365853658537,-36.28048780487805,39.390243902439025,140,4
340,-1.16748046875,-0.10107421875,-0.7607421875,0.6097560975609757,-43.29268292682927,41.28048780487805,140,4
341,-1.1748046875,-0.07373046875,-0.74560546875,6.341463414634147,-50.670731707317074,43.23170731707317,140,4
342,-1.19775390625,-0.0625,-0.7236328125,12.01219512195122,-56.951219512195124,44.390243902439025,140,4
343,-1.23046875,-0.0546875,-0.70849609375,16.03658536585366,-63.90243902439025,45.54878048780488,140,4
344,-1.23876953125,-0.07177734375,-0.689453125,19.26829268292683,-69.75609756097562,47.31707317073171,140,4
345,-1.36962890625,-0.08837890625,-0.63330078125,21.646341463414636,-74.69512195121952,50.426829268292686,140,4
346,-1.2705078125,-0.005859375,-0.5810546875,25.54878048780488,-79.81707317073172,54.085365853658544,140,4
347,-1.2841796875,-0.1376953125,-0.56640625,15.609756097560977,-84.02439024390245,56.82926829268293,140,4
348,-1.26513671875,-0.154296875,-0.56982421875,38.04878048780488,-89.57317073170732,59.024390243902445,140,4
349,-1.24658203125,-0.123046875,-0.5546875,46.15853658536586,-95.79268292682927,61.21951219512196,140,4
350,-1.21142578125,-0.0693359375,-0.5380859375,52.25609756097561,-100.67073170731709,63.41463414634147,140,4
351,-1.1689453125,-0.01513671875,-0.47705078125,56.463414634146346,-104.32926829268294,65.60975609756098,140,4
352,-1.16015625,0.03759765625,-0.43896484375,59.75609756097562,-107.8048780487805,68.04878048780489,140,4
353,-1.15283203125,0.0537109375,-0.41162109375,62.37804878048781,-110.97560975609757,70.3048780487805,140,4
354,-1.169921875,0.06982421875,-0.3740234375,64.32926829268293,-114.87804878048782,71.89024390243902,140,4
355,-1.181640625,0.087890625,-0.31982421875,65.3658536585366,-119.02439024390245,71.95121951219512,140,4
356,-1.18115234375,0.0966796875,-0.2578125,66.09756097560977,-122.7439024390244,72.6219512195122,140,4
357,-1.16357421875,0.119140625,-0.23681640625,67.31707317073172,-125.60975609756099,72.8048780487805,140,4
358,-1.13623046875,0.14208984375,-0.18896484375,68.35365853658537,-127.56097560975611,72.5,140,4
359,-1.11669921875,0.13134765625,-0.15478515625,68.23170731707317,-128.96341463414635,72.31707317073172,140,4
360,-1.10498046875,0.154296875,-0.15283203125,69.51219512195122,-131.89024390243904,71.89024390243902,140,4
361,-1.08349609375,0.18408203125,-0.1376953125,72.7439024390244,-134.51219512195124,70.97560975609757,140,4
362,-1.07080078125,0.18798828125,-0.12158203125,76.34146341463415,-137.6219512195122,71.76829268292684,140,4
363,-1.0712890625,0.19091796875,-0.09326171875,79.26829268292684,-138.96341463414635,70.42682926829269,140,4
364,-1.06884765625,0.2099609375,-0.06982421875,79.63414634146342,-139.81707317073173,69.63414634146342,140,4
365,-1.05029296875,0.22021484375,-0.04052734375,80.1829268292683,-140.7926829268293,68.35365853658537,140,4
366,-1.03466796875,0.26025390625,-0.02734375,79.75609756097562,-142.5609756097561,68.17073170731707,140,4
367,-1.01123046875,0.26318359375,-0.0078125,79.57317073170732,-143.65853658536588,68.17073170731707,140,4
368,-0.96337890625,0.2470703125,0.01123046875,78.84146341463415,-145.609756097561,68.23170731707317,140,4
369,-0.9345703125,0.24609375,0.03271484375,79.14634146341464,-145.6707317073171,67.5609756097561,140,4
370,-0.89404296875,0.24853515625,0.0439453125,79.57317073170732,-147.5,66.76829268292684,140,4
371,-0.86181640625,0.2724609375,0.07568359375,81.40243902439025,-148.84146341463415,66.40243902439025,140,4
372,-0.8359375,0.26806640625,0.125,83.04878048780489,-149.69512195121953,66.58536585365854,140,4
373,-0.79638671875,0.28564453125,0.1767578125,84.32926829268294,-151.09756097560978,66.34146341463415,140,4
374,-0.76171875,0.30078125,0.2060546875,86.21951219512196,-150.7317073170732,64.69512195121952,140,4
375,-0.73388671875,0.3017578125,0.205078125,86.52439024390245,-150.91463414634148,63.17073170731708,140,4
376,-0.73291015625,0.3095703125,0.1962890625,86.95121951219512,-151.89024390243904,61.707317073170735,140,4
377,-0.73974609375,0.2958984375,0.19482421875,88.10975609756099,-153.90243902439025,61.34146341463415,140,4
378,-0.77001953125,0.255859375,0.1767578125,88.96341463414635,-154.39024390243904,60.426829268292686,140,4
379,-0.76708984375,0.2529296875,0.21484375,91.28048780487806,-154.45121951219514,59.146341463414636,140,4
380,-0.748046875,0.27880859375,0.26806640625,91.52439024390245,-152.7439024390244,58.53658536585366,140,4
381,-0.6982421875,0.30322265625,0.30810546875,87.6219512195122,-148.84146341463415,57.50000000000001,140,4
382,-0.64599609375,0.33447265625,0.349609375,82.25609756097562,-145.3658536585366,56.03658536585366,140,4
383,-0.7490234375,0.35595703125,0.3603515625,77.5,-142.5609756097561,54.085365853658544,140,4
384,-0.61328125,0.365234375,0.3740234375,75.0,-140.1219512195122,51.40243902439025,140,4
385,-0.60791015625,0.359375,0.40478515625,73.53658536585367,-138.1707317073171,49.51219512195122,140,4
386,-0.61279296875,0.35546875,0.4111328125,72.43902439024392,-136.76829268292684,48.963414634146346,140,4
387,-0.642578125,0.34326171875,0.42041015625,71.52439024390245,-136.58536585365854,49.146341463414636,140,4
388,-0.705078125,0.30810546875,0.39599609375,70.97560975609757,-137.19512195121953,50.487804878048784,140,4
389,-0.748046875,0.30419921875,0.390625,73.23170731707317,-138.1707317073171,50.0609756097561,140,4
390,-0.76171875,0.32373046875,0.40869140625,77.6219512195122,-139.39024390243904,50.97560975609756,140,4
391,-0.72705078125,0.31494140625,0.4140625,80.79268292682927,-139.02439024390245,52.07317073170732,140,4
392,-0.69580078125,0.330078125,0.41015625,80.54878048780489,-136.70731707317074,53.17073170731708,140,4
393,-0.66943359375,0.33447265625,0.384765625,77.19512195121952,-133.59756097560978,53.84146341463415,140,4
394,-0.6435546875,0.35986328125,0.38525390625,75.0609756097561,-130.3658536585366,53.84146341463415,140,4
395,-0.61865234375,0.39306640625,0.45458984375,74.14634146341464,-128.2317073170732,54.207317073170735,140,4
396,-0.5849609375,0.39599609375,0.46923828125,74.08536585365854,-127.8048780487805,55.79268292682927,140,4
397,-0.56591796875,0.37890625,0.45458984375,75.1829268292683,-128.35365853658539,57.07317073170732,140,4
398,-0.583984375,0.365234375,0.44921875,76.52439024390245,-128.0487804878049,56.463414634146346,140,4
399,-0.57861328125,0.40185546875,0.43408203125,79.26829268292684,-128.59756097560978,56.646341463414636,140,4
400,-0.56591796875,0.43994140625,0.44580078125,81.03658536585367,-128.2926829268293,57.43902439024391,140,4
401,-0.52783203125,0.46923828125,0.4619140625,79.02439024390245,-126.89024390243904,58.53658536585366,140,4
402,-0.5166015625,0.498046875,0.4443359375,74.26829268292684,-140.3658536585366,59.75609756097562,140,4
403,-0.5029296875,0.51953125,0.42236328125,70.2439024390244,-123.17073170731709,60.365853658536594,140,4
404,-0.50244140625,0.53173828125,0.43017578125,68.71951219512195,-123.10975609756099,62.37804878048781,140,4
405,-0.5087890625,0.53369140625,0.455078125,67.7439024390244,-122.98780487804879,65.1829268292683,140,4
406,-0.50146484375,0.5078125,0.439453125,67.43902439024392,-122.8658536585366,68.10975609756098,140,4
407,-0.62158203125,0.4892578125,0.45263671875,68.23170731707317,-122.7439024390244,70.1219512195122,140,4
408,-0.4775390625,0.49853515625,0.46142578125,71.40243902439025,-122.8658536585366,72.07317073170732,140,4
409,-0.44189453125,0.49267578125,0.45703125,74.08536585365854,-122.25609756097562,73.90243902439025,140,4
410,-0.41259765625,0.49462890625,0.43408203125,72.43902439024392,-119.45121951219514,75.48780487804879,140,4
411,-0.35107421875,0.5283203125,0.4140625,68.59756097560977,-117.01219512195122,77.07317073170732,140,4
412,-0.32568359375,0.56689453125,0.40625,65.0,-116.03658536585367,78.71951219512196,140,4
413,-0.30419921875,0.5810546875,0.4365234375,60.426829268292686,-115.3658536585366,80.3658536585366,140,4
414,-0.28369140625,0.59375,0.4443359375,55.1219512195122,-113.78048780487806,81.89024390243902,140,4
415,-0.263671875,0.60498046875,0.46533203125,50.243902439024396,-112.6219512195122,82.50000000000001,140,4
416,-0.2646484375,0.6201171875,0.47607421875,46.28048780487805,-112.25609756097562,83.10975609756099,140,4
417,-0.26416015625,0.62353515625,0.4853515625,43.963414634146346,-112.8658536585366,84.32926829268294,140,4
418,-0.25439453125,0.59765625,0.50830078125,43.78048780487805,-113.96341463414635,85.48780487804879,140,4
419,-0.2529296875,0.5751953125,0.51806640625,46.40243902439025,-114.93902439024392,85.67073170731707,140,4
420,-0.2216796875,0.5830078125,0.48681640625,48.963414634146346,-115.1829268292683,86.58536585365854,140,4
421,-0.19677734375,0.59765625,0.48974609375,49.268292682926834,-113.90243902439025,87.92682926829269,140,4
422,-0.1435546875,0.5009765625,0.45361328125,47.43902439024391,-111.89024390243904,89.20731707317074,140,4
423,-0.11376953125,0.6474609375,0.455078125,45.54878048780488,-110.79268292682927,90.2439024390244,140,4
424,-0.0830078125,0.6630859375,0.4580078125,44.390243902439025,-110.73170731707319,91.09756097560977,140,4
425,-0.06494140625,0.66357421875,0.46337890625,44.207317073170735,-111.89024390243904,92.5609756097561,140,4
426,-0.05859375,0.67578125,0.466796875,43.90243902439025,-112.92682926829269,93.23170731707317,140,4
427,-0.05517578125,0.69091796875,0.453125,41.21951219512196,-112.7439024390244,93.47560975609757,140,4
428,-0.05029296875,0.7060546875,0.46630859375,37.43902439024391,-112.25609756097562,93.41463414634147,140,4
429,-0.03759765625,0.7373046875,0.4853515625,33.53658536585366,-111.34146341463416,93.04878048780489,140,4
430,-0.0068359375,0.74951171875,0.48876953125,30.54878048780488,-111.58536585365854,92.37804878048782,140,4
431,-0.001953125,0.626953125,0.51513671875,28.84146341463415,-110.73170731707319,91.15853658536587,140,4
432,0.02490234375,0.75146484375,0.52978515625,29.02439024390244,-110.54878048780489,90.97560975609757,140,4
433,0.04833984375,0.72509765625,0.53076171875,30.792682926829272,-111.58536585365854,91.46341463414635,140,4
434,0.060546875,0.70947265625,0.521484375,33.90243902439025,-112.50000000000001,91.15853658536587,140,4
435,0.08349609375,0.6982421875,0.50927734375,36.82926829268293,-113.65853658536587,90.79268292682927,140,4
436,0.09326171875,0.708984375,0.50732421875,39.63414634146342,-114.93902439024392,90.60975609756099,140,4
437,0.09375,0.71923828125,0.48046875,42.01219512195122,-115.3048780487805,90.48780487804879,140,4
438,0.10546875,0.72119140625,0.47607421875,40.1219512195122,-112.56097560975611,90.00000000000001,140,4
439,0.15185546875,0.73974609375,0.4736328125,37.01219512195122,-108.78048780487806,89.45121951219512,140,4
440,0.205078125,0.74609375,0.4521484375,33.90243902439025,-106.52439024390245,89.57317073170732,140,4
441,0.2294921875,0.74365234375,0.42724609375,31.463414634146343,-105.2439024390244,88.47560975609757,140,4
442,0.2607421875,0.7587890625,0.44189453125,31.951219512195124,-105.60975609756099,87.6219512195122,140,4
443,0.26513671875,0.75,0.4814453125,34.146341463414636,-106.40243902439025,87.6219512195122,140,4
444,0.26953125,0.7451171875,0.486328125,37.6219512195122,-106.34146341463416,87.19512195121952,140,4
445,0.26220703125,0.74169921875,0.4619140625,41.28048780487805,-105.67073170731709,85.91463414634147,140,4
446,0.26318359375,0.736328125,0.39453125,43.90243902439025,-105.00000000000001,84.39024390243902,140,4
447,0.30810546875,0.7666015625,0.35107421875,46.58536585365854,-106.52439024390245,83.17073170731707,140,4
448,0.341796875,0.76904296875,0.3349609375,47.86585365853659,-108.35365853658537,83.23170731707317,140,4
449,0.3583984375,0.7763671875,0.34814453125,47.86585365853659,-108.65853658536587,82.5609756097561,140,4
450,0.359375,0.783203125,0.38671875,44.63414634146342,-106.58536585365854,81.64634146341464,140,4
451,0.3681640625,0.802734375,0.431640625,40.487804878048784,-101.76829268292684,80.3048780487805,140,4
452,0.35693359375,0.81884765625,0.466796875,36.21951219512196,-97.01219512195122,79.75609756097562,140,4
453,0.34375,0.82080078125,0.46044921875,33.41463414634146,-93.17073170731707,79.02439024390245,140,4
454,0.34765625,0.8046875,0.4326171875,32.43902439024391,-92.19512195121952,78.59756097560977,140,4
455,0.341796875,0.7744140625,0.36865234375,33.65853658536586,-93.23170731707317,78.47560975609757,140,4
456,0.3525390625,0.751953125,0.3486328125,36.09756097560976,-95.1829268292683,78.17073170731707,140,4
457,0.3525390625,0.74853515625,0.33154296875,39.390243902439025,-96.76829268292684,77.7439024390244,140,4
458,0.3916015625,0.748046875,0.296875,41.15853658536586,-97.6829268292683,77.07317073170732,140,4
459,0.41650390625,0.73876953125,0.27197265625,41.40243902439025,-98.53658536585367,76.58536585365854,140,4
460,0.44189453125,0.7158203125,0.26025390625,40.1829268292683,-98.78048780487806,75.79268292682927,140,4
461,0.4482421875,0.7177734375,0.29736328125,35.97560975609756,-97.8658536585366,76.03658536585367,140,4
462,0.4375,0.7216796875,0.302734375,28.902439024390247,-109.08536585365854,75.67073170731707,140,4
463,0.44921875,0.76171875,0.33056640625,22.195121951219512,-89.57317073170732,74.57317073170732,140,4
464,0.46923828125,0.78515625,0.361328125,17.621951219512198,-87.6829268292683,74.20731707317074,140,4
465,0.48046875,0.76806640625,0.36669921875,31.158536585365855,-86.46341463414635,74.02439024390245,140,4
466,0.48779296875,0.73974609375,0.36669921875,15.365853658536587,-86.64634146341464,74.57317073170732,140,4
467,0.45849609375,0.72705078125,0.255859375,16.28048780487805,-87.25609756097562,74.02439024390245,140,4
468,0.453125,0.732421875,0.34912109375,18.170731707317074,-86.89024390243904,73.53658536585367,140,4
469,0.458984375,0.736328125,0.3154296875,19.390243902439025,-87.25609756097562,73.53658536585367,140,4
470,0.482421875,0.7421875,0.2763671875,20.48780487804878,-87.7439024390244,73.90243902439025,140,4
471,0.49609375,0.734375,0.37060546875,21.097560975609756,-87.43902439024392,74.20731707317074,140,4
472,0.50390625,0.7158203125,0.23388671875,19.878048780487806,-86.15853658536587,74.14634146341464,140,4
473,0.525390625,0.69921875,0.212890625,17.439024390243905,-83.53658536585367,74.02439024390245,140,4
474,0.537109375,0.701171875,0.24560546875,15.426829268292684,-80.60975609756099,72.7439024390244,140,4
475,0.5498046875,0.70556640625,0.13232421875,15.426829268292684,-93.59756097560977,71.28048780487805,140,4
476,0.5654296875,0.724609375,0.2646484375,16.03658536585366,-74.63414634146342,68.90243902439025,140,4
477,0.58642578125,0.72998046875,0.2626953125,17.134146341463417,-72.01219512195122,67.19512195121952,140,4
478,0.6103515625,0.62548828125,0.24658203125,19.085365853658537,-69.87804878048782,65.2439024390244,140,4
479,0.61474609375,0.75390625,0.23193359375,21.158536585365855,-67.6219512195122,62.743902439024396,140,4
480,0.6044921875,0.75439453125,0.20654296875,21.951219512195124,-64.9390243902439,60.060975609756106,140,4
481,0.60546875,0.7626953125,0.193359375,21.34146341463415,-61.89024390243903,57.31707317073171,140,4
482,0.609375,0.78466796875,0.18408203125,19.634146341463417,-58.47560975609757,55.0609756097561,140,4
483,0.6044921875,0.77392578125,0.16455078125,16.646341463414636,-56.09756097560976,53.17073170731708,140,4
484,0.5810546875,0.75439453125,0.17138671875,13.841463414634148,-53.78048780487806,51.15853658536586,140,4
485,0.583984375,0.73828125,0.17578125,13.04878048780488,-52.25609756097561,49.024390243902445,140,4
486,0.58447265625,0.72021484375,0.19189453125,12.560975609756099,-51.40243902439025,62.31707317073171,140,4
487,0.5986328125,0.71728515625,0.22021484375,11.890243902439025,-49.51219512195122,44.451219512195124,140,4
488,0.609375,0.71240234375,0.24609375,11.463414634146343,-47.25609756097561,42.50000000000001,140,4
489,0.6201171875,0.73193359375,0.26904296875,10.121951219512196,-43.71951219512196,40.487804878048784,140,4
490,0.61962890625,0.728515625,0.2958984375,8.597560975609756,-40.1219512195122,38.59756097560976,140,4
491,0.61328125,0.728515625,0.27783203125,7.926829268292684,-38.10975609756098,36.34146341463415,140,4
492,0.6064453125,0.72412109375,0.2275390625,7.987804878048781,-36.58536585365854,32.43902439024391,140,4
493,0.6103515625,0.71630859375,0.1806640625,7.682926829268293,-35.1219512195122,29.451219512195124,140,4
494,0.630859375,0.7373046875,0.18310546875,5.975609756097562,-32.5609756097561,26.219512195121954,140,4
495,0.65283203125,0.74560546875,0.1787109375,3.658536585365854,-29.75609756097561,23.84146341463415,140,4
496,0.65087890625,0.740234375,0.1806640625,1.6463414634146343,-27.80487804878049,21.463414634146343,140,4
497,0.74951171875,0.708984375,0.17138671875,-0.24390243902439027,-24.939024390243905,18.353658536585368,140,4
498,0.74609375,0.71142578125,0.18017578125,-2.073170731707317,-21.890243902439025,16.03658536585366,140,4
499,0.63525390625,0.716796875,0.20068359375,-4.207317073170732,-18.170731707317074,13.414634146341465,140,4
