,Ax,Ay,Az,Gx,Gy,Gz,distance,shot_type
0,0.5048828125,-0.56884765625,-0.189453125,-11.585365853658537,17.073170731707318,-2.9268292682926833,135,3
1,0.513671875,-0.52197265625,-0.193359375,-14.451219512195124,17.378048780487806,-1.707317073170732,135,3
2,0.556640625,-0.4892578125,-0.18212890625,-18.53658536585366,17.865853658536587,1.0365853658536586,135,3
3,0.603515625,-0.4873046875,-0.19970703125,-22.439024390243905,18.963414634146343,2.439024390243903,135,3
4,0.6357421875,-0.48291015625,-0.224609375,-24.878048780487806,20.0,1.6463414634146343,135,3
5,0.68359375,-0.458984375,-0.20849609375,-23.84146341463415,19.634146341463417,1.0365853658536586,135,3
6,0.7099609375,-0.45556640625,-0.21142578125,-20.48780487804878,18.84146341463415,0.30487804878048785,135,3
7,0.72314453125,-0.46484375,-0.2197265625,-16.158536585365855,16.82926829268293,0.06097560975609757,135,3
8,0.71142578125,-0.46728515625,-0.22509765625,-9.939024390243903,15.060975609756099,-0.426829268292683,135,3
9,0.68310546875,-0.47705078125,-0.17822265625,-4.817073170731708,12.987804878048781,-0.24390243902439027,135,3
10,0.6845703125,-0.4580078125,-0.17333984375,-1.6463414634146343,11.341463414634147,0.9756097560975611,135,3
11,0.71533203125,-0.4091796875,-0.15283203125,-1.3414634146341464,11.951219512195124,1.707317073170732,135,3
12,0.720703125,-0.39501953125,-0.15625,-5.365853658536586,14.329268292682928,2.6219512195121952,135,3
13,0.87255859375,-0.380859375,-0.2158203125,-10.548780487804878,16.463414634146343,2.9268292682926833,135,3
14,0.79638671875,-0.357421875,-0.24560546875,-0.426829268292683,18.963414634146343,2.25609756097561,135,3
15,0.8212890625,-0.3515625,-0.2177734375,-20.365853658536587,19.81707317073171,2.25609756097561,135,3
16,0.7958984375,-0.38720703125,-0.20458984375,-21.52439024390244,18.78048780487805,1.402439024390244,135,3
17,0.77783203125,-0.41357421875,-0.23388671875,-17.804878048780488,14.329268292682928,-0.6707317073170732,135,3
18,0.75048828125,-0.439453125,-0.1328125,-10.121951219512196,9.451219512195122,-3.7195121951219514,135,3
19,0.72119140625,-0.4775390625,-0.28076171875,-0.6097560975609757,3.5975609756097566,-6.097560975609756,135,3
20,0.74169921875,-0.46337890625,-0.255859375,9.146341463414634,-1.6463414634146343,-7.560975609756098,135,3
21,0.75048828125,-0.45556640625,-0.23779296875,0.12195121951219513,-5.182926829268293,-8.170731707317074,135,3
22,0.73583984375,-0.44287109375,-0.23681640625,20.182926829268293,-7.439024390243903,-7.8048780487804885,135,3
23,0.71826171875,-0.4326171875,-0.23046875,20.365853658536587,-7.317073170731708,-7.926829268292684,135,3
24,0.74951171875,-0.392578125,-0.24609375,15.731707317073171,-5.182926829268293,-9.146341463414634,135,3
25,0.775390625,-0.38720703125,-0.216796875,7.439024390243903,-0.30487804878048785,-9.634146341463415,135,3
26,0.7705078125,-0.39599609375,-0.22216796875,-0.9756097560975611,3.353658536585366,-9.573170731707318,135,3
27,0.73779296875,-0.4541015625,-0.20458984375,-3.8414634146341466,5.3048780487804885,-9.329268292682928,135,3
28,0.70703125,-0.48974609375,-0.1826171875,-3.780487804878049,4.75609756097561,-9.390243902439025,135,3
29,0.703125,-0.5078125,-0.21533203125,-0.1829268292682927,1.8902439024390245,-9.085365853658537,135,3
30,0.71044921875,-0.52099609375,-0.26318359375,5.2439024390243905,-3.048780487804878,-8.719512195121952,135,3
31,0.7109375,-0.54443359375,-0.2626953125,9.451219512195122,-6.585365853658537,-8.78048780487805,135,3
32,0.70361328125,-0.56103515625,-0.27294921875,0.1829268292682927,-11.76829268292683,-7.073170731707318,135,3
33,0.6669921875,-0.57080078125,-0.279296875,21.03658536585366,-15.426829268292684,-6.463414634146342,135,3
34,0.666015625,-0.5859375,-0.2919921875,24.146341463414636,-17.31707317073171,-5.548780487804878,135,3
35,0.68212890625,-0.55029296875,-0.2802734375,23.59756097560976,-16.03658536585366,-4.878048780487806,135,3
36,0.673828125,-0.5625,-0.28125,18.53658536585366,-13.29268292682927,-3.4756097560975614,135,3
37,0.65673828125,-0.546875,-0.26708984375,11.646341463414634,-10.365853658536587,-1.8902439024390245,135,3
38,0.63330078125,-0.55810546875,-0.2333984375,8.414634146341465,-11.402439024390246,0.7926829268292683,135,3
39,0.60302734375,-0.57568359375,-0.24951171875,9.573170731707318,-14.085365853658537,1.8902439024390245,135,3
40,0.5966796875,-0.5810546875,-0.25390625,12.865853658536587,-16.463414634146343,2.1341463414634148,135,3
41,0.62255859375,-0.55615234375,-0.2587890625,16.34146341463415,-17.865853658536587,1.7682926829268295,135,3
42,0.6533203125,-0.5185546875,-0.375,17.439024390243905,-17.865853658536587,1.707317073170732,135,3
43,0.6796875,-0.4853515625,-0.2607421875,16.951219512195124,-18.475609756097562,2.987804878048781,135,3
44,0.6533203125,-0.5126953125,-0.29150390625,17.439024390243905,-17.073170731707318,3.2926829268292686,135,3
45,0.64501953125,-0.5263671875,-0.275390625,18.597560975609756,-15.060975609756099,2.25609756097561,135,3
46,0.66845703125,-0.5224609375,-0.25244140625,19.32926829268293,-12.926829268292684,1.707317073170732,135,3
47,0.6650390625,-0.53076171875,-0.2333984375,17.98780487804878,-10.731707317073171,3.1707317073170733,135,3
48,0.63623046875,-0.56884765625,-0.275390625,17.926829268292686,-13.109756097560977,5.121951219512195,135,3
49,0.603515625,-0.57470703125,-0.27294921875,19.939024390243905,-12.865853658536587,5.3048780487804885,135,3
50,0.50537109375,-0.57373046875,-0.2587890625,22.012195121951223,-12.865853658536587,5.609756097560976,135,3
51,0.65625,-0.52099609375,-0.37158203125,22.31707317073171,-11.646341463414634,5.060975609756098,135,3
52,0.67724609375,-0.50634765625,-0.2294921875,22.134146341463417,-11.036585365853659,5.7926829268292686,135,3
53,0.65380859375,-0.5068359375,-0.22509765625,21.707317073170735,-10.365853658536587,5.548780487804878,135,3
54,0.65771484375,-0.482421875,-0.2119140625,20.914634146341466,-9.451219512195122,4.207317073170732,135,3
55,0.6806640625,-0.45849609375,-0.2001953125,18.597560975609756,-9.26829268292683,4.51219512195122,135,3
56,0.67138671875,-0.4951171875,-0.30517578125,12.865853658536587,-9.02439024390244,3.7195121951219514,135,3
57,0.66796875,-0.50732421875,-0.3046875,11.28048780487805,-6.036585365853659,2.5609756097560976,135,3
58,0.67529296875,-0.49853515625,-0.275390625,12.195121951219512,-4.634146341463415,1.707317073170732,135,3
59,0.70751953125,-0.49267578125,-0.2646484375,11.646341463414634,-4.024390243902439,2.804878048780488,135,3
60,0.6552734375,-0.5546875,-0.25244140625,12.073170731707318,-5.060975609756098,4.2682926829268295,135,3
61,0.611328125,-0.587890625,-0.259765625,15.060975609756099,-5.487804878048781,5.182926829268293,135,3
62,0.63671875,-0.56005859375,-0.2421875,16.76829268292683,-5.670731707317073,4.939024390243903,135,3
63,0.6796875,-0.49853515625,-0.2236328125,14.695121951219514,-3.536585365853659,5.182926829268293,135,3
64,0.68115234375,-0.46435546875,-0.216796875,11.646341463414634,-0.853658536585366,5.121951219512195,135,3
65,0.65380859375,-0.47509765625,-0.19091796875,10.731707317073171,1.0365853658536586,4.329268292682928,135,3
66,0.6552734375,-0.47314453125,-0.19677734375,13.04878048780488,-1.1585365853658538,3.9024390243902443,135,3
67,0.6513671875,-0.47314453125,-0.232421875,15.182926829268293,-2.439024390243903,1.9512195121951221,135,3
68,0.66552734375,-0.46875,-0.24609375,16.219512195121954,-1.6463414634146343,0.9756097560975611,135,3
69,0.68701171875,-0.45166015625,-0.23681640625,17.073170731707318,-1.8902439024390245,0.06097560975609757,135,3
70,0.69384765625,-0.4580078125,-0.23583984375,18.04878048780488,-2.5609756097560976,0.5487804878048781,135,3
71,0.68310546875,-0.4658203125,-0.2802734375,20.0,-4.817073170731708,0.9146341463414634,135,3
72,0.66064453125,-0.50732421875,-0.32373046875,22.743902439024392,-5.365853658536586,0.1829268292682927,135,3
73,0.7177734375,-0.4873046875,-0.32568359375,22.743902439024392,-3.5975609756097566,-1.0975609756097562,135,3
74,0.7607421875,-0.4482421875,-0.3125,19.085365853658537,-0.7926829268292683,-1.5853658536585367,135,3
75,0.74853515625,-0.4423828125,-0.2724609375,15.731707317073171,1.402439024390244,-1.707317073170732,135,3
76,0.71630859375,-0.46142578125,-0.265625,14.695121951219514,1.829268292682927,-1.7682926829268295,135,3
77,0.71875,-0.46923828125,-0.24169921875,14.26829268292683,2.5,-2.1951219512195124,135,3
78,0.74072265625,-0.4560546875,-0.216796875,12.987804878048781,3.4756097560975614,-2.378048780487805,135,3
79,0.74560546875,-0.45068359375,-0.2412109375,11.402439024390246,2.378048780487805,-2.073170731707317,135,3
80,0.71533203125,-0.462890625,-0.126953125,10.487804878048781,3.536585365853659,-2.8658536585365857,135,3
81,0.72900390625,-0.4794921875,-0.24267578125,10.182926829268293,3.8414634146341466,-2.987804878048781,135,3
82,0.7431640625,-0.4619140625,-0.23583984375,10.670731707317074,2.987804878048781,-3.414634146341464,135,3
83,0.87255859375,-0.45947265625,-0.30078125,10.975609756097562,3.4756097560975614,-3.414634146341464,135,3
84,0.74755859375,-0.47607421875,-0.31103515625,10.670731707317074,3.4756097560975614,-3.4756097560975614,135,3
85,0.73779296875,-0.48828125,-0.29638671875,9.207317073170733,4.939024390243903,-4.207317073170732,135,3
86,0.75927734375,-0.478515625,-0.27099609375,6.402439024390245,7.317073170731708,-4.51219512195122,135,3
87,0.7412109375,-0.48779296875,-0.2578125,4.390243902439025,8.414634146341465,-4.146341463414634,135,3
88,0.70556640625,-0.4990234375,-0.244140625,3.963414634146342,8.902439024390244,-4.085365853658537,135,3
89,0.6806640625,-0.52783203125,-0.2255859375,4.2682926829268295,8.414634146341465,-3.963414634146342,135,3
90,0.66943359375,-0.5205078125,-0.2197265625,5.2439024390243905,7.439024390243903,-3.658536585365854,135,3
91,0.66455078125,-0.5302734375,-0.23876953125,5.487804878048781,5.731707317073171,-3.963414634146342,135,3
92,0.68896484375,-0.4970703125,-0.1318359375,5.609756097560976,5.7926829268292686,-4.2682926829268295,135,3
93,0.70751953125,-0.48388671875,-0.26904296875,5.060975609756098,6.036585365853659,-4.2682926829268295,135,3
94,0.68212890625,-0.5087890625,-0.28564453125,5.853658536585367,4.817073170731708,-3.5975609756097566,135,3
95,0.67578125,-0.53173828125,-0.28515625,7.743902439024391,4.207317073170732,-3.4756097560975614,135,3
96,0.66943359375,-0.54931640625,-0.28515625,9.329268292682928,4.085365853658537,-3.414634146341464,135,3
97,0.68798828125,-0.533203125,-0.2705078125,9.085365853658537,5.365853658536586,-3.2926829268292686,135,3
98,0.69873046875,-0.52099609375,-0.2626953125,7.134146341463415,7.682926829268293,-3.1097560975609757,135,3
99,0.69287109375,-0.521484375,-0.2431640625,5.0,9.146341463414634,-2.5,135,3
100,0.66259765625,-0.53466796875,-0.2431640625,4.695121951219512,8.475609756097562,-1.8902439024390245,135,3
101,0.634765625,-0.55908203125,-0.2373046875,6.646341463414635,7.195121951219513,-1.2195121951219514,135,3
102,0.63427734375,-0.56396484375,-0.22900390625,8.353658536585366,6.158536585365854,-0.7317073170731708,135,3
103,0.634765625,-0.57666015625,-0.24462890625,10.670731707317074,4.75609756097561,-0.6097560975609757,135,3
104,0.630859375,-0.58447265625,-0.25830078125,13.78048780487805,5.182926829268293,-1.0975609756097562,135,3
105,0.6689453125,-0.5625,-0.25830078125,17.134146341463417,5.0,-1.2195121951219514,135,3
106,0.66552734375,-0.5693359375,-0.20556640625,20.182926829268293,4.451219512195122,-0.5487804878048781,135,3
107,0.6572265625,-0.56640625,-0.19091796875,21.158536585365855,4.573170731707317,0.0,135,3
108,0.65673828125,-0.57275390625,-0.177734375,20.182926829268293,6.036585365853659,0.426829268292683,135,3
109,0.66845703125,-0.5625,-0.1640625,18.597560975609756,8.109756097560977,0.48780487804878053,135,3
110,0.68994140625,-0.5361328125,-0.142578125,16.76829268292683,10.548780487804878,0.426829268292683,135,3
111,0.70947265625,-0.52001953125,-0.12646484375,13.231707317073171,14.573170731707318,0.7926829268292683,135,3
112,0.69580078125,-0.5244140625,-0.14794921875,8.597560975609756,18.963414634146343,1.707317073170732,135,3
113,0.6787109375,-0.5283203125,-0.16455078125,4.146341463414634,20.60975609756098,3.414634146341464,135,3
114,0.662109375,-0.537109375,-0.185546875,2.1951219512195124,21.890243902439025,4.51219512195122,135,3
115,0.66552734375,-0.55712890625,-0.1689453125,0.48780487804878053,23.78048780487805,5.426829268292684,135,3
116,0.68115234375,-0.5166015625,-0.14990234375,-0.6097560975609757,26.09756097560976,6.463414634146342,135,3
117,0.69970703125,-0.48974609375,-0.1630859375,-5.2439024390243905,29.08536585365854,7.378048780487806,135,3
118,0.69091796875,-0.4619140625,-0.17236328125,-10.365853658536587,32.743902439024396,8.902439024390244,135,3
119,0.6630859375,-0.4833984375,-0.16845703125,-0.6707317073170732,39.51219512195122,12.560975609756099,135,3
120,0.65283203125,-0.55712890625,-0.244140625,-16.34146341463415,46.768292682926834,19.81707317073171,135,3
121,0.55859375,-0.70068359375,-0.283203125,-49.32926829268293,47.5609756097561,22.80487804878049,135,3
122,0.48681640625,-0.55322265625,-0.16064453125,-59.268292682926834,77.7439024390244,13.353658536585368,135,3
123,0.85693359375,-0.14013671875,-0.21337890625,-54.63414634146342,71.40243902439025,12.987804878048781,135,3
124,0.91455078125,-0.1552734375,-0.265625,-57.865853658536594,69.51219512195122,18.353658536585368,135,3
125,0.73193359375,-0.4228515625,-0.31884765625,-69.51219512195122,75.0609756097561,17.804878048780488,135,3
126,0.6396484375,-0.40966796875,-0.3125,-62.804878048780495,69.63414634146342,15.426829268292684,135,3
127,0.7255859375,-0.2919921875,-0.31787109375,-56.707317073170735,67.92682926829269,15.975609756097562,135,3
128,0.83544921875,-0.1591796875,-0.322265625,-68.41463414634147,75.97560975609757,31.158536585365855,135,3
129,0.830078125,-0.15966796875,-0.3076171875,-79.93902439024392,79.26829268292684,14.695121951219514,135,3
130,0.7822265625,-0.18017578125,-0.314453125,-82.43902439024392,77.31707317073172,13.170731707317074,135,3
131,0.77392578125,-0.1708984375,-0.3896484375,-86.09756097560977,77.92682926829269,9.329268292682928,135,3
132,0.80322265625,-0.1181640625,-0.3955078125,-90.48780487804879,77.25609756097562,6.707317073170732,135,3
133,0.8193359375,-0.119140625,-0.40576171875,-92.5609756097561,75.79268292682927,3.7195121951219514,135,3
134,0.82373046875,-0.10791015625,-0.3955078125,-95.1829268292683,72.7439024390244,0.7317073170731708,135,3
135,0.7763671875,-0.11865234375,-0.41650390625,-98.53658536585367,70.3658536585366,-1.8902439024390245,135,3
136,0.73291015625,-0.1025390625,-0.431640625,-100.60975609756099,67.25609756097562,-5.487804878048781,135,3
137,0.7373046875,-0.05419921875,-0.44287109375,-102.98780487804879,65.60975609756098,-9.02439024390244,135,3
138,0.76904296875,-0.00341796875,-0.43603515625,-106.46341463414635,64.02439024390245,-12.621951219512196,135,3
139,0.78515625,-0.013671875,-0.48046875,-109.08536585365854,62.743902439024396,-16.097560975609756,135,3
140,0.75146484375,-0.033203125,-0.48095703125,-112.01219512195122,61.768292682926834,-19.634146341463417,135,3
141,0.7705078125,-0.013671875,-0.51513671875,-119.32926829268294,63.65853658536586,-24.573170731707318,135,3
142,0.80029296875,0.04150390625,-0.52294921875,-128.90243902439025,67.13414634146342,-29.146341463414636,135,3
143,0.8046875,0.0224609375,-0.53369140625,-137.6829268292683,69.20731707317074,-33.29268292682927,135,3
144,0.7978515625,-0.0107421875,-0.51611328125,-142.6829268292683,70.0,-36.58536585365854,135,3
145,0.79248046875,-0.0205078125,-0.51708984375,-144.87804878048783,68.59756097560977,-40.73170731707317,135,3
146,0.83544921875,-0.12109375,-0.55712890625,-147.25609756097563,65.91463414634147,-44.51219512195122,135,3
147,0.85107421875,0.00830078125,-0.560546875,-151.28048780487805,64.39024390243902,-48.963414634146346,135,3
148,0.88916015625,0.025390625,-0.55908203125,-156.82926829268294,66.34146341463415,-53.65853658536586,135,3
149,0.9296875,0.06005859375,-0.5654296875,-167.01219512195124,70.48780487804879,-58.41463414634147,135,3
150,0.93408203125,0.0859375,-0.5615234375,-179.57317073170734,75.54878048780489,-63.35365853658537,135,3
151,0.9384765625,0.07177734375,-0.5576171875,-189.20731707317074,79.02439024390245,-68.04878048780489,135,3
152,0.9248046875,0.00927734375,-0.53662109375,-193.71951219512198,78.96341463414635,-70.85365853658537,135,3
153,0.91943359375,-0.04638671875,-0.5615234375,-194.63414634146343,77.8048780487805,-77.07317073170732,135,3
154,0.96630859375,0.037109375,-0.57861328125,-195.3658536585366,77.8048780487805,-83.04878048780489,135,3
155,1.04296875,0.10546875,-0.54443359375,-198.2317073170732,79.14634146341464,-87.6829268292683,135,3
156,1.0966796875,0.09814453125,-0.580078125,-201.95121951219514,79.39024390243902,-93.23170731707317,135,3
157,1.1162109375,0.1044921875,-0.5986328125,-207.19512195121953,81.21951219512196,-99.87804878048782,135,3
158,1.1591796875,0.1416015625,-0.59423828125,-212.25609756097563,82.31707317073172,-106.70731707317074,135,3
159,1.2080078125,0.17724609375,-0.57861328125,-217.8048780487805,85.2439024390244,-112.6829268292683,135,3
160,1.24169921875,0.2470703125,-0.54443359375,-219.87804878048783,87.5609756097561,-117.8048780487805,135,3
161,1.21875,0.05908203125,-0.55322265625,-221.09756097560978,86.95121951219512,-122.6829268292683,135,3
162,1.22412109375,0.07666015625,-0.5517578125,-218.65853658536588,86.40243902439025,-128.53658536585368,135,3
163,1.2197265625,0.08251953125,-0.521484375,-217.50000000000003,88.04878048780489,-135.0,135,3
164,1.2431640625,0.1083984375,-0.47412109375,-215.3658536585366,88.17073170731707,-139.63414634146343,135,3
165,1.2685546875,0.0,-0.42822265625,-213.41463414634148,87.5609756097561,-145.3658536585366,135,3
166,1.2998046875,0.1357421875,-0.44384765625,-210.00000000000003,85.48780487804879,-150.7317073170732,135,3
167,1.3701171875,0.20947265625,-0.4912109375,-208.53658536585368,86.34146341463415,-158.109756097561,135,3
168,1.4658203125,0.27392578125,-0.4931640625,-212.50000000000003,89.51219512195122,-165.2439024390244,135,3
169,1.529296875,0.27001953125,-0.49658203125,-217.9878048780488,91.64634146341464,-172.19512195121953,135,3
170,1.53515625,0.21337890625,-0.62353515625,-219.69512195121953,92.6829268292683,-180.5487804878049,135,3
171,1.57568359375,0.19775390625,-0.47216796875,-216.03658536585368,94.75609756097562,-188.2926829268293,135,3
172,1.50048828125,0.2421875,-0.40283203125,-210.6707317073171,94.14634146341464,-193.96341463414635,135,3
173,1.6455078125,0.20361328125,-0.390625,-208.78048780487808,96.64634146341464,-197.9878048780488,135,3
174,1.64990234375,0.18701171875,-0.3310546875,-206.34146341463418,98.04878048780489,-201.70731707317074,135,3
175,1.6435546875,0.166015625,-0.28955078125,-200.3048780487805,96.76829268292684,-206.52439024390245,135,3
176,1.685546875,0.21533203125,-0.26171875,-193.59756097560978,98.29268292682927,-211.64634146341464,135,3
177,1.7666015625,0.26220703125,-0.2294921875,-186.28048780487808,96.09756097560977,-217.37804878048783,135,3
178,1.83544921875,0.326171875,-0.24755859375,-180.00000000000003,96.95121951219512,-224.63414634146343,135,3
179,1.91943359375,0.353515625,-0.24560546875,-178.2317073170732,98.10975609756099,-230.5487804878049,135,3
180,1.96728515625,0.345703125,-0.2841796875,-180.85365853658539,101.46341463414635,-236.64634146341464,135,3
181,1.9462890625,0.2998046875,-0.2392578125,-180.3048780487805,106.70731707317074,-244.14634146341464,135,3
182,1.974609375,0.306640625,-0.21630859375,-178.1707317073171,110.00000000000001,-251.70731707317074,135,3
183,1.96533203125,0.2900390625,-0.17431640625,-175.2439024390244,111.34146341463416,-256.1585365853659,135,3
184,1.9208984375,0.2626953125,-0.15283203125,-170.3048780487805,111.46341463414635,-260.2439024390244,135,3
185,1.82421875,0.20947265625,-0.14599609375,-163.41463414634148,110.06097560975611,-263.1707317073171,135,3
186,1.76416015625,0.23583984375,-0.1591796875,-157.13414634146343,110.00000000000001,-266.2804878048781,135,3
187,1.73388671875,0.3056640625,-0.140625,-151.82926829268294,109.87804878048782,-268.2926829268293,135,3
188,1.72265625,0.35888671875,-0.1318359375,-147.6219512195122,107.37804878048782,-269.57317073170736,135,3
189,1.69091796875,0.31982421875,-0.15966796875,-144.69512195121953,105.3658536585366,-270.3048780487805,135,3
190,1.681640625,0.31689453125,-0.17041015625,-138.65853658536585,103.23170731707317,-272.01219512195127,135,3
191,1.72314453125,0.3896484375,-0.09716796875,-130.5487804878049,99.57317073170732,-273.2317073170732,135,3
192,1.7578125,0.41064453125,-0.0224609375,-124.08536585365854,97.6219512195122,-275.4268292682927,135,3
193,1.80517578125,0.37109375,-0.015625,-120.48780487804879,99.32926829268294,-279.57317073170736,135,3
194,1.85302734375,0.4091796875,0.015625,-115.1829268292683,99.63414634146342,-283.0487804878049,135,3
195,1.89501953125,0.431640625,0.048828125,-110.42682926829269,101.28048780487806,-286.4024390243903,135,3
196,1.89501953125,0.37939453125,0.04736328125,-108.84146341463416,103.78048780487806,-289.75609756097566,135,3
197,1.84326171875,0.2841796875,0.07275390625,-102.8048780487805,105.91463414634147,-291.70731707317077,135,3
198,1.78466796875,0.3740234375,0.0830078125,-91.58536585365854,105.60975609756099,-292.5,135,3
199,1.6875,0.17626953125,0.04638671875,-78.41463414634147,102.50000000000001,-291.3414634146342,135,3
200,1.5634765625,0.1845703125,0.11669921875,-64.57317073170732,101.09756097560977,-290.0,135,3
201,1.4765625,0.20849609375,0.16796875,-55.73170731707317,99.81707317073172,-288.4756097560976,135,3
202,1.39453125,0.18359375,0.177734375,-52.01219512195122,100.60975609756099,-287.07317073170736,135,3
203,1.326171875,0.146484375,0.18310546875,-51.03658536585366,100.3048780487805,-286.2804878048781,135,3
204,1.3701171875,0.11083984375,0.16162109375,-50.1829268292683,102.56097560975611,-286.5853658536586,135,3
205,1.20654296875,0.09033203125,0.17333984375,-49.51219512195122,103.65853658536587,-286.3414634146342,135,3
206,1.14013671875,-0.12255859375,0.19140625,-45.670731707317074,104.20731707317074,-285.0,135,3
207,1.083984375,-0.07470703125,0.19873046875,-42.743902439024396,102.31707317073172,-283.4146341463415,135,3
208,1.00927734375,-0.19384765625,0.19873046875,-38.170731707317074,101.03658536585367,-281.6463414634147,135,3
209,0.9384765625,-0.306640625,0.15576171875,-33.78048780487805,97.13414634146342,-277.6219512195122,135,3
210,0.8642578125,-0.3427734375,0.2236328125,-20.54878048780488,88.53658536585367,-271.4634146341464,135,3
211,0.76708984375,-0.4521484375,0.18212890625,-10.670731707317074,82.07317073170732,-264.63414634146346,135,3
212,0.74365234375,-0.47265625,0.1943359375,-3.353658536585366,75.0,-258.5365853658537,135,3
213,0.70068359375,-0.3759765625,0.193359375,0.5487804878048781,67.92682926829269,-248.35365853658539,135,3
214,0.5810546875,-0.57861328125,0.1845703125,15.487804878048783,65.73170731707317,-242.13414634146343,135,3
215,0.525390625,-0.5498046875,0.1552734375,-8.963414634146343,64.87804878048782,-232.13414634146343,135,3
216,0.35302734375,-0.69287109375,0.11328125,-21.28048780487805,63.963414634146346,-218.90243902439028,135,3
217,0.16845703125,-0.83544921875,0.0595703125,-28.292682926829272,64.02439024390245,-206.28048780487808,135,3
218,0.072265625,-0.92724609375,0.00048828125,-25.000000000000004,59.63414634146342,-192.6829268292683,135,3
219,-0.04296875,-1.078125,0.09423828125,-17.5609756097561,53.65853658536586,-177.43902439024393,135,3
220,-0.18359375,-1.21728515625,0.09716796875,-7.134146341463415,46.03658536585366,-161.64634146341464,135,3
221,-0.32177734375,-1.28955078125,0.203125,2.073170731707317,40.73170731707317,-147.5609756097561,135,3
222,-0.42041015625,-1.32763671875,0.2255859375,6.341463414634147,39.390243902439025,-132.9878048780488,135,3
223,-0.4912109375,-1.3994140625,0.228515625,9.390243902439025,36.82926829268293,-118.65853658536587,135,3
224,-0.6083984375,-1.4443359375,0.20703125,11.646341463414634,32.6219512195122,-102.6829268292683,135,3
225,-0.6669921875,-1.541015625,0.2158203125,14.634146341463415,27.987804878048784,-83.59756097560977,135,3
226,-0.71728515625,-1.6796875,0.224609375,19.512195121951223,25.975609756097562,-77.13414634146342,135,3
227,-0.7578125,-1.80615234375,0.16455078125,24.573170731707318,22.621951219512198,-36.15853658536586,135,3
228,-0.81298828125,-1.8994140625,0.1484375,33.65853658536586,19.32926829268293,-13.170731707317074,135,3
229,-0.82373046875,-1.93896484375,0.14990234375,42.5609756097561,9.695121951219512,12.80487804878049,135,3
230,-0.97802734375,-2.05859375,0.09375,47.6829268292683,15.54878048780488,36.34146341463415,135,3
231,-0.8779296875,-2.04248046875,0.23583984375,52.926829268292686,11.402439024390246,61.03658536585366,135,3
232,-0.8544921875,-2.03955078125,0.0634765625,57.43902439024391,9.756097560975611,82.98780487804879,135,3
233,-0.806640625,-2.04443359375,0.1689453125,59.451219512195124,5.975609756097562,109.08536585365854,135,3
234,-0.75927734375,-2.10546875,0.17138671875,61.34146341463415,1.3414634146341464,138.53658536585368,135,3
235,-0.6728515625,-2.20947265625,0.2333984375,63.23170731707317,-1.7682926829268295,166.58536585365854,135,3
236,-0.59326171875,-2.33056640625,0.08154296875,68.53658536585367,-6.2804878048780495,195.00000000000003,135,3
237,-0.44873046875,-2.427734375,0.11474609375,77.8048780487805,-9.329268292682928,222.62195121951223,135,3
238,-0.361328125,-2.5361328125,0.08251953125,87.37804878048782,-11.890243902439025,235.06097560975613,135,3
239,-0.119140625,-2.666015625,0.05322265625,95.2439024390244,-11.951219512195124,266.0365853658537,135,3
240,0.146484375,-2.7939453125,0.0517578125,100.3048780487805,-11.890243902439025,296.89024390243907,135,3
241,0.3740234375,-2.8837890625,0.123046875,103.23170731707317,-9.573170731707318,346.2804878048781,135,3
242,0.611328125,-3.2041015625,-0.04296875,113.17073170731709,-8.841463414634147,379.69512195121956,135,3
243,0.94921875,-3.416015625,-0.140625,127.25609756097562,-12.621951219512196,413.1707317073171,135,3
244,1.36376953125,-3.62060546875,-0.26171875,150.7926829268293,-18.414634146341466,448.6585365853659,135,3
245,1.75439453125,-3.81298828125,-0.36376953125,183.2317073170732,-25.000000000000004,482.86585365853665,135,3
246,2.47412109375,-3.95556640625,-0.54248046875,212.9268292682927,-35.36585365853659,519.6951219512196,135,3
247,3.044921875,-4.0908203125,-0.7724609375,259.8780487804878,-41.58536585365854,553.2317073170732,135,3
248,3.7265625,-4.23388671875,-1.07275390625,302.9268292682927,-32.37804878048781,575.4878048780488,135,3
249,4.32470703125,-4.2021484375,-1.3017578125,331.82926829268297,-17.31707317073171,591.0365853658537,135,3
250,5.0712890625,-4.11669921875,-1.67919921875,337.31707317073176,-16.34146341463415,613.109756097561,135,3
251,5.529296875,-4.21435546875,-1.93017578125,344.20731707317077,-7.987804878048781,649.0243902439025,135,3
252,6.0810546875,-4.37451171875,-2.53369140625,370.9756097560976,-4.573170731707317,697.8658536585366,135,3
253,6.53662109375,-4.349609375,-2.92236328125,425.24390243902445,-11.463414634146343,757.0121951219513,135,3
254,7.4365234375,-4.34814453125,-3.8896484375,466.82926829268297,-5.060975609756098,809.3902439024391,135,3
255,8.34130859375,-4.0830078125,-4.94287109375,511.6463414634147,1.4634146341463417,846.4634146341464,135,3
256,9.40771484375,-3.23876953125,-5.5732421875,570.9756097560976,3.9024390243902443,896.0365853658537,135,3
257,10.7060546875,-2.7568359375,-6.1640625,614.6951219512196,-11.402439024390246,905.548780487805,135,3
258,10.7412109375,-2.0361328125,-6.79833984375,644.5731707317074,-42.07317073170732,929.2682926829269,135,3
259,10.56103515625,-1.17333984375,-6.8828125,705.9756097560976,-111.03658536585367,916.5853658536586,135,3
260,9.92236328125,-0.93115234375,-6.64892578125,845.2439024390245,-243.90243902439028,887.8048780487806,135,3
261,8.7587890625,-1.67431640625,-6.7275390625,972.8658536585367,-337.25609756097566,806.7073170731708,135,3
262,7.2890625,-2.689453125,-6.85693359375,1093.109756097561,-461.219512195122,710.9146341463415,135,3
263,6.10546875,-3.55029296875,-6.6083984375,1250.0,-585.3048780487806,542.2560975609756,135,3
264,7.099609375,-7.57861328125,-16.0,473.9634146341464,-95.42682926829269,477.25609756097566,135,3
265,15.99951171875,-0.56201171875,15.99951171875,886.2804878048781,278.5365853658537,-22.073170731707318,135,3
266,7.859375,-1.65185546875,-8.15869140625,658.1707317073171,-1412.9268292682927,-19.81707317073171,135,3
267,7.86767578125,-0.28369140625,-15.9296875,1744.7560975609758,230.85365853658539,-16.76829268292683,135,3
268,10.94873046875,7.8466796875,4.06982421875,768.109756097561,10.365853658536587,-16.82926829268293,135,3
269,-4.84228515625,-3.85205078125,-0.92138671875,1470.9146341463415,-200.06097560975613,-140.1219512195122,135,3
270,6.171875,-2.21435546875,-0.86181640625,865.9756097560976,-75.42682926829269,-249.45121951219514,135,3
271,5.49755859375,-1.1796875,-0.41455078125,851.0365853658537,-3.963414634146342,-247.9268292682927,135,3
272,4.37255859375,-1.7763671875,0.7021484375,887.6219512195123,-105.3658536585366,-365.4268292682927,135,3
273,4.8671875,-3.33935546875,-1.5556640625,778.3536585365854,-190.91463414634148,-514.8780487804878,135,3
274,3.6904296875,-2.6630859375,-2.08642578125,685.0000000000001,-151.64634146341464,-591.219512195122,135,3
275,3.0341796875,-3.27685546875,-1.91943359375,560.548780487805,-153.0487804878049,-671.219512195122,135,3
276,2.46435546875,-2.96923828125,-2.23828125,443.109756097561,-130.1219512195122,-759.5121951219513,135,3
277,2.48681640625,-2.5048828125,-1.83056640625,374.0853658536586,-69.87804878048782,-804.6341463414635,135,3
278,2.52294921875,-2.42431640625,-1.2998046875,277.8048780487805,26.463414634146343,-827.1341463414635,135,3
279,2.56005859375,-2.50927734375,-0.75537109375,194.57317073170734,112.19512195121952,-797.8658536585367,135,3
280,2.43115234375,-2.23046875,-1.2470703125,166.82926829268294,195.4878048780488,-782.1951219512196,135,3
281,2.63134765625,-2.0927734375,-1.638671875,154.63414634146343,219.81707317073173,-780.3658536585367,135,3
282,2.79541015625,-1.89697265625,-2.095703125,85.79268292682927,245.609756097561,-733.9634146341464,135,3
283,2.54736328125,-1.96875,-1.9677734375,31.03658536585366,260.2439024390244,-691.7682926829269,135,3
284,2.185546875,-2.0146484375,-1.32177734375,-54.93902439024391,278.9024390243903,-652.0121951219513,135,3
285,2.04736328125,-2.1044921875,-0.978515625,-114.81707317073172,304.51219512195127,-609.2682926829269,135,3
286,1.81201171875,-1.96044921875,-0.68017578125,-167.31707317073173,340.5487804878049,-571.5243902439025,135,3
287,1.6318359375,-1.890625,-0.81298828125,-205.4878048780488,361.89024390243907,-538.2317073170732,135,3
288,1.60546875,-1.6513671875,-0.98974609375,-217.07317073170734,367.01219512195127,-506.4024390243903,135,3
289,1.2666015625,-1.40673828125,-1.28466796875,-209.08536585365854,360.5487804878049,-481.70731707317077,135,3
290,1.13330078125,-1.2998046875,-1.46044921875,-192.25609756097563,358.2926829268293,-466.5243902439025,135,3
291,1.0478515625,-1.2255859375,-1.41064453125,-185.4878048780488,358.8414634146342,-449.26829268292687,135,3
292,0.85400390625,-1.29345703125,-1.42041015625,-150.0,362.62195121951225,-428.3536585365854,135,3
293,0.75732421875,-1.22607421875,-1.4833984375,-137.37804878048783,361.82926829268297,-407.9268292682927,135,3
294,0.62548828125,-1.013671875,-1.46630859375,-132.01219512195124,360.1829268292683,-386.95121951219517,135,3
295,0.595703125,-0.77392578125,-1.34619140625,-149.26829268292684,358.2926829268293,-365.12195121951225,135,3
296,0.568359375,-0.58935546875,-1.2587890625,-156.64634146341464,354.81707317073176,-337.43902439024396,135,3
297,0.3876953125,-0.53466796875,-1.30810546875,-200.85365853658539,347.9268292682927,-309.0243902439025,135,3
298,0.314453125,-0.4736328125,-1.29736328125,-223.78048780487808,331.89024390243907,-277.3170731707317,135,3
299,0.00732421875,-0.533203125,-1.20849609375,-243.84146341463418,312.8048780487805,-263.9024390243903,135,3
300,-0.2099609375,-0.47509765625,-1.08349609375,-255.609756097561,282.07317073170736,-227.8048780487805,135,3
301,-0.36962890625,-0.7119140625,-1.12158203125,-270.0,276.70731707317077,-211.70731707317074,135,3
302,-0.33544921875,-0.34228515625,-1.1845703125,-282.9268292682927,263.7804878048781,-200.4268292682927,135,3
303,-0.2294921875,-0.37109375,-1.291015625,-288.9024390243903,251.21951219512198,-192.19512195121953,135,3
304,-0.20654296875,-0.1796875,-1.3740234375,-281.0365853658537,248.90243902439028,-183.90243902439025,135,3
305,-0.2802734375,-0.18994140625,-1.20703125,-267.3170731707317,214.32926829268294,-174.69512195121953,135,3
306,-0.4716796875,-0.31201171875,-1.0517578125,-255.5487804878049,200.91463414634148,-163.71951219512198,135,3
307,-0.515625,-0.4453125,-0.93701171875,-239.08536585365854,188.1707317073171,-149.57317073170734,135,3
308,-0.79052734375,-0.54541015625,-0.828125,-228.90243902439028,181.95121951219514,-134.9390243902439,135,3
309,-0.9541015625,-0.54248046875,-0.77978515625,-214.51219512195124,173.78048780487808,-125.06097560975611,135,3
310,-0.94189453125,-0.4365234375,-0.8203125,-202.07317073170734,165.97560975609758,-117.8048780487805,135,3
311,-0.7724609375,-0.3203125,-0.92431640625,-192.13414634146343,158.65853658536588,-124.81707317073172,135,3
312,-0.6611328125,-0.224609375,-0.93408203125,-184.08536585365854,152.19512195121953,-96.15853658536587,135,3
313,-0.82275390625,-0.30126953125,-0.90185546875,-177.7439024390244,145.7926829268293,-84.51219512195122,135,3
314,-0.99365234375,-0.35107421875,-0.8388671875,-166.34146341463415,136.52439024390245,-75.85365853658537,135,3
315,-1.11328125,-0.4150390625,-0.783203125,-160.2439024390244,129.69512195121953,-66.95121951219512,135,3
316,-1.19189453125,-0.41748046875,-0.783203125,-155.609756097561,122.7439024390244,-58.04878048780488,135,3
317,-1.1357421875,-0.40478515625,-0.75146484375,-150.0,111.82926829268294,-50.97560975609756,135,3
318,-1.29345703125,-0.376953125,-0.82421875,-144.02439024390245,99.81707317073172,-47.43902439024391,135,3
319,-1.22607421875,-0.2783203125,-0.83203125,-130.6707317073171,85.1829268292683,-44.69512195121952,135,3
320,-1.2197265625,-0.2021484375,-0.80419921875,-121.70731707317074,72.19512195121952,-43.59756097560976,135,3
321,-1.17822265625,-0.1455078125,-0.8203125,-112.98780487804879,77.6829268292683,-38.170731707317074,135,3
322,-1.13916015625,-0.11376953125,-0.861328125,-107.8048780487805,51.03658536585366,-31.76829268292683,135,3
323,-1.1728515625,-0.10498046875,-0.87939453125,-101.21951219512196,39.69512195121951,-22.073170731707318,135,3
324,-1.2802734375,-0.21240234375,-0.83642578125,-94.02439024390245,31.219512195121954,-12.80487804878049,135,3
325,-1.3408203125,-0.2626953125,-0.79052734375,-88.71951219512196,22.134146341463417,-4.634146341463415,135,3
326,-1.3564453125,-0.2802734375,-0.77587890625,-83.71951219512196,12.682926829268293,1.402439024390244,135,3
327,-1.29443359375,-0.16015625,-0.77099609375,-76.09756097560977,3.536585365853659,5.731707317073171,135,3
328,-1.26123046875,-0.064453125,-0.75732421875,-70.2439024390244,-8.963414634146343,9.817073170731708,135,3
329,-1.26904296875,-0.03125,-0.73828125,-65.1829268292683,-18.414634146341466,12.439024390243903,135,3
330,-1.263671875,-0.029296875,-0.72021484375,-57.560975609756106,-28.902439024390247,15.975609756097562,135,3
331,-1.29345703125,-0.05322265625,-0.72021484375,-61.95121951219513,-39.268292682926834,21.03658536585366,135,3
332,-1.3056640625,-0.06982421875,-0.69970703125,-31.89024390243903,-48.41463414634147,26.402439024390247,135,3
333,-1.31396484375,-0.095703125,-0.63818359375,-18.78048780487805,-56.34146341463415,32.5,135,3
334,-1.2802734375,-0.06689453125,-0.5927734375,-7.682926829268293,-64.14634146341464,37.86585365853659,135,3
335,-1.22314453125,-0.02978515625,-0.55908203125,-0.1829268292682927,-70.79268292682927,42.5609756097561,135,3
336,-1.18310546875,0.03125,-0.53759765625,6.52439024390244,-76.40243902439025,46.15853658536586,135,3
337,-1.14404296875,0.0732421875,-0.6220703125,11.707317073170733,-82.98780487804879,48.78048780487805,135,3
338,-1.142578125,0.09228515625,-0.43994140625,14.878048780487806,-89.08536585365854,50.97560975609756,135,3
339,-1.1435546875,0.11328125,-0.40625,18.53658536585366,-95.00000000000001,52.37804878048781,135,3
340,-1.13330078125,0.130859375,-0.365234375,22.743902439024392,-101.52439024390245,53.29268292682927,135,3
341,-1.12841796875,0.1435546875,-0.3525390625,30.182926829268297,-108.04878048780489,54.146341463414636,135,3
342,-1.11279296875,0.166015625,-0.361328125,37.987804878048784,-114.75609756097562,54.81707317073171,135,3
343,-1.109375,0.1728515625,-0.32568359375,45.00000000000001,-121.34146341463416,55.0609756097561,135,3
344,-1.09619140625,0.17041015625,-0.3251953125,51.03658536585366,-127.13414634146342,55.426829268292686,135,3
345,-1.056640625,0.17431640625,-0.306640625,54.63414634146342,-131.89024390243904,56.82926829268293,135,3
346,-1.04541015625,0.1826171875,-0.2763671875,58.47560975609757,-135.609756097561,58.10975609756098,135,3
347,-1.0166015625,0.19140625,-0.24169921875,62.25609756097562,-138.71951219512195,59.207317073170735,135,3
348,-1.00830078125,0.1845703125,-0.16552734375,64.08536585365854,-141.64634146341464,59.69512195121952,135,3
349,-0.98388671875,0.21142578125,-0.140625,67.31707317073172,-145.609756097561,59.93902439024391,135,3
350,-0.9833984375,0.22119140625,-0.12451171875,70.48780487804879,-149.02439024390245,58.963414634146346,135,3
351,-0.9716796875,0.25927734375,-0.10986328125,72.8048780487805,-150.97560975609758,56.768292682926834,135,3
352,-0.93310546875,0.30615234375,-0.1279296875,72.6829268292683,-154.39024390243904,53.78048780487806,135,3
353,-0.88671875,0.35595703125,-0.1298828125,72.01219512195122,-157.43902439024393,51.524390243902445,135,3
354,-0.86767578125,0.498046875,-0.0927734375,72.43902439024392,-162.6829268292683,50.0609756097561,135,3
355,-0.873046875,0.49951171875,-0.06298828125,71.82926829268294,-165.4268292682927,48.10975609756098,135,3
356,-0.857421875,0.3671875,-0.044921875,70.1829268292683,-167.6219512195122,47.987804878048784,135,3
357,-0.84912109375,0.35302734375,-0.03662109375,70.0609756097561,-171.70731707317074,47.31707317073171,135,3
358,-0.83203125,0.34814453125,-0.0302734375,72.19512195121952,-175.1219512195122,46.951219512195124,135,3
359,-0.810546875,0.33544921875,0.02783203125,76.21951219512196,-180.4268292682927,47.86585365853659,135,3
360,-0.80078125,0.3095703125,0.08935546875,80.97560975609757,-184.75609756097563,49.085365853658544,135,3
361,-0.78466796875,0.29296875,0.14892578125,86.09756097560977,-188.78048780487808,49.93902439024391,135,3
362,-0.77294921875,0.2744140625,0.14404296875,90.00000000000001,-190.5487804878049,50.36585365853659,135,3
363,-0.73388671875,0.30859375,0.169921875,92.43902439024392,-189.57317073170734,50.79268292682927,135,3
364,-0.6630859375,0.3583984375,0.17333984375,90.00000000000001,-202.7439024390244,51.03658536585366,135,3
365,-0.60498046875,0.392578125,0.22509765625,83.10975609756099,-183.53658536585368,51.82926829268293,135,3
366,-0.5703125,0.42431640625,0.21630859375,80.3658536585366,-183.1707317073171,53.41463414634147,135,3
367,-0.556640625,0.43701171875,0.23291015625,78.65853658536587,-184.02439024390245,54.451219512195124,135,3
368,-0.54443359375,0.40673828125,0.130859375,80.97560975609757,-172.31707317073173,56.15853658536586,135,3
369,-0.5478515625,0.4990234375,0.12744140625,86.95121951219512,-192.56097560975613,57.926829268292686,135,3
370,-0.54248046875,0.33984375,0.2783203125,93.29268292682927,-195.1829268292683,58.78048780487806,135,3
371,-0.505859375,0.35888671875,0.31640625,100.1219512195122,-198.0487804878049,60.91463414634147,135,3
372,-0.47265625,0.3564453125,0.3486328125,104.45121951219514,-198.71951219512198,62.743902439024396,135,3
373,-0.4365234375,0.36962890625,0.40478515625,101.46341463414635,-194.08536585365854,63.53658536585366,135,3
374,-0.38818359375,0.3984375,0.41748046875,94.45121951219512,-188.2317073170732,65.85365853658537,135,3
375,-0.36962890625,0.423828125,0.43408203125,87.07317073170732,-183.0487804878049,68.04878048780489,135,3
376,-0.34423828125,0.45654296875,0.43359375,82.01219512195122,-180.5487804878049,69.39024390243902,135,3
377,-0.30908203125,0.4716796875,0.41943359375,80.0609756097561,-181.09756097560978,70.1219512195122,135,3
378,-0.30078125,0.46533203125,0.4228515625,79.32926829268294,-182.6219512195122,71.46341463414635,135,3
379,-0.296875,0.45068359375,0.42578125,80.60975609756099,-185.5487804878049,73.96341463414635,135,3
380,-0.30029296875,0.447265625,0.44384765625,81.95121951219512,-188.59756097560978,76.09756097560977,135,3
381,-0.2841796875,0.44677734375,0.45654296875,82.8658536585366,-191.34146341463418,78.47560975609757,135,3
382,-0.3642578125,0.4326171875,0.47412109375,81.76829268292684,-188.90243902439025,78.65853658536587,135,3
383,-0.1982421875,0.43310546875,0.48388671875,75.73170731707317,-184.20731707317074,79.32926829268294,135,3
384,-0.12744140625,0.4765625,0.48193359375,70.73170731707317,-182.37804878048783,82.31707317073172,135,3
385,-0.083984375,0.4599609375,0.4599609375,68.90243902439025,-182.13414634146343,85.1829268292683,135,3
386,-0.05712890625,0.45751953125,0.4453125,72.13414634146342,-184.93902439024393,87.6829268292683,135,3
387,-0.037109375,0.44921875,0.47509765625,75.60975609756098,-185.609756097561,88.53658536585367,135,3
388,-0.123046875,0.4912109375,0.4775390625,75.0,-183.0487804878049,88.59756097560977,135,3
389,0.041015625,0.52978515625,0.49462890625,72.6219512195122,-180.4268292682927,90.1219512195122,135,3
390,0.06689453125,0.55419921875,0.50390625,71.64634146341464,-179.39024390243904,91.46341463414635,135,3
391,0.0830078125,0.57275390625,0.62109375,72.13414634146342,-179.81707317073173,93.23170731707317,135,3
392,0.111328125,0.57470703125,0.47802734375,73.17073170731707,-181.03658536585368,94.26829268292684,135,3
393,0.14990234375,0.5888671875,0.45556640625,71.95121951219512,-180.7317073170732,92.8658536585366,135,3
394,0.2080078125,0.61181640625,0.4619140625,67.6219512195122,-179.14634146341464,92.98780487804879,135,3
395,0.2568359375,0.6240234375,0.46630859375,65.0,-178.59756097560978,94.39024390243904,135,3
396,0.2890625,0.6220703125,0.4423828125,64.9390243902439,-178.96341463414635,96.34146341463415,135,3
397,0.30224609375,0.59912109375,0.45703125,67.31707317073172,-179.45121951219514,96.82926829268294,135,3
398,0.31396484375,0.572265625,0.4736328125,70.54878048780489,-178.47560975609758,98.17073170731709,135,3
399,0.34375,0.58251953125,0.48291015625,71.58536585365854,-175.3658536585366,97.5609756097561,135,3
400,0.359375,0.615234375,0.47265625,72.31707317073172,-173.96341463414635,98.84146341463415,135,3
401,0.37060546875,0.64111328125,0.4775390625,73.10975609756098,-173.47560975609758,101.03658536585367,135,3
402,0.3818359375,0.6435546875,0.45751953125,74.75609756097562,-173.84146341463415,102.56097560975611,135,3
403,0.3935546875,0.66259765625,0.4765625,76.64634146341464,-175.1829268292683,103.35365853658537,135,3
404,0.392578125,0.662109375,0.45947265625,72.07317073170732,-171.82926829268294,102.98780487804879,135,3
405,0.42822265625,0.7021484375,0.43896484375,64.9390243902439,-167.5609756097561,103.17073170731709,135,3
406,0.45068359375,0.6259765625,0.43798828125,58.10975609756098,-163.84146341463415,103.71951219512196,135,3
407,0.4970703125,0.7890625,0.43017578125,55.00000000000001,-162.13414634146343,105.00000000000001,135,3
408,0.53271484375,0.77880859375,0.44140625,52.31707317073171,-162.07317073170734,105.85365853658537,135,3
409,0.5126953125,0.7197265625,0.43505859375,49.207317073170735,-159.75609756097563,105.73170731707317,135,3
410,0.51904296875,0.72021484375,0.43017578125,48.10975609756098,-157.8048780487805,105.00000000000001,135,3
411,0.53369140625,0.7314453125,0.46826171875,49.268292682926834,-171.70731707317074,105.2439024390244,135,3
412,0.57861328125,0.7431640625,0.505859375,50.0609756097561,-154.63414634146343,105.67073170731709,135,3
413,0.5810546875,0.72412109375,0.4638671875,52.19512195121952,-153.1707317073171,107.6829268292683,135,3
414,0.56298828125,0.68896484375,0.43603515625,51.34146341463415,-149.20731707317074,107.6219512195122,135,3
415,0.59326171875,0.69482421875,0.42333984375,50.487804878048784,-146.52439024390245,107.25609756097562,135,3
416,0.6181640625,0.72607421875,0.2548828125,52.07317073170732,-146.95121951219514,107.92682926829269,135,3
417,0.62451171875,0.7333984375,0.3779296875,49.32926829268293,-144.32926829268294,107.50000000000001,135,3
418,0.65673828125,0.73974609375,0.294921875,42.43902439024391,-141.89024390243904,108.65853658536587,135,3
419,0.693359375,0.7587890625,0.2744140625,38.65853658536586,-143.2926829268293,110.48780487804879,135,3
420,0.7138671875,0.73876953125,0.12548828125,35.1219512195122,-145.7317073170732,112.8048780487805,135,3
421,0.71337890625,0.69775390625,0.21484375,32.31707317073171,-147.6219512195122,114.02439024390245,135,3
422,0.7236328125,0.671875,0.22119140625,32.5,-150.4268292682927,115.60975609756099,135,3
423,0.73095703125,0.6357421875,0.22021484375,33.65853658536586,-153.84146341463415,117.7439024390244,135,3
424,0.70654296875,0.55224609375,0.2587890625,33.35365853658537,-152.31707317073173,117.07317073170732,135,3
425,0.693359375,0.52001953125,0.31640625,31.89024390243903,-144.87804878048783,115.12195121951221,135,3
426,0.70263671875,0.50927734375,0.29345703125,30.731707317073173,-136.52439024390245,113.84146341463416,135,3
427,0.72509765625,0.53271484375,0.25830078125,31.707317073170735,-131.21951219512195,114.26829268292684,135,3
428,0.708984375,0.5322265625,0.18896484375,35.0609756097561,-128.96341463414635,114.81707317073172,135,3
429,0.724609375,0.52978515625,0.12158203125,39.69512195121951,-128.0487804878049,115.12195121951221,135,3
430,0.6259765625,0.556640625,0.08349609375,43.53658536585366,-127.7439024390244,114.51219512195122,135,3
431,0.8046875,0.59619140625,0.05224609375,41.890243902439025,-126.15853658536587,112.92682926829269,135,3
432,0.83837890625,0.61669921875,0.02783203125,32.37804878048781,-120.06097560975611,112.6829268292683,135,3
433,0.82958984375,0.625,0.07470703125,22.134146341463417,-113.17073170731709,113.96341463414635,135,3
434,0.791015625,0.60791015625,0.0634765625,13.353658536585368,-107.43902439024392,114.32926829268294,135,3
435,0.74169921875,0.56640625,0.078125,10.121951219512196,-104.87804878048782,115.91463414634147,135,3
436,0.7041015625,0.52685546875,0.0859375,11.402439024390246,-103.59756097560977,116.52439024390245,135,3
437,0.71923828125,0.529296875,0.109375,15.487804878048783,-102.13414634146342,116.15853658536587,135,3
438,0.7548828125,0.5185546875,0.1103515625,18.10975609756098,-100.73170731707317,115.3048780487805,135,3
439,0.78076171875,0.5283203125,0.11083984375,20.853658536585368,-100.3048780487805,113.96341463414635,135,3
440,0.7724609375,0.50048828125,0.0625,22.195121951219512,-95.54878048780489,111.03658536585367,135,3
441,0.81396484375,0.5166015625,0.046875,16.219512195121954,-86.95121951219512,108.71951219512196,135,3
442,0.84912109375,0.5537109375,0.05517578125,7.743902439024391,-93.10975609756099,108.04878048780489,135,3
443,0.86865234375,0.5537109375,0.06103515625,-2.439024390243903,-67.37804878048782,105.85365853658537,135,3
444,0.87451171875,0.55517578125,0.0283203125,-9.756097560975611,-62.804878048780495,104.32926829268294,135,3
445,0.8564453125,0.5146484375,0.01220703125,-13.841463414634148,-59.268292682926834,101.40243902439025,135,3
446,0.87841796875,0.5126953125,0.01220703125,-14.390243902439027,-57.926829268292686,96.34146341463415,135,3
447,0.9033203125,0.6240234375,0.08447265625,-12.378048780487806,-55.1829268292683,92.37804878048782,135,3
448,0.90625,0.4736328125,0.072265625,-8.902439024390244,-54.93902439024391,87.19512195121952,135,3
449,0.92138671875,0.48046875,0.07666015625,-5.2439024390243905,-52.804878048780495,80.91463414634147,135,3
450,0.958984375,0.48486328125,0.03076171875,-2.0121951219512195,-50.73170731707317,74.93902439024392,135,3
451,1.01708984375,0.53955078125,0.01806640625,-4.878048780487806,-44.268292682926834,67.19512195121952,135,3
452,1.0625,0.55615234375,0.01806640625,-11.890243902439025,-37.01219512195122,60.00000000000001,135,3
453,1.072265625,0.5478515625,0.009765625,-17.926829268292686,-31.951219512195124,52.987804878048784,135,3
454,1.046875,0.5576171875,0.01025390625,-21.34146341463415,-28.231707317073173,61.95121951219513,135,3
455,1.00927734375,0.53271484375,0.021484375,-22.25609756097561,-24.634146341463417,39.93902439024391,135,3
456,0.98583984375,0.51025390625,0.025390625,-21.890243902439025,-23.78048780487805,34.87804878048781,135,3
457,0.94677734375,0.470703125,-0.03173828125,-21.03658536585366,-23.231707317073173,30.365853658536587,135,3
458,0.9052734375,0.44873046875,-0.04931640625,-21.52439024390244,-21.82926829268293,26.76829268292683,135,3
459,0.76123046875,0.4580078125,-0.0322265625,-23.353658536585368,-17.134146341463417,23.170731707317074,135,3
460,0.8759765625,0.47314453125,0.00390625,-28.59756097560976,-10.365853658536587,20.79268292682927,135,3
461,0.86181640625,0.453125,0.0224609375,-33.71951219512196,-3.658536585365854,18.597560975609756,135,3
462,0.8173828125,0.43115234375,0.03125,-36.09756097560976,2.0121951219512195,31.03658536585366,135,3
463,0.81884765625,0.41796875,0.041015625,-35.85365853658537,7.378048780487806,12.317073170731708,135,3
464,0.822265625,0.412109375,0.0263671875,-34.87804878048781,9.26829268292683,9.146341463414634,135,3
465,0.82421875,0.38232421875,-0.0625,-33.35365853658537,11.341463414634147,5.975609756097562,135,3
466,0.8203125,0.3662109375,-0.0986328125,-30.914634146341466,11.463414634146343,3.2926829268292686,135,3
467,0.837890625,0.38720703125,-0.09912109375,-29.81707317073171,12.439024390243903,0.6707317073170732,135,3
468,0.83984375,0.39453125,-0.11376953125,-31.09756097560976,14.939024390243905,-1.0975609756097562,135,3
469,0.83203125,0.49462890625,-0.12548828125,-36.40243902439025,19.32926829268293,-3.780487804878049,135,3
470,0.833984375,0.37841796875,-0.14404296875,-45.1829268292683,25.121951219512198,-7.01219512195122,135,3
471,0.8525390625,0.4013671875,-0.12890625,-55.243902439024396,15.670731707317074,-9.390243902439025,135,3
472,0.8603515625,0.392578125,-0.09033203125,-64.32926829268293,36.646341463414636,-11.158536585365855,135,3
473,0.841796875,0.36572265625,-0.06103515625,-68.90243902439025,39.451219512195124,-12.80487804878049,135,3
474,0.80029296875,0.32421875,-0.060546875,-68.78048780487805,39.207317073170735,-15.060975609756099,135,3
475,0.77197265625,0.2880859375,-0.111328125,-65.3658536585366,35.36585365853659,-17.743902439024392,135,3
476,0.7490234375,0.275390625,-0.11181640625,-61.21951219512196,33.71951219512196,-21.76829268292683,135,3
477,0.7744140625,0.28076171875,-0.11279296875,-58.84146341463415,32.43902439024391,-24.207317073170735,135,3
478,0.80078125,0.29248046875,-0.10400390625,-58.90243902439025,33.109756097560975,-25.54878048780488,135,3
479,0.77734375,0.2724609375,-0.09521484375,-59.87804878048781,33.29268292682927,-26.52439024390244,135,3
480,0.75537109375,0.2607421875,-0.083984375,-59.57317073170732,32.86585365853659,-27.5609756097561,135,3
481,0.73388671875,0.25830078125,-0.08935546875,-58.65853658536586,32.13414634146342,-28.04878048780488,135,3
482,0.72900390625,0.2431640625,-0.08349609375,-58.10975609756098,32.5,-28.780487804878053,135,3
483,0.7294921875,0.24755859375,-0.07080078125,-57.865853658536594,33.53658536585366,-29.939024390243905,135,3
484,0.74365234375,0.24658203125,-0.05810546875,-56.951219512195124,34.268292682926834,-31.03658536585366,135,3
485,0.7529296875,0.2490234375,-0.06201171875,-55.487804878048784,34.268292682926834,-31.76829268292683,135,3
486,0.75146484375,0.2294921875,-0.07373046875,-53.29268292682927,34.08536585365854,-32.5,135,3
487,0.7412109375,0.220703125,-0.07373046875,-50.0609756097561,32.86585365853659,-33.65853658536586,135,3
488,0.71826171875,0.2060546875,-0.083984375,-62.31707317073171,31.463414634146343,-34.69512195121951,135,3
489,0.72021484375,0.2080078125,-0.08935546875,-43.53658536585366,30.426829268292686,-35.1219512195122,135,3
490,0.70556640625,0.18896484375,-0.0908203125,-41.09756097560976,29.451219512195124,-35.426829268292686,135,3
491,0.70751953125,0.21484375,-0.08154296875,-39.81707317073171,29.207317073170735,-34.93902439024391,135,3
492,0.69140625,0.20556640625,-0.0673828125,-39.32926829268293,28.963414634146343,-34.207317073170735,135,3
493,0.671875,0.205078125,-0.04052734375,-38.71951219512196,29.02439024390244,-33.29268292682927,135,3
494,0.65869140625,0.20751953125,-0.025390625,-38.41463414634147,28.963414634146343,-32.19512195121951,135,3
495,0.64892578125,0.19873046875,-0.0166015625,-38.23170731707317,28.84146341463415,-31.09756097560976,135,3
496,0.64404296875,0.1875,-0.017578125,-37.987804878048784,28.04878048780488,-30.121951219512198,135,3
497,0.6318359375,0.18603515625,-0.01123046875,-36.34146341463415,26.82926829268293,-28.902439024390247,135,3
498,0.62060546875,0.18017578125,0.0029296875,-35.54878048780488,25.853658536585368,-27.621951219512198,135,3
499,0.607421875,0.17138671875,0.0029296875,-34.63414634146342,25.0609756097561,-25.853658536585368,135,3
