,Ax,Ay,Az,Gx,Gy,Gz,distance,shot_type
0,0.6845703125,-0.47021484375,-0.228515625,15.79268292682927,-1.9512195121951221,-2.0121951219512195,70,8
1,0.6982421875,-0.4638671875,-0.23193359375,18.597560975609756,-3.8414634146341466,-0.7317073170731708,70,8
2,0.68017578125,-0.51318359375,-0.21826171875,23.414634146341466,-6.2804878048780495,0.1829268292682927,70,8
3,0.66357421875,-0.55029296875,-0.2265625,27.865853658536587,-9.146341463414634,15.54878048780488,70,8
4,0.6689453125,-0.56103515625,-0.267578125,30.792682926829272,-10.487804878048781,-0.426829268292683,70,8
5,0.68798828125,-0.54931640625,-0.25244140625,30.914634146341466,-10.853658536585368,-0.426829268292683,70,8
6,0.71142578125,-0.51025390625,-0.23291015625,31.158536585365855,-10.487804878048781,0.0,70,8
7,0.72119140625,-0.48828125,-0.22119140625,32.01219512195122,-9.634146341463415,-0.30487804878048785,70,8
8,0.7001953125,-0.4931640625,-0.2060546875,32.07317073170732,-7.500000000000001,-0.06097560975609757,70,8
9,0.6806640625,-0.498046875,-0.23583984375,32.86585365853659,-6.951219512195123,0.7926829268292683,70,8
10,0.6640625,-0.49462890625,-0.240234375,34.63414634146342,-7.865853658536586,1.8902439024390245,70,8
11,0.66943359375,-0.47705078125,-0.2197265625,38.65853658536586,-9.451219512195122,3.7195121951219514,70,8
12,0.6669921875,-0.4814453125,-0.20947265625,41.768292682926834,-10.731707317073171,5.731707317073171,70,8
13,0.689453125,-0.47607421875,-0.17822265625,44.63414634146342,-11.829268292682928,10.121951219512196,70,8
14,0.6669921875,-0.51025390625,-0.16943359375,48.47560975609756,-0.1829268292682927,13.536585365853659,70,8
15,0.658203125,-0.52880859375,-0.18115234375,56.585365853658544,-22.25609756097561,16.585365853658537,70,8
16,0.63330078125,-0.55908203125,-0.19873046875,65.0609756097561,-27.378048780487806,19.634146341463417,70,8
17,0.64208984375,-0.55517578125,-0.236328125,69.87804878048782,-30.0609756097561,21.646341463414636,70,8
18,0.6689453125,-0.51416015625,-0.275390625,70.0,-30.182926829268297,22.012195121951223,70,8
19,0.6884765625,-0.46826171875,-0.30078125,65.3658536585366,-26.52439024390244,20.365853658536587,70,8
20,0.67529296875,-0.455078125,-0.28125,57.43902439024391,-21.03658536585366,18.84146341463415,70,8
21,0.67138671875,-0.46240234375,-0.28759765625,47.804878048780495,-16.219512195121954,16.52439024390244,70,8
22,0.64794921875,-0.482421875,-0.31396484375,36.28048780487805,-9.451219512195122,12.987804878048781,70,8
23,0.65576171875,-0.46484375,-0.33984375,22.865853658536587,-1.5853658536585367,8.292682926829269,70,8
24,0.71435546875,-0.416015625,-0.3291015625,10.731707317073171,4.878048780487806,5.121951219512195,70,8
25,0.72607421875,-0.44677734375,-0.31103515625,14.878048780487806,9.207317073170733,3.8414634146341466,70,8
26,0.69482421875,-0.49658203125,-0.380859375,-10.24390243902439,12.74390243902439,15.30487804878049,70,8
27,0.71435546875,-0.4775390625,-0.37890625,-16.951219512195124,16.158536585365855,-2.987804878048781,70,8
28,0.70263671875,-0.51123046875,-0.41796875,-24.451219512195124,20.243902439024392,-2.439024390243903,70,8
29,0.7470703125,-0.51220703125,-0.40283203125,-15.975609756097562,23.59756097560976,-2.3170731707317076,70,8
30,0.74951171875,-0.52734375,-0.35791015625,-36.58536585365854,26.34146341463415,-1.8902439024390245,70,8
31,0.6953125,-0.57275390625,-0.376953125,-38.47560975609756,27.134146341463417,-0.7926829268292683,70,8
32,0.67626953125,-0.58349609375,-0.40478515625,-34.51219512195122,23.53658536585366,0.06097560975609757,70,8
33,0.6630859375,-0.603515625,-0.4404296875,-29.26829268292683,18.475609756097562,2.0121951219512195,70,8
34,0.6728515625,-0.5791015625,-0.41259765625,-23.84146341463415,16.097560975609756,3.048780487804878,70,8
35,0.67138671875,-0.5703125,-0.3583984375,-19.512195121951223,13.78048780487805,3.5975609756097566,70,8
36,0.64306640625,-0.5751953125,-0.30859375,-15.975609756097562,11.951219512195124,3.9024390243902443,70,8
37,0.64697265625,-0.53955078125,-0.2822265625,-11.829268292682928,10.914634146341465,2.439024390243903,70,8
38,0.65380859375,-0.47412109375,-0.2529296875,-11.402439024390246,11.890243902439025,2.3170731707317076,70,8
39,0.64208984375,-0.4697265625,-0.216796875,-14.26829268292683,14.756097560975611,3.780487804878049,70,8
40,0.64208984375,-0.47314453125,-0.23095703125,-19.146341463414636,16.646341463414636,3.4756097560975614,70,8
41,0.666015625,-0.462890625,-0.24072265625,-22.134146341463417,19.878048780487806,3.9024390243902443,70,8
42,0.65087890625,-0.48046875,-0.2099609375,-25.0609756097561,21.82926829268293,5.182926829268293,70,8
43,0.638671875,-0.51123046875,-0.16259765625,-22.865853658536587,21.097560975609756,6.402439024390245,70,8
44,0.6123046875,-0.5908203125,-0.1552734375,-16.34146341463415,17.804878048780488,6.646341463414635,70,8
45,0.62548828125,-0.59716796875,-0.14306640625,-10.0,14.878048780487806,6.158536585365854,70,8
46,0.6455078125,-0.5771484375,-0.1396484375,-6.036585365853659,13.04878048780488,6.036585365853659,70,8
47,0.64794921875,-0.57373046875,-0.13232421875,-2.8658536585365857,12.256097560975611,5.731707317073171,70,8
48,0.65283203125,-0.57421875,-0.138671875,-0.3658536585365854,10.609756097560977,5.121951219512195,70,8
49,0.66162109375,-0.5634765625,-0.1728515625,1.0975609756097562,10.670731707317074,4.878048780487806,70,8
50,0.64404296875,-0.57861328125,-0.17724609375,-0.06097560975609757,11.402439024390246,4.51219512195122,70,8
51,0.66845703125,-0.56201171875,-0.1845703125,-0.48780487804878053,11.890243902439025,4.451219512195122,70,8
52,0.673828125,-0.56298828125,-0.18798828125,-1.6463414634146343,12.621951219512196,3.8414634146341466,70,8
53,0.689453125,-0.54345703125,-0.201171875,-2.5,12.74390243902439,2.5,70,8
54,0.67919921875,-0.533203125,-0.2119140625,-2.378048780487805,11.76829268292683,2.1951219512195124,70,8
55,0.6826171875,-0.56005859375,-0.19580078125,-15.365853658536587,10.30487804878049,1.6463414634146343,70,8
56,0.68505859375,-0.57275390625,-0.1845703125,3.414634146341464,8.841463414634147,1.3414634146341464,70,8
57,0.70263671875,-0.56787109375,-0.22265625,4.51219512195122,8.292682926829269,0.9756097560975611,70,8
58,0.703125,-0.5380859375,-0.22802734375,2.804878048780488,9.878048780487806,0.6097560975609757,70,8
59,0.7001953125,-0.52490234375,-0.228515625,-1.0365853658536586,11.463414634146343,0.7926829268292683,70,8
60,0.708984375,-0.50390625,-0.22607421875,-2.8658536585365857,12.621951219512196,0.1829268292682927,70,8
61,0.705078125,-0.51513671875,-0.220703125,-3.4756097560975614,12.987804878048781,-0.426829268292683,70,8
62,0.70263671875,-0.52001953125,-0.2353515625,-4.695121951219512,14.634146341463415,-0.24390243902439027,70,8
63,0.71875,-0.509765625,-0.2373046875,-7.743902439024391,18.10975609756098,-0.12195121951219513,70,8
64,0.71142578125,-0.50244140625,-0.22802734375,-11.402439024390246,20.914634146341466,0.3658536585365854,70,8
65,0.6962890625,-0.51416015625,-0.21337890625,-11.402439024390246,20.975609756097562,0.853658536585366,70,8
66,0.67724609375,-0.546875,-0.205078125,-7.926829268292684,19.26829268292683,1.8902439024390245,70,8
67,0.6630859375,-0.56201171875,-0.19580078125,-4.695121951219512,18.475609756097562,1.8902439024390245,70,8
68,0.68212890625,-0.54345703125,-0.20263671875,-5.365853658536586,19.146341463414636,1.8902439024390245,70,8
69,0.6943359375,-0.62060546875,-0.20361328125,-7.25609756097561,21.158536585365855,1.3414634146341464,70,8
70,0.74267578125,-0.47216796875,-0.17578125,-9.878048780487806,23.231707317073173,-0.9146341463414634,70,8
71,0.78466796875,-0.4296875,-0.18994140625,-11.829268292682928,24.573170731707318,-3.1097560975609757,70,8
72,0.7685546875,-0.419921875,-0.21875,-13.78048780487805,23.963414634146343,-4.2682926829268295,70,8
73,0.71337890625,-0.4580078125,-0.26318359375,-15.000000000000002,22.5609756097561,-3.780487804878049,70,8
74,0.67041015625,-0.5224609375,-0.2705078125,-13.719512195121952,20.182926829268293,-2.7439024390243905,70,8
75,0.6494140625,-0.56494140625,-0.23779296875,-9.939024390243903,17.25609756097561,-2.0121951219512195,70,8
76,0.6533203125,-0.57568359375,-0.2119140625,-6.646341463414635,17.134146341463417,-1.5853658536585367,70,8
77,0.646484375,-0.57080078125,-0.18603515625,-5.914634146341464,17.195121951219512,-1.1585365853658538,70,8
78,0.63818359375,-0.5703125,-0.1943359375,-5.914634146341464,18.902439024390244,-1.3414634146341464,70,8
79,0.6298828125,-0.57666015625,-0.18505859375,-5.914634146341464,19.573170731707318,-1.0975609756097562,70,8
80,0.6513671875,-0.56494140625,-0.18310546875,-5.3048780487804885,19.146341463414636,-0.853658536585366,70,8
81,0.6435546875,-0.5634765625,-0.1796875,-4.024390243902439,17.926829268292686,-0.06097560975609757,70,8
82,0.6220703125,-0.58203125,-0.1826171875,-2.378048780487805,17.682926829268293,0.9146341463414634,70,8
83,0.6337890625,-0.583984375,-0.17919921875,-2.8658536585365857,18.719512195121954,1.4634146341463417,70,8
84,0.64404296875,-0.548828125,-0.17919921875,-4.573170731707317,20.121951219512198,1.1585365853658538,70,8
85,0.6611328125,-0.5283203125,-0.162109375,-5.670731707317073,20.30487804878049,1.0365853658536586,70,8
86,0.64697265625,-0.54150390625,-0.1767578125,-5.670731707317073,18.170731707317074,0.6097560975609757,70,8
87,0.65576171875,-0.53759765625,-0.20556640625,-1.7682926829268295,15.243902439024392,-0.12195121951219513,70,8
88,0.6669921875,-0.54248046875,-0.20458984375,0.426829268292683,12.682926829268293,-0.9756097560975611,70,8
89,0.68798828125,-0.53466796875,-0.21337890625,1.5853658536585367,12.01219512195122,-1.0365853658536586,70,8
90,0.6884765625,-0.5361328125,-0.19091796875,1.524390243902439,12.926829268292684,-1.2804878048780488,70,8
91,0.6787109375,-0.54541015625,-0.17578125,0.1829268292682927,14.26829268292683,-1.1585365853658538,70,8
92,0.6796875,-0.5380859375,-0.17626953125,-0.12195121951219513,13.78048780487805,-0.5487804878048781,70,8
93,0.6572265625,-0.552734375,-0.14599609375,1.3414634146341464,13.536585365853659,0.7317073170731708,70,8
94,0.650390625,-0.587890625,-0.1298828125,3.780487804878049,13.536585365853659,1.3414634146341464,70,8
95,0.66357421875,-0.57568359375,-0.13623046875,4.51219512195122,14.695121951219514,1.8902439024390245,70,8
96,0.65380859375,-0.5498046875,-0.15576171875,3.780487804878049,15.30487804878049,2.3170731707317076,70,8
97,0.66162109375,-0.5537109375,-0.16015625,3.048780487804878,16.52439024390244,2.804878048780488,70,8
98,0.671875,-0.55029296875,-0.16259765625,0.9756097560975611,17.865853658536587,2.987804878048781,70,8
99,0.6806640625,-0.537109375,-0.16015625,0.06097560975609757,18.658536585365855,2.6219512195121952,70,8
100,0.68212890625,-0.53759765625,-0.15087890625,-1.5853658536585367,20.48780487804878,2.9268292682926833,70,8
101,0.67724609375,-0.5400390625,-0.138671875,-3.353658536585366,22.378048780487806,3.7195121951219514,70,8
102,0.66943359375,-0.546875,-0.12158203125,-4.2682926829268295,23.963414634146343,3.231707317073171,70,8
103,0.66552734375,-0.548828125,-0.11181640625,-3.231707317073171,23.53658536585366,3.231707317073171,70,8
104,0.654296875,-0.5771484375,-0.12109375,-1.8902439024390245,23.231707317073173,3.2926829268292686,70,8
105,0.646484375,-0.56884765625,-0.11962890625,-0.30487804878048785,23.04878048780488,3.8414634146341466,70,8
106,0.6162109375,-0.58203125,-0.0791015625,1.1585365853658538,23.719512195121954,4.390243902439025,70,8
107,0.6328125,-0.583984375,-0.05419921875,15.487804878048783,26.34146341463415,4.878048780487806,70,8
108,0.630859375,-0.57080078125,-0.0283203125,-1.2804878048780488,30.121951219512198,5.975609756097562,70,8
109,0.6318359375,-0.58349609375,-0.0068359375,-1.6463414634146343,31.58536585365854,7.378048780487806,70,8
110,0.609375,-0.6044921875,-0.02001953125,-0.7926829268292683,31.707317073170735,8.597560975609756,70,8
111,0.61962890625,-0.607421875,-0.00439453125,-2.9268292682926833,29.573170731707318,9.207317073170733,70,8
112,0.66162109375,-0.5556640625,-0.02490234375,-9.02439024390244,27.439024390243905,9.390243902439025,70,8
113,0.755859375,-0.4453125,-0.24560546875,-13.170731707317074,30.365853658536587,8.719512195121952,70,8
114,0.814453125,-0.41064453125,-0.25537109375,-24.146341463414636,35.79268292682927,7.439024390243903,70,8
115,0.794921875,-0.42529296875,-0.275390625,-43.04878048780488,48.84146341463415,5.487804878048781,70,8
116,0.86572265625,-0.33203125,-0.28076171875,-47.25609756097561,60.54878048780488,3.9024390243902443,70,8
117,0.85791015625,-0.314453125,-0.22119140625,-62.560975609756106,69.69512195121952,4.207317073170732,70,8
118,0.75390625,-0.38916015625,-0.150390625,-85.2439024390244,76.03658536585367,5.548780487804878,70,8
119,0.69287109375,-0.4736328125,-0.07275390625,-85.1829268292683,77.19512195121952,7.25609756097561,70,8
120,0.65771484375,-0.47509765625,-0.0771484375,-80.0,75.1219512195122,10.548780487804878,70,8
121,0.62890625,-0.51123046875,-0.1162109375,-78.10975609756099,74.93902439024392,13.353658536585368,70,8
122,0.6396484375,-0.4814453125,-0.14794921875,-79.63414634146342,78.41463414634147,15.243902439024392,70,8
123,0.66650390625,-0.4443359375,-0.24658203125,-82.7439024390244,77.31707317073172,12.317073170731708,70,8
124,0.78271484375,-0.29150390625,-0.29541015625,-85.2439024390244,77.6219512195122,8.963414634146343,70,8
125,0.810546875,-0.29345703125,-0.2783203125,-90.3048780487805,79.93902439024392,4.573170731707317,70,8
126,0.77099609375,-0.35546875,-0.23583984375,-91.03658536585367,78.35365853658537,1.2195121951219514,70,8
127,0.69140625,-0.39111328125,-0.1650390625,-84.93902439024392,73.96341463414635,-0.853658536585366,70,8
128,0.6669921875,-0.38916015625,-0.13916015625,-78.10975609756099,67.43902439024392,-2.073170731707317,70,8
129,0.61962890625,-0.39404296875,-0.1552734375,-71.15853658536587,60.304878048780495,-4.207317073170732,70,8
130,0.50244140625,-0.353515625,-0.171875,-65.79268292682927,57.19512195121952,-7.743902439024391,70,8
131,0.68017578125,-0.28125,-0.205078125,-66.46341463414635,55.365853658536594,-10.914634146341465,70,8
132,0.70703125,-0.255859375,-0.2041015625,-70.54878048780489,55.1829268292683,-12.865853658536587,70,8
133,0.7197265625,-0.2421875,-0.2197265625,-74.93902439024392,55.00000000000001,-15.365853658536587,70,8
134,0.72412109375,-0.2373046875,-0.31298828125,-77.8658536585366,51.951219512195124,-18.04878048780488,70,8
135,0.72265625,-0.20654296875,-0.29833984375,-78.71951219512196,50.91463414634147,-19.512195121951223,70,8
136,0.73681640625,-0.23193359375,-0.28466796875,-80.48780487804879,50.1219512195122,-22.195121951219512,70,8
137,0.6298828125,-0.2138671875,-0.2783203125,-84.20731707317074,51.524390243902445,-24.695121951219516,70,8
138,0.7158203125,-0.21533203125,-0.2509765625,-86.70731707317074,51.585365853658544,-26.158536585365855,70,8
139,0.69287109375,-0.24072265625,-0.23974609375,-88.59756097560977,51.15853658536586,-28.902439024390247,70,8
140,0.7265625,-0.18798828125,-0.27783203125,-90.3048780487805,50.79268292682927,-31.463414634146343,70,8
141,0.7578125,-0.15625,-0.34521484375,-92.31707317073172,47.25609756097561,-34.51219512195122,70,8
142,0.76416015625,-0.13427734375,-0.33544921875,-94.63414634146342,47.86585365853659,-37.19512195121951,70,8
143,0.7763671875,-0.1494140625,-0.30712890625,-98.90243902439025,48.53658536585366,-40.304878048780495,70,8
144,0.806640625,-0.12939453125,-0.31494140625,-103.71951219512196,47.804878048780495,-43.04878048780488,70,8
145,0.802734375,-0.0009765625,-0.31298828125,-107.8048780487805,62.31707317073171,-44.93902439024391,70,8
146,0.77783203125,-0.1435546875,-0.345703125,-93.90243902439025,43.78048780487805,-48.23170731707317,70,8
147,0.798828125,-0.109375,-0.35400390625,-111.58536585365854,43.23170731707317,-52.86585365853659,70,8
148,0.85107421875,-0.0439453125,-0.33203125,-115.79268292682927,43.04878048780488,-57.987804878048784,70,8
149,0.912109375,-0.04150390625,-0.2890625,-120.3048780487805,44.57317073170732,-60.243902439024396,70,8
150,0.8642578125,-0.12109375,-0.3232421875,-124.32926829268294,45.243902439024396,-63.963414634146346,70,8
151,0.85888671875,-0.130859375,-0.34033203125,-125.60975609756099,49.024390243902445,-69.57317073170732,70,8
152,0.86572265625,-0.19775390625,-0.333984375,-124.45121951219514,46.15853658536586,-71.40243902439025,70,8
153,0.90185546875,-0.10693359375,-0.2880859375,-125.48780487804879,45.36585365853659,-73.23170731707317,70,8
154,0.92041015625,-0.10498046875,-0.32861328125,-130.2439024390244,45.0609756097561,-77.07317073170732,70,8
155,0.91943359375,-0.05712890625,-0.36962890625,-133.109756097561,43.35365853658537,-81.58536585365854,70,8
156,0.9384765625,-0.013671875,-0.34716796875,-135.1219512195122,42.50000000000001,-85.00000000000001,70,8
157,0.9658203125,-0.037109375,-0.35107421875,-139.20731707317074,42.07317073170732,-88.84146341463415,70,8
158,0.951171875,-0.04296875,-0.3779296875,-142.07317073170734,39.87804878048781,-78.35365853658537,70,8
159,0.98779296875,-0.01123046875,-0.47900390625,-139.08536585365854,46.58536585365854,-96.70731707317074,70,8
160,0.98291015625,0.01171875,-0.41015625,-133.96341463414635,25.000000000000004,-98.71951219512196,70,8
161,1.0244140625,-0.03076171875,-0.451171875,-132.9268292682927,22.378048780487806,-104.39024390243904,70,8
162,1.0517578125,0.033203125,-0.47314453125,-136.09756097560978,24.451219512195124,-110.91463414634147,70,8
163,1.11572265625,0.11572265625,-0.4423828125,-141.89024390243904,27.134146341463417,-116.21951219512196,70,8
164,1.15478515625,0.12939453125,-0.43212890625,-149.20731707317074,28.475609756097562,-120.79268292682927,70,8
165,1.1708984375,0.10498046875,-0.44970703125,-157.19512195121953,31.951219512195124,-125.73170731707319,70,8
166,1.2001953125,0.087890625,-0.494140625,-159.39024390243904,31.58536585365854,-130.5487804878049,70,8
167,1.2412109375,0.15625,-0.54931640625,-158.96341463414635,30.60975609756098,-135.0609756097561,70,8
168,1.310546875,0.205078125,-0.484375,-161.82926829268294,33.65853658536586,-125.42682926829269,70,8
169,1.36279296875,0.20263671875,-0.49853515625,-167.19512195121953,34.32926829268293,-145.0609756097561,70,8
170,1.35888671875,0.19287109375,-0.56689453125,-169.45121951219514,34.57317073170732,-153.41463414634148,70,8
171,1.3837890625,0.21533203125,-0.51171875,-166.15853658536588,32.743902439024396,-159.93902439024393,70,8
172,1.40966796875,0.19775390625,-0.470703125,-158.84146341463415,28.59756097560976,-165.5487804878049,70,8
173,1.4755859375,0.22021484375,-0.3994140625,-152.43902439024393,24.634146341463417,-170.91463414634148,70,8
174,1.47509765625,0.20068359375,-0.38671875,-149.45121951219514,17.378048780487806,-179.39024390243904,70,8
175,1.38427734375,0.29931640625,-0.5419921875,-149.39024390243904,17.926829268292686,-188.71951219512198,70,8
176,1.50390625,0.33203125,-0.52490234375,-151.82926829268294,19.085365853658537,-197.25609756097563,70,8
177,1.76611328125,0.4970703125,-0.47998046875,-171.40243902439025,26.82926829268293,-207.9268292682927,70,8
178,1.88671875,0.376953125,-0.46630859375,-164.69512195121953,31.463414634146343,-213.47560975609758,70,8
179,1.8701171875,0.32275390625,-0.47998046875,-168.90243902439025,31.82926829268293,-217.56097560975613,70,8
180,1.80126953125,0.2841796875,-0.33642578125,-165.3048780487805,33.59756097560976,-223.2926829268293,70,8
181,1.81884765625,0.27392578125,-0.2822265625,-156.52439024390245,29.146341463414636,-224.87804878048783,70,8
182,1.7529296875,0.19873046875,-0.435546875,-147.31707317073173,21.82926829268293,-230.3658536585366,70,8
183,1.75927734375,0.27685546875,-0.40576171875,-133.109756097561,16.158536585365855,-238.53658536585368,70,8
184,1.8134765625,0.255859375,-0.42333984375,-121.09756097560977,7.25609756097561,-243.2926829268293,70,8
185,1.89697265625,0.28515625,-0.5517578125,-120.06097560975611,6.463414634146342,-252.37804878048783,70,8
186,1.96630859375,0.421875,-0.54150390625,-126.34146341463416,7.987804878048781,-260.4268292682927,70,8
187,2.0302734375,0.42822265625,-0.55078125,-138.35365853658539,15.365853658536587,-265.2439024390244,70,8
188,2.0322265625,0.39404296875,-0.5400390625,-151.40243902439025,28.170731707317074,-271.2804878048781,70,8
189,2.02587890625,0.4169921875,-0.4521484375,-161.09756097560978,34.32926829268293,-272.8658536585366,70,8
190,1.923828125,0.3359375,-0.44677734375,-166.46341463414635,40.0609756097561,-274.69512195121956,70,8
191,1.8720703125,0.31787109375,-0.3154296875,-162.7439024390244,41.707317073170735,-277.6829268292683,70,8
192,1.84228515625,0.3271484375,-0.24853515625,-155.1829268292683,39.75609756097561,-276.89024390243907,70,8
193,1.7939453125,0.30908203125,-0.24560546875,-152.8658536585366,43.65853658536586,-280.3048780487805,70,8
194,1.8056640625,0.4189453125,-0.1884765625,-152.43902439024393,49.085365853658544,-283.5975609756098,70,8
195,1.85107421875,0.45263671875,-0.15771484375,-153.96341463414635,53.53658536585366,-284.20731707317077,70,8
196,1.822265625,0.38037109375,-0.21435546875,-158.0487804878049,59.57317073170732,-287.3780487804878,70,8
197,1.78369140625,0.39990234375,-0.228515625,-161.03658536585368,63.90243902439025,-289.81707317073176,70,8
198,1.71240234375,0.36376953125,-0.21142578125,-164.32926829268294,69.32926829268293,-291.4634146341464,70,8
199,1.64453125,0.3505859375,-0.11328125,-164.75609756097563,76.34146341463415,-294.69512195121956,70,8
200,1.6318359375,0.39501953125,0.0400390625,-160.0,79.02439024390245,-296.4634146341464,70,8
201,1.56201171875,0.3125,0.03466796875,-154.87804878048783,80.42682926829269,-298.1707317073171,70,8
202,1.48095703125,0.23583984375,0.095703125,-145.0609756097561,81.82926829268294,-301.0365853658537,70,8
203,1.41845703125,0.19970703125,0.20361328125,-131.52439024390245,79.75609756097562,-302.13414634146346,70,8
204,1.35400390625,0.10205078125,0.18505859375,-116.34146341463416,78.71951219512196,-300.5487804878049,70,8
205,1.28076171875,0.05419921875,0.1533203125,-103.47560975609757,76.28048780487805,-296.95121951219517,70,8
206,1.14892578125,0.009765625,0.09326171875,-91.09756097560977,73.78048780487805,-294.81707317073176,70,8
207,1.23974609375,0.015625,0.09130859375,-79.14634146341464,71.70731707317074,-293.6585365853659,70,8
208,1.1025390625,0.046875,0.05615234375,-70.2439024390244,70.85365853658537,-291.0365853658537,70,8
209,1.0458984375,0.01171875,0.0478515625,-66.70731707317074,70.48780487804879,-288.9024390243903,70,8
210,1.02001953125,-0.0166015625,0.01171875,-66.09756097560977,71.09756097560977,-284.81707317073176,70,8
211,0.98876953125,-0.0517578125,0.0732421875,-65.42682926829269,71.58536585365854,-279.8170731707317,70,8
212,0.96435546875,-0.16796875,0.09033203125,-65.3048780487805,72.7439024390244,-274.57317073170736,70,8
213,0.92236328125,-0.32861328125,0.0751953125,-64.69512195121952,75.0609756097561,-267.5609756097561,70,8
214,0.79736328125,-0.447265625,0.07861328125,-59.146341463414636,74.93902439024392,-258.9024390243903,70,8
215,0.6650390625,-0.55517578125,0.0810546875,-52.19512195121952,73.41463414634147,-249.08536585365854,70,8
216,0.55859375,-0.6533203125,0.09228515625,-45.73170731707317,71.89024390243902,-240.6707317073171,70,8
217,0.4140625,-0.7216796875,0.0888671875,-42.926829268292686,69.26829268292684,-229.63414634146343,70,8
218,0.2568359375,-0.80908203125,0.169921875,-45.60975609756098,71.28048780487805,-215.7926829268293,70,8
219,0.10888671875,-0.93359375,0.1796875,-49.75609756097561,73.96341463414635,-200.4878048780488,70,8
220,-0.11328125,-1.01708984375,0.14501953125,-50.97560975609756,73.41463414634147,-181.21951219512198,70,8
221,-0.38818359375,-1.33203125,0.11328125,-47.31707317073171,69.45121951219512,-159.45121951219514,70,8
222,-0.5234375,-1.45263671875,0.146484375,-37.13414634146342,63.29268292682927,-137.37804878048783,70,8
223,-0.61083984375,-1.4833984375,0.212890625,-28.84146341463415,57.804878048780495,-114.63414634146342,70,8
224,-0.6328125,-1.544921875,0.28369140625,-24.32926829268293,55.1219512195122,-93.78048780487806,70,8
225,-0.720703125,-1.60107421875,0.255859375,-23.475609756097562,49.51219512195122,-72.6829268292683,70,8
226,-0.65087890625,-1.6640625,0.20849609375,-20.243902439024392,43.78048780487805,-49.57317073170732,70,8
227,-0.74072265625,-1.76806640625,0.20849609375,-17.31707317073171,41.34146341463415,-24.26829268292683,70,8
228,-0.73095703125,-1.84619140625,0.1904296875,-11.036585365853659,38.23170731707317,2.8658536585365857,70,8
229,-0.7841796875,-1.916015625,0.13818359375,-1.1585365853658538,33.04878048780488,27.682926829268297,70,8
230,-0.705078125,-1.93408203125,0.10546875,8.475609756097562,28.658536585365855,52.926829268292686,70,8
231,-0.67333984375,-1.970703125,0.1142578125,17.012195121951223,24.695121951219516,77.98780487804879,70,8
232,-0.6103515625,-2.01025390625,0.14208984375,26.951219512195124,21.219512195121954,102.7439024390244,70,8
233,-0.599609375,-2.0810546875,0.1015625,37.926829268292686,16.646341463414636,129.08536585365854,70,8
234,-0.546875,-2.16552734375,0.109375,49.146341463414636,10.548780487804878,152.9268292682927,70,8
235,-0.39453125,-2.2236328125,0.103515625,60.91463414634147,4.2682926829268295,177.01219512195124,70,8
236,-0.17578125,-2.275390625,0.134765625,74.69512195121952,1.402439024390244,199.93902439024393,70,8
237,0.05126953125,-2.29541015625,0.15966796875,83.35365853658537,-0.30487804878048785,223.35365853658539,70,8
238,0.2958984375,-2.31591796875,0.13330078125,92.5609756097561,1.5853658536585367,244.26829268292684,70,8
239,0.47216796875,-2.36279296875,0.17041015625,98.35365853658537,6.341463414634147,252.13414634146343,70,8
240,0.6474609375,-2.4716796875,0.16455078125,102.7439024390244,12.073170731707318,296.0975609756098,70,8
241,0.81689453125,-2.56005859375,0.001953125,107.8658536585366,17.195121951219512,314.20731707317077,70,8
242,0.99267578125,-2.7275390625,0.0625,116.21951219512196,20.0609756097561,373.5975609756098,70,8
243,1.23974609375,-2.92041015625,-0.02880859375,109.57317073170732,17.804878048780488,415.06097560975616,70,8
244,1.640625,-2.87939453125,-0.0556640625,136.40243902439025,14.451219512195124,459.26829268292687,70,8
245,2.11572265625,-3.0908203125,-0.0966796875,144.14634146341464,15.243902439024392,508.9024390243903,70,8
246,2.4140625,-3.19775390625,-0.0986328125,135.7317073170732,21.82926829268293,557.2560975609756,70,8
247,3.0068359375,-3.3291015625,-0.1806640625,123.10975609756099,30.731707317073173,594.2682926829269,70,8
248,3.4326171875,-3.48095703125,-0.33837890625,105.54878048780489,43.65853658536586,659.5731707317074,70,8
249,4.14453125,-3.5830078125,-0.3525390625,87.8658536585366,48.23170731707317,700.1219512195123,70,8
250,4.9521484375,-3.74609375,-0.52587890625,97.6829268292683,38.04878048780488,745.609756097561,70,8
251,5.80224609375,-4.00537109375,-0.78515625,137.01219512195124,29.146341463414636,774.6341463414635,70,8
252,6.7548828125,-4.29736328125,-1.13623046875,190.5487804878049,25.30487804878049,797.5609756097562,70,8
253,7.478515625,-4.43994140625,-1.2333984375,292.6829268292683,18.414634146341466,820.0609756097562,70,8
254,8.10205078125,-4.15185546875,-1.38720703125,403.8414634146342,1.0365853658536586,837.6219512195123,70,8
255,8.63232421875,-3.75048828125,-2.26904296875,483.4756097560976,-10.182926829268293,855.8536585365854,70,8
256,9.158203125,-3.40869140625,-3.40283203125,516.4024390243903,-30.54878048780488,889.3902439024391,70,8
257,9.787109375,-3.5048828125,-4.54736328125,531.829268292683,-34.51219512195122,894.2682926829269,70,8
258,10.45849609375,-3.27294921875,-5.50244140625,510.9756097560976,-21.28048780487805,905.3658536585367,70,8
259,10.853515625,-2.15185546875,-6.14794921875,519.0243902439025,-60.79268292682927,958.7804878048781,70,8
260,10.23046875,-1.33447265625,-6.57763671875,542.1951219512196,-107.92682926829269,979.5731707317074,70,8
261,9.8203125,-1.41455078125,-6.169921875,546.4634146341464,-216.89024390243904,942.5000000000001,70,8
262,9.78173828125,-2.2529296875,-6.8876953125,655.7926829268293,-346.76829268292687,876.2804878048781,70,8
263,8.74560546875,-2.61767578125,-6.1103515625,940.3658536585367,-573.048780487805,789.0243902439025,70,8
264,6.775390625,-2.17529296875,-0.5390625,1997.987804878049,-1196.09756097561,813.1707317073171,70,8
265,-10.16064453125,-16.0,-15.93798828125,893.7804878048781,-110.97560975609757,-362.8658536585366,70,8
266,15.99951171875,15.99951171875,-6.34814453125,1053.59756097561,-546.7073170731708,403.719512195122,70,8
267,-6.18505859375,-9.07568359375,-1.8095703125,1589.7560975609758,-636.4634146341464,-94.45121951219512,70,8
268,10.2998046875,2.11669921875,1.064453125,1413.1707317073171,-460.18292682926835,-329.57317073170736,70,8
269,7.3017578125,1.38916015625,-3.568359375,1212.0121951219514,-236.28048780487808,-400.12195121951225,70,8
270,5.3408203125,3.55712890625,1.220703125,918.8414634146342,-65.85365853658537,-388.2317073170732,70,8
271,3.97314453125,-0.99365234375,0.64990234375,841.7682926829269,-28.231707317073173,-455.6707317073171,70,8
272,4.7587890625,-2.13037109375,-0.6298828125,639.939024390244,58.17073170731708,-527.5609756097562,70,8
273,3.8642578125,-2.75244140625,-1.50927734375,541.7073170731708,71.82926829268294,-601.4024390243903,70,8
274,4.58642578125,-2.06103515625,-2.40283203125,497.19512195121956,99.20731707317074,-682.0731707317074,70,8
275,4.7451171875,-2.5458984375,-2.50439453125,407.31707317073176,123.84146341463416,-767.0121951219513,70,8
276,3.70654296875,-2.42041015625,-2.29833984375,331.3414634146342,177.7439024390244,-804.1463414634147,70,8
277,3.02392578125,-2.36083984375,-1.99267578125,279.75609756097566,237.43902439024393,-791.0365853658537,70,8
278,2.84814453125,-2.1474609375,-1.8427734375,213.84146341463418,321.2804878048781,-758.719512195122,70,8
279,2.060546875,-2.15283203125,-1.62158203125,150.5487804878049,370.7317073170732,-714.2682926829269,70,8
280,1.45068359375,-1.99072265625,-1.83740234375,121.76829268292684,409.75609756097566,-677.3780487804879,70,8
281,1.69482421875,-1.53173828125,-1.7578125,103.17073170731709,421.4634146341464,-643.719512195122,70,8
282,1.859375,-1.2587890625,-1.98095703125,90.48780487804879,406.0975609756098,-612.0731707317074,70,8
283,2.21728515625,-0.98193359375,-2.29443359375,77.92682926829269,381.1585365853659,-586.829268292683,70,8
284,2.390625,-0.908203125,-2.19580078125,26.82926829268293,352.07317073170736,-568.6585365853659,70,8
285,2.6796875,-0.88623046875,-2.056640625,-51.768292682926834,341.70731707317077,-539.5121951219513,70,8
286,2.35546875,-1.1787109375,-1.8095703125,-126.28048780487806,351.82926829268297,-513.2317073170732,70,8
287,1.8212890625,-1.37939453125,-1.50732421875,-192.07317073170734,363.4756097560976,-483.1707317073171,70,8
288,1.34619140625,-1.48828125,-1.408203125,-242.01219512195124,372.01219512195127,-444.1463414634147,70,8
289,1.0654296875,-1.3896484375,-1.22314453125,-241.34146341463418,384.0853658536586,-422.31707317073176,70,8
290,1.02978515625,-1.30029296875,-1.0068359375,-226.40243902439028,382.9878048780488,-395.9756097560976,70,8
291,0.99755859375,-1.16650390625,-1.15380859375,-215.4268292682927,364.81707317073176,-368.6585365853659,70,8
292,0.94921875,-0.76708984375,-1.39404296875,-161.09756097560978,329.26829268292687,-344.57317073170736,70,8
293,0.951171875,-0.53515625,-1.60791015625,-143.0487804878049,302.31707317073176,-321.0975609756098,70,8
294,0.8310546875,-0.58056640625,-1.638671875,-164.93902439024393,298.1707317073171,-301.6463414634147,70,8
295,0.57763671875,-0.76806640625,-1.67724609375,-212.01219512195124,298.5975609756098,-283.4756097560976,70,8
296,0.44921875,-0.73876953125,-1.396484375,-231.64634146341464,303.5975609756098,-279.8170731707317,70,8
297,0.193359375,-0.525390625,-1.00732421875,-245.7317073170732,300.5487804878049,-251.03658536585368,70,8
298,0.0009765625,-0.4404296875,-0.9208984375,-249.45121951219514,290.5487804878049,-247.19512195121953,70,8
299,0.1005859375,-0.16259765625,-0.94384765625,-248.0487804878049,277.6219512195122,-238.53658536585368,70,8
300,0.34912109375,0.24853515625,-1.103515625,-247.56097560975613,268.7804878048781,-230.97560975609758,70,8
301,0.07373046875,-0.25,-0.97119140625,-262.01219512195127,245.91463414634148,-215.91463414634148,70,8
302,0.103515625,-0.49365234375,-1.13037109375,-258.5365853658537,229.63414634146343,-203.78048780487808,70,8
303,-0.05859375,-0.56689453125,-1.27783203125,-247.01219512195124,220.4878048780488,-187.56097560975613,70,8
304,-0.2958984375,-0.54638671875,-0.8564453125,-248.2926829268293,199.75609756097563,-160.91463414634148,70,8
305,-0.57958984375,-0.52880859375,-0.595703125,-228.96341463414637,194.63414634146343,-149.69512195121953,70,8
306,-0.68408203125,-0.4443359375,-0.62158203125,-228.1707317073171,182.6829268292683,-146.70731707317074,70,8
307,-0.6318359375,-0.27978515625,-0.71875,-226.28048780487808,167.7439024390244,-155.85365853658539,70,8
308,-0.5693359375,-0.248046875,-0.76318359375,-215.97560975609758,154.75609756097563,-137.07317073170734,70,8
309,-0.5126953125,-0.3544921875,-0.82177734375,-221.64634146341464,145.5487804878049,-128.1707317073171,70,8
310,-0.78173828125,-0.40478515625,-0.8583984375,-217.07317073170734,135.4878048780488,-114.45121951219514,70,8
311,-0.98486328125,-0.48681640625,-0.8740234375,-208.35365853658539,128.41463414634148,-102.6219512195122,70,8
312,-1.21337890625,-0.59375,-0.9150390625,-195.5487804878049,119.69512195121952,-94.63414634146342,70,8
313,-1.31298828125,-0.5830078125,-0.98974609375,-175.0609756097561,107.19512195121952,-84.69512195121952,70,8
314,-1.314453125,-0.5009765625,-0.79541015625,-152.9878048780488,94.57317073170732,-72.98780487804879,70,8
315,-1.2890625,-0.44140625,-0.80224609375,-143.59756097560978,85.42682926829269,-59.268292682926834,70,8
316,-1.263671875,-0.423828125,-0.87353515625,-138.109756097561,76.95121951219512,-48.10975609756098,70,8
317,-1.31103515625,-0.416015625,-0.904296875,-132.9268292682927,68.23170731707317,-37.5,70,8
318,-1.341796875,-0.4736328125,-0.98974609375,-126.40243902439026,60.73170731707317,-29.87804878048781,70,8
319,-1.3291015625,-0.4892578125,-0.7392578125,-118.90243902439025,55.426829268292686,-23.04878048780488,70,8
320,-1.33447265625,-0.51953125,-0.78564453125,-114.45121951219514,47.19512195121952,-18.414634146341466,70,8
321,-1.20947265625,-0.49609375,-0.69921875,-100.1219512195122,41.28048780487805,-11.158536585365855,70,8
322,-1.177734375,-0.47802734375,-0.61279296875,-88.04878048780489,33.170731707317074,-5.2439024390243905,70,8
323,-1.11962890625,-0.38623046875,-0.615234375,-77.6219512195122,24.878048780487806,-1.8902439024390245,70,8
324,-1.12548828125,-0.376953125,-0.6787109375,-64.45121951219512,18.414634146341466,-2.3170731707317076,70,8
325,-1.0654296875,-0.29345703125,-0.677734375,-49.51219512195122,10.0,0.426829268292683,70,8
326,-1.08642578125,-0.31884765625,-0.60400390625,-41.34146341463415,6.585365853658537,3.963414634146342,70,8
327,-1.1171875,-0.32470703125,-0.54736328125,-36.768292682926834,4.024390243902439,8.536585365853659,70,8
328,-1.1328125,-0.30126953125,-0.60546875,-31.52439024390244,-1.3414634146341464,13.963414634146343,70,8
329,-1.14404296875,-0.3134765625,-0.67041015625,-21.402439024390247,-8.963414634146343,20.0,70,8
330,-1.15869140625,-0.29931640625,-0.662109375,-12.01219512195122,-18.231707317073173,25.914634146341466,70,8
331,-1.17626953125,-0.279296875,-0.74951171875,-5.121951219512195,-27.073170731707318,33.53658536585366,70,8
332,-1.1953125,-0.23974609375,-0.5908203125,-0.3658536585365854,-36.09756097560976,40.91463414634147,70,8
333,-1.2412109375,-0.22509765625,-0.59423828125,4.024390243902439,-44.75609756097561,45.97560975609756,70,8
334,-1.244140625,-0.19287109375,-0.56982421875,8.231707317073171,-52.5609756097561,48.170731707317074,70,8
335,-1.22607421875,-0.14990234375,-0.6220703125,13.04878048780488,-59.87804878048781,49.81707317073171,70,8
336,-1.18310546875,-0.111328125,-0.46142578125,17.195121951219512,-67.13414634146342,51.21951219512196,70,8
337,-1.13037109375,-0.06787109375,-0.443359375,19.81707317073171,-73.10975609756098,51.40243902439025,70,8
338,-1.1103515625,-0.0439453125,-0.4189453125,23.353658536585368,-80.3048780487805,51.585365853658544,70,8
339,-1.00244140625,-0.04052734375,-0.37646484375,28.59756097560976,-86.76829268292684,50.85365853658537,70,8
340,-1.12890625,-0.0380859375,-0.3154296875,33.84146341463415,-93.23170731707317,49.57317073170732,70,8
341,-1.13037109375,-0.0234375,-0.251953125,37.19512195121951,-97.50000000000001,49.51219512195122,70,8
342,-1.1318359375,0.00634765625,-0.2138671875,39.268292682926834,-101.34146341463415,48.78048780487805,70,8
343,-1.13427734375,0.052734375,-0.224609375,41.40243902439025,-105.91463414634147,48.53658536585366,70,8
344,-1.14404296875,0.0947265625,-0.2177734375,44.024390243902445,-110.73170731707319,47.86585365853659,70,8
345,-1.15966796875,0.1083984375,-0.2197265625,31.280487804878053,-114.08536585365854,47.6219512195122,70,8
346,-1.15380859375,0.11474609375,-0.21533203125,50.36585365853659,-118.53658536585367,47.987804878048784,70,8
347,-1.15234375,0.111328125,-0.1884765625,53.04878048780488,-123.53658536585367,48.90243902439025,70,8
348,-1.15869140625,0.11474609375,-0.17236328125,54.51219512195122,-127.8048780487805,50.00000000000001,70,8
349,-1.14111328125,0.00439453125,-0.12841796875,56.09756097560976,-129.26829268292684,51.40243902439025,70,8
350,-1.09375,0.13232421875,-0.07861328125,56.951219512195124,-132.31707317073173,52.804878048780495,70,8
351,-1.06005859375,0.15185546875,-0.0439453125,59.024390243902445,-135.97560975609758,54.51219512195122,70,8
352,-1.0146484375,0.18896484375,-0.01708984375,46.951219512195124,-139.75609756097563,55.365853658536594,70,8
353,-0.9619140625,0.21435546875,0.03515625,66.21951219512195,-141.89024390243904,55.1219512195122,70,8
354,-0.9189453125,0.2392578125,0.08642578125,68.35365853658537,-141.76829268292684,54.51219512195122,70,8
355,-0.884765625,0.26318359375,0.109375,70.0,-141.28048780487805,52.926829268292686,70,8
356,-0.87158203125,0.298828125,0.13232421875,72.6219512195122,-141.95121951219514,50.91463414634147,70,8
357,-0.83740234375,0.28564453125,0.15478515625,75.73170731707317,-142.6219512195122,49.451219512195124,70,8
358,-0.81591796875,0.28759765625,0.146484375,77.37804878048782,-143.65853658536588,62.37804878048781,70,8
359,-0.81005859375,0.30126953125,0.1318359375,77.5,-144.02439024390245,44.63414634146342,70,8
360,-0.810546875,0.2958984375,0.158203125,76.76829268292684,-144.9390243902439,42.43902439024391,70,8
361,-0.81689453125,0.27978515625,0.1845703125,76.15853658536587,-145.91463414634148,40.85365853658537,70,8
362,-0.82958984375,0.25244140625,0.2666015625,75.73170731707317,-147.07317073170734,40.36585365853659,70,8
363,-0.84814453125,0.2265625,0.29541015625,75.1829268292683,-147.5,39.63414634146342,70,8
364,-0.84521484375,0.22021484375,0.31298828125,73.71951219512195,-146.52439024390245,39.63414634146342,70,8
365,-0.8408203125,0.2197265625,0.33349609375,73.17073170731707,-148.53658536585368,40.1829268292683,70,8
366,-0.84619140625,0.20361328125,0.33935546875,73.29268292682927,-149.39024390243904,40.54878048780488,70,8
367,-0.83544921875,0.22265625,0.35009765625,74.93902439024392,-151.58536585365854,41.890243902439025,70,8
368,-0.7998046875,0.24365234375,0.34033203125,75.67073170731707,-154.57317073170734,43.71951219512196,70,8
369,-0.7431640625,0.2783203125,0.306640625,75.48780487804879,-156.46341463414635,45.1219512195122,70,8
370,-0.712890625,0.2802734375,0.3046875,71.82926829268294,-157.9878048780488,45.426829268292686,70,8
371,-0.7109375,0.28173828125,0.3173828125,68.35365853658537,-158.2926829268293,45.243902439024396,70,8
372,-0.68408203125,0.28515625,0.353515625,65.60975609756098,-159.26829268292684,45.79268292682927,70,8
373,-0.64892578125,0.28076171875,0.42529296875,63.29268292682927,-159.93902439024393,46.58536585365854,70,8
374,-0.623046875,0.27587890625,0.44091796875,62.19512195121952,-161.46341463414635,47.86585365853659,70,8
375,-0.6015625,0.26513671875,0.4697265625,63.23170731707317,-163.84146341463415,48.41463414634147,70,8
376,-0.6025390625,0.12744140625,0.49560546875,64.39024390243902,-164.81707317073173,47.6829268292683,70,8
377,-0.58642578125,0.26220703125,0.521484375,65.67073170731707,-164.81707317073173,47.37804878048781,70,8
378,-0.5595703125,0.27587890625,0.55078125,65.0,-162.6829268292683,47.50000000000001,70,8
379,-0.51806640625,0.3076171875,0.53662109375,63.65853658536586,-160.97560975609758,48.29268292682927,70,8
380,-0.47216796875,0.31787109375,0.5078125,61.646341463414636,-159.26829268292684,49.39024390243903,70,8
381,-0.4453125,0.32666015625,0.44873046875,59.63414634146342,-160.0,50.1829268292683,70,8
382,-0.421875,0.322265625,0.42041015625,59.32926829268293,-162.13414634146343,51.585365853658544,70,8
383,-0.40966796875,0.29541015625,0.4482421875,59.32926829268293,-163.71951219512198,52.86585365853659,70,8
384,-0.38671875,0.2744140625,0.4951171875,60.00000000000001,-164.02439024390245,54.085365853658544,70,8
385,-0.34619140625,0.27880859375,0.55712890625,59.81707317073171,-163.2317073170732,55.00000000000001,70,8
386,-0.3193359375,0.2890625,0.5625,58.29268292682927,-161.82926829268294,55.79268292682927,70,8
387,-0.2939453125,0.31201171875,0.56396484375,56.707317073170735,-160.6707317073171,56.09756097560976,70,8
388,-0.27294921875,0.3330078125,0.54931640625,56.707317073170735,-160.1829268292683,56.03658536585366,70,8
389,-0.23828125,0.34521484375,0.53271484375,57.31707317073171,-160.7926829268293,56.82926829268293,70,8
390,-0.1865234375,0.34619140625,0.5087890625,59.75609756097562,-163.47560975609758,58.963414634146346,70,8
391,-0.1591796875,0.33349609375,0.48583984375,46.89024390243903,-166.82926829268294,60.79268292682927,70,8
392,-0.13623046875,0.32958984375,0.50537109375,63.04878048780488,-169.20731707317074,61.646341463414636,70,8
393,-0.24609375,0.3310546875,0.55029296875,59.268292682926834,-170.00000000000003,62.560975609756106,70,8
394,-0.10986328125,0.36181640625,0.58251953125,52.6219512195122,-168.2317073170732,62.987804878048784,70,8
395,-0.09130859375,0.380859375,0.6494140625,45.1219512195122,-164.69512195121953,64.32926829268293,70,8
396,-0.09423828125,0.38330078125,0.68798828125,39.93902439024391,-162.31707317073173,65.42682926829269,70,8
397,-0.07421875,0.3857421875,0.69384765625,38.41463414634147,-160.5487804878049,66.34146341463415,70,8
398,-0.03857421875,0.4130859375,0.671875,40.243902439024396,-161.21951219512198,67.07317073170732,70,8
399,-0.00048828125,0.44775390625,0.62939453125,43.41463414634147,-163.35365853658539,68.23170731707317,70,8
400,0.04833984375,0.4833984375,0.59423828125,46.09756097560976,-166.03658536585368,69.08536585365854,70,8
401,0.0751953125,0.52099609375,0.580078125,46.524390243902445,-167.9268292682927,69.45121951219512,70,8
402,0.1123046875,0.5390625,0.572265625,45.60975609756098,-169.51219512195124,69.75609756097562,70,8
403,0.111328125,0.5361328125,0.50390625,41.58536585365854,-168.47560975609758,70.0609756097561,70,8
404,0.11279296875,0.50537109375,0.642578125,34.87804878048781,-163.84146341463415,70.1829268292683,70,8
405,0.15380859375,0.53125,0.7119140625,29.87804878048781,-159.57317073170734,70.0,70,8
406,0.1669921875,0.5185546875,0.8681640625,28.170731707317074,-156.46341463414635,71.21951219512195,70,8
407,0.18701171875,0.5244140625,0.77099609375,29.26829268292683,-154.81707317073173,71.89024390243902,70,8
408,0.20751953125,0.5234375,0.73681640625,32.987804878048784,-155.7317073170732,73.71951219512195,70,8
409,0.2021484375,0.52392578125,0.73583984375,38.65853658536586,-156.76829268292684,73.53658536585367,70,8
410,0.244140625,0.56640625,0.7294921875,45.243902439024396,-157.9878048780488,74.26829268292684,70,8
411,0.27783203125,0.5869140625,0.68994140625,50.1829268292683,-159.08536585365854,75.3658536585366,70,8
412,0.3076171875,0.59814453125,0.646484375,49.146341463414636,-157.43902439024393,75.91463414634147,70,8
413,0.31103515625,0.59619140625,0.61328125,42.37804878048781,-153.96341463414635,76.64634146341464,70,8
414,0.33935546875,0.63525390625,0.64013671875,35.487804878048784,-150.609756097561,75.97560975609757,70,8
415,0.37255859375,0.64697265625,0.701171875,46.768292682926834,-147.5,75.91463414634147,70,8
416,0.40576171875,0.63525390625,0.73486328125,29.939024390243905,-143.84146341463415,75.2439024390244,70,8
417,0.45556640625,0.63427734375,0.7236328125,30.914634146341466,-141.52439024390245,74.14634146341464,70,8
418,0.50146484375,0.64111328125,0.68603515625,32.926829268292686,-142.4390243902439,72.8658536585366,70,8
419,0.5234375,0.65087890625,0.6435546875,35.1829268292683,-143.35365853658539,70.91463414634147,70,8
420,0.56982421875,0.69091796875,0.6005859375,38.170731707317074,-146.95121951219514,69.57317073170732,70,8
421,0.57666015625,0.6669921875,0.607421875,36.646341463414636,-146.64634146341464,68.65853658536587,70,8
422,0.56982421875,0.63623046875,0.65771484375,32.987804878048784,-142.5,67.5609756097561,70,8
423,0.56787109375,0.61669921875,0.6904296875,30.243902439024392,-137.01219512195124,65.73170731707317,70,8
424,0.57177734375,0.61474609375,0.7060546875,30.121951219512198,-132.9878048780488,64.32926829268293,70,8
425,0.57275390625,0.56787109375,0.69921875,32.5,-130.7317073170732,64.87804878048782,70,8
426,0.59521484375,0.55615234375,0.6630859375,37.25609756097561,-130.0,65.0609756097561,70,8
427,0.59716796875,0.5439453125,0.615234375,40.670731707317074,-129.08536585365854,66.21951219512195,70,8
428,0.61572265625,0.5556640625,0.5703125,43.10975609756098,-128.41463414634148,67.92682926829269,70,8
429,0.64892578125,0.58935546875,0.49462890625,44.268292682926834,-129.69512195121953,68.71951219512195,70,8
430,0.70703125,0.50244140625,0.44287109375,44.451219512195124,-132.19512195121953,68.23170731707317,70,8
431,0.7373046875,0.65087890625,0.41064453125,40.85365853658537,-133.78048780487805,67.31707317073172,70,8
432,0.755859375,0.66064453125,0.42333984375,34.451219512195124,-133.35365853658539,66.64634146341464,70,8
433,0.74169921875,0.6611328125,0.43017578125,27.012195121951223,-130.97560975609758,66.46341463414635,70,8
434,0.7080078125,0.63916015625,0.451171875,19.451219512195124,-128.53658536585368,66.76829268292684,70,8
435,0.6669921875,0.60498046875,0.4658203125,14.573170731707318,-126.58536585365854,67.92682926829269,70,8
436,0.61181640625,0.59326171875,0.451171875,12.500000000000002,-124.81707317073172,68.71951219512195,70,8
437,0.62158203125,0.60888671875,0.404296875,12.195121951219512,-124.51219512195124,69.45121951219512,70,8
438,0.6591796875,0.63916015625,0.33740234375,12.926829268292684,-126.64634146341464,71.03658536585367,70,8
439,0.64404296875,0.6279296875,0.3017578125,10.914634146341465,-128.78048780487805,71.89024390243902,70,8
440,0.65576171875,0.609375,0.29052734375,5.670731707317073,-127.62195121951221,71.34146341463415,70,8
441,0.6640625,0.61865234375,0.318359375,0.12195121951219513,-126.64634146341464,70.85365853658537,70,8
442,0.65087890625,0.59912109375,0.25732421875,-5.2439024390243905,-124.63414634146342,70.1829268292683,70,8
443,0.63525390625,0.54736328125,0.431640625,-7.926829268292684,-121.34146341463416,69.87804878048782,70,8
444,0.60302734375,0.490234375,0.43115234375,-8.414634146341465,-117.8048780487805,68.84146341463415,70,8
445,0.61669921875,0.4775390625,0.39599609375,-7.25609756097561,-115.12195121951221,67.07317073170732,70,8
446,0.66357421875,0.48193359375,0.365234375,-4.329268292682928,-114.51219512195122,65.0609756097561,70,8
447,0.71875,0.5009765625,0.31494140625,-1.0365853658536586,-114.69512195121952,63.23170731707317,70,8
448,0.76806640625,0.52294921875,0.28369140625,2.804878048780488,-115.67073170731709,61.95121951219513,70,8
449,0.77294921875,0.5146484375,0.27001953125,4.695121951219512,-115.79268292682927,60.1829268292683,70,8
450,0.77294921875,0.5283203125,0.2880859375,4.573170731707317,-112.8048780487805,57.804878048780495,70,8
451,0.7734375,0.52001953125,0.28125,1.0365853658536586,-107.98780487804879,55.67073170731708,70,8
452,0.7841796875,0.5302734375,0.255859375,-3.5975609756097566,-103.41463414634147,53.78048780487806,70,8
453,0.76708984375,0.51416015625,0.2216796875,-7.195121951219513,-99.14634146341464,51.524390243902445,70,8
454,0.765625,0.48193359375,0.20654296875,-8.78048780487805,-96.70731707317074,49.93902439024391,70,8
455,0.771484375,0.45458984375,0.21630859375,-9.817073170731708,-94.26829268292684,48.29268292682927,70,8
456,0.76904296875,0.4267578125,0.25048828125,-9.51219512195122,-92.6219512195122,47.31707317073171,70,8
457,0.76220703125,0.41015625,0.22216796875,-7.621951219512196,-91.64634146341464,45.60975609756098,70,8
458,0.76220703125,0.4189453125,0.20654296875,-8.109756097560977,-88.41463414634147,42.743902439024396,70,8
459,0.78369140625,0.44287109375,0.18359375,-11.463414634146343,-85.00000000000001,41.09756097560976,70,8
460,0.80859375,0.45654296875,0.16650390625,-17.5609756097561,-81.03658536585367,39.146341463414636,70,8
461,0.82470703125,0.46142578125,0.16943359375,-23.902439024390247,-75.60975609756098,36.40243902439025,70,8
462,0.8173828125,0.44970703125,0.16455078125,-28.231707317073173,-71.40243902439025,33.78048780487805,70,8
463,0.806640625,0.4287109375,0.16162109375,-28.353658536585368,-68.90243902439025,46.524390243902445,70,8
464,0.7939453125,0.42236328125,0.1728515625,-28.04878048780488,-65.91463414634147,28.414634146341466,70,8
465,0.7861328125,0.42431640625,0.1669921875,-28.292682926829272,-62.865853658536594,26.402439024390247,70,8
466,0.78125,0.40771484375,0.14794921875,-28.84146341463415,-60.487804878048784,24.512195121951223,70,8
467,0.7705078125,0.39697265625,0.15234375,-28.53658536585366,-58.29268292682927,22.80487804878049,70,8
468,0.775390625,0.38427734375,0.1376953125,-29.634146341463417,-54.93902439024391,21.158536585365855,70,8
469,0.78125,0.40673828125,0.138671875,-30.243902439024392,-52.50000000000001,19.512195121951223,70,8
470,0.798828125,0.3994140625,0.12255859375,-32.6829268292683,-48.53658536585366,17.073170731707318,70,8
471,0.81640625,0.3896484375,0.0947265625,-38.78048780487805,-43.29268292682927,13.78048780487805,70,8
472,0.8349609375,0.41357421875,0.0869140625,-43.59756097560976,-39.51219512195122,11.158536585365855,70,8
473,0.83154296875,0.41162109375,0.08837890625,-44.51219512195122,-37.86585365853659,8.963414634146343,70,8
474,0.8056640625,0.37646484375,0.06494140625,-46.15853658536586,-35.54878048780488,7.317073170731708,70,8
475,0.78564453125,0.36474609375,0.04296875,-48.04878048780488,-34.57317073170732,5.7926829268292686,70,8
476,0.78466796875,0.3642578125,0.0126953125,-49.207317073170735,-33.90243902439025,4.024390243902439,70,8
477,0.77587890625,0.357421875,0.01318359375,-51.768292682926834,-32.19512195121951,2.6219512195121952,70,8
478,0.77392578125,0.357421875,-0.00390625,-55.85365853658537,-30.670731707317074,1.5853658536585367,70,8
479,0.771484375,0.35107421875,-0.00732421875,-59.451219512195124,-29.512195121951223,0.48780487804878053,70,8
480,0.75439453125,0.3408203125,-0.1220703125,-60.91463414634147,-29.26829268292683,-0.24390243902439027,70,8
481,0.732421875,0.3076171875,-0.025390625,-65.0,-27.743902439024392,-1.3414634146341464,70,8
482,0.7265625,0.32373046875,-0.03173828125,-68.71951219512195,-26.03658536585366,-2.987804878048781,70,8
483,0.72509765625,0.3330078125,-0.029296875,-71.28048780487805,-25.121951219512198,-3.780487804878049,70,8
484,0.72705078125,0.31103515625,-0.04638671875,-73.10975609756098,-24.573170731707318,-4.634146341463415,70,8
485,0.7099609375,0.2939453125,-0.06884765625,-74.26829268292684,-24.085365853658537,-5.426829268292684,70,8
486,0.68603515625,0.27978515625,-0.07177734375,-72.25609756097562,-25.426829268292686,-6.341463414634147,70,8
487,0.681640625,0.28173828125,-0.08935546875,-70.42682926829269,-25.60975609756098,-7.073170731707318,70,8
488,0.6826171875,0.27099609375,-0.09716796875,-71.34146341463415,-24.695121951219516,-7.560975609756098,70,8
489,0.6904296875,0.2861328125,-0.11669921875,-72.43902439024392,-24.085365853658537,-7.8048780487804885,70,8
490,0.69189453125,0.29248046875,-0.24755859375,-73.17073170731707,-23.658536585365855,-8.048780487804878,70,8
491,0.6953125,0.29052734375,-0.1435546875,-73.78048780487805,-23.658536585365855,-8.597560975609756,70,8
492,0.697265625,0.2861328125,-0.13623046875,-73.84146341463415,-24.695121951219516,-9.085365853658537,70,8
493,0.6884765625,0.26513671875,-0.150390625,-73.10975609756098,-25.60975609756098,-9.634146341463415,70,8
494,0.6826171875,0.2607421875,-0.15380859375,-72.07317073170732,-26.76829268292683,-10.30487804878049,70,8
495,0.68310546875,0.263671875,-0.1494140625,-71.82926829268294,-27.987804878048784,-10.914634146341465,70,8
496,0.67138671875,0.37451171875,-0.15283203125,-71.58536585365854,-28.963414634146343,-10.731707317073171,70,8
497,0.66064453125,0.23291015625,-0.146484375,-70.54878048780489,-30.30487804878049,-10.426829268292684,70,8
498,0.6494140625,0.232421875,-0.1630859375,-71.40243902439025,-29.81707317073171,-10.731707317073171,70,8
499,0.66259765625,0.228515625,-0.16552734375,-76.21951219512196,-27.31707317073171,-10.426829268292684,70,8
