,Ax,Ay,Az,Gx,Gy,Gz,distance,shot_type
0,0.7509765625,-0.45361328125,-0.35107421875,24.451219512195124,-5.548780487804878,-0.24390243902439027,130,4
1,0.71826171875,-0.53125,-0.32470703125,18.04878048780488,-2.073170731707317,-0.30487804878048785,130,4
2,0.6865234375,-0.5791015625,-0.29541015625,13.170731707317074,1.0975609756097562,-1.0365853658536586,130,4
3,0.6689453125,-0.58349609375,-0.2919921875,8.719512195121952,4.024390243902439,-2.073170731707317,130,4
4,0.66455078125,-0.58056640625,-0.294921875,2.987804878048781,8.048780487804878,-3.414634146341464,130,4
5,0.66552734375,-0.56005859375,-0.2900390625,-4.146341463414634,12.74390243902439,-5.2439024390243905,130,4
6,0.67822265625,-0.5498046875,-0.279296875,-9.390243902439025,16.03658536585366,-5.853658536585367,130,4
7,0.66943359375,-0.55517578125,-0.2734375,-11.829268292682928,18.170731707317074,-6.158536585365854,130,4
8,0.6748046875,-0.5712890625,-0.27392578125,-12.378048780487806,18.475609756097562,-6.2804878048780495,130,4
9,0.64990234375,-0.60791015625,-0.3017578125,-11.28048780487805,17.743902439024392,-6.402439024390245,130,4
10,0.65234375,-0.60400390625,-0.32177734375,-8.475609756097562,16.097560975609756,-6.158536585365854,130,4
11,0.66845703125,-0.62255859375,-0.34814453125,-8.658536585365855,16.82926829268293,-4.695121951219512,130,4
12,0.66650390625,-0.63232421875,-0.35498046875,-13.719512195121952,19.146341463414636,-3.9024390243902443,130,4
13,0.67236328125,-0.59716796875,-0.3818359375,-19.878048780487806,22.134146341463417,-5.121951219512195,130,4
14,0.7001953125,-0.56396484375,-0.4111328125,-25.670731707317074,24.451219512195124,-5.853658536585367,130,4
15,0.69482421875,-0.54296875,-0.4091796875,-32.743902439024396,28.719512195121954,-4.695121951219512,130,4
16,0.6845703125,-0.58203125,-0.35498046875,-40.60975609756098,34.08536585365854,-2.7439024390243905,130,4
17,0.6787109375,-0.6064453125,-0.29541015625,-45.487804878048784,37.86585365853659,-1.402439024390244,130,4
18,0.65185546875,-0.6025390625,-0.25341796875,-45.91463414634147,40.426829268292686,-0.30487804878048785,130,4
19,0.61328125,-0.611328125,-0.21923828125,-41.646341463414636,36.646341463414636,1.524390243902439,130,4
20,0.57275390625,-0.61865234375,-0.16943359375,-45.85365853658537,30.426829268292686,2.804878048780488,130,4
21,0.53173828125,-0.6572265625,-0.1259765625,-16.158536585365855,22.073170731707318,4.817073170731708,130,4
22,0.529296875,-0.685546875,-0.1494140625,-3.2926829268292686,30.731707317073173,5.609756097560976,130,4
23,0.568359375,-0.6611328125,-0.18408203125,5.2439024390243905,10.792682926829269,6.402439024390245,130,4
24,0.6015625,-0.61279296875,-0.2080078125,8.841463414634147,9.939024390243903,6.829268292682928,130,4
25,0.50341796875,-0.58056640625,-0.2177734375,8.658536585365855,11.402439024390246,7.500000000000001,130,4
26,0.64013671875,-0.57275390625,-0.2109375,6.585365853658537,13.353658536585368,7.743902439024391,130,4
27,0.6572265625,-0.55419921875,-0.21484375,5.182926829268293,15.54878048780488,6.52439024390244,130,4
28,0.65283203125,-0.5419921875,-0.201171875,1.829268292682927,17.743902439024392,5.914634146341464,130,4
29,0.66748046875,-0.52587890625,-0.203125,-1.402439024390244,20.0,4.2682926829268295,130,4
30,0.68408203125,-0.5087890625,-0.205078125,-3.353658536585366,21.219512195121954,2.7439024390243905,130,4
31,0.68798828125,-0.50390625,-0.22607421875,-6.52439024390244,22.743902439024392,1.9512195121951221,130,4
32,0.66455078125,-0.521484375,-0.212890625,-9.634146341463415,23.963414634146343,1.3414634146341464,130,4
33,0.6572265625,-0.54052734375,-0.2119140625,-11.52439024390244,23.78048780487805,0.426829268292683,130,4
34,0.65087890625,-0.54638671875,-0.20751953125,-10.0,21.402439024390247,0.1829268292682927,130,4
35,0.630859375,-0.58154296875,-0.20751953125,-5.182926829268293,18.170731707317074,0.6097560975609757,130,4
36,0.6298828125,-0.61376953125,-0.171875,0.9146341463414634,14.817073170731708,0.853658536585366,130,4
37,0.6298828125,-0.61328125,-0.21044921875,4.2682926829268295,13.597560975609758,0.6707317073170732,130,4
38,0.64306640625,-0.57861328125,-0.216796875,4.2682926829268295,14.817073170731708,0.30487804878048785,130,4
39,0.65283203125,-0.55419921875,-0.22607421875,2.3170731707317076,17.195121951219512,1.2195121951219514,130,4
40,0.65576171875,-0.56103515625,-0.22900390625,-0.48780487804878053,19.634146341463417,1.7682926829268295,130,4
41,0.65576171875,-0.56396484375,-0.22705078125,-2.8658536585365857,21.158536585365855,1.5853658536585367,130,4
42,0.646484375,-0.56884765625,-0.22802734375,-4.939024390243903,22.682926829268293,1.4634146341463417,130,4
43,0.64404296875,-0.57470703125,-0.22265625,-6.829268292682928,24.207317073170735,1.524390243902439,130,4
44,0.64990234375,-0.578125,-0.20458984375,-9.085365853658537,26.09756097560976,1.524390243902439,130,4
45,0.640625,-0.5712890625,-0.1865234375,-11.219512195121952,28.231707317073173,1.4634146341463417,130,4
46,0.5,-0.58740234375,-0.16650390625,-12.865853658536587,29.32926829268293,1.0365853658536586,130,4
47,0.62744140625,-0.591796875,-0.1611328125,-11.463414634146343,28.963414634146343,0.853658536585366,130,4
48,0.6298828125,-0.595703125,-0.15625,-8.353658536585366,27.134146341463417,1.3414634146341464,130,4
49,0.64892578125,-0.59521484375,-0.1474609375,-5.121951219512195,25.914634146341466,1.524390243902439,130,4
50,0.67626953125,-0.58984375,-0.14404296875,-3.658536585365854,25.54878048780488,1.1585365853658538,130,4
51,0.6767578125,-0.576171875,-0.1533203125,-3.414634146341464,26.646341463414636,0.30487804878048785,130,4
52,0.67333984375,-0.576171875,-0.13818359375,-4.51219512195122,29.146341463414636,-0.426829268292683,130,4
53,0.7099609375,-0.55224609375,-0.11181640625,-7.195121951219513,32.07317073170732,-2.0121951219512195,130,4
54,0.7509765625,-0.513671875,-0.091796875,-8.109756097560977,32.6829268292683,-4.329268292682928,130,4
55,0.7734375,-0.48828125,-0.08447265625,-6.402439024390245,46.768292682926834,-5.487804878048781,130,4
56,0.62548828125,-0.53759765625,-0.10693359375,-3.7195121951219514,27.500000000000004,-5.060975609756098,130,4
57,0.70947265625,-0.5869140625,-0.11669921875,1.1585365853658538,24.634146341463417,-3.7195121951219514,130,4
58,0.64404296875,-0.642578125,-0.2490234375,4.817073170731708,23.10975609756098,-1.524390243902439,130,4
59,0.6181640625,-0.64697265625,-0.10107421875,10.060975609756099,22.378048780487806,-0.30487804878048785,130,4
60,0.6552734375,-0.6025390625,-0.09326171875,16.158536585365855,20.79268292682927,0.3658536585365854,130,4
61,0.69482421875,-0.56298828125,-0.095703125,17.378048780487806,23.04878048780488,1.1585365853658538,130,4
62,0.708984375,-0.53759765625,-0.11474609375,11.585365853658537,30.000000000000004,1.3414634146341464,130,4
63,0.7021484375,-0.5419921875,-0.12841796875,2.25609756097561,37.31707317073171,1.707317073170732,130,4
64,0.6884765625,-0.556640625,-0.11376953125,-7.134146341463415,45.97560975609756,1.402439024390244,130,4
65,0.69091796875,-0.5634765625,-0.06787109375,-14.695121951219514,52.07317073170732,1.3414634146341464,130,4
66,0.68212890625,-0.57421875,-0.056640625,-17.865853658536587,54.51219512195122,2.1341463414634148,130,4
67,0.64013671875,-0.642578125,-0.02490234375,-17.012195121951223,56.768292682926834,3.8414634146341466,130,4
68,0.63330078125,-0.6640625,0.01513671875,-15.243902439024392,57.43902439024391,5.121951219512195,130,4
69,0.6220703125,-0.67578125,-0.0107421875,-13.597560975609758,58.23170731707317,5.487804878048781,130,4
70,0.5,-0.63720703125,-0.029296875,-10.30487804878049,56.03658536585366,5.121951219512195,130,4
71,0.62548828125,-0.615234375,-0.08203125,-4.451219512195122,53.59756097560976,5.0,130,4
72,0.64453125,-0.5966796875,-0.087890625,0.9146341463414634,50.91463414634147,5.426829268292684,130,4
73,0.68115234375,-0.55419921875,-0.15966796875,5.3048780487804885,45.487804878048784,5.853658536585367,130,4
74,0.71142578125,-0.4921875,-0.208984375,7.073170731707318,41.463414634146346,5.914634146341464,130,4
75,0.69482421875,-0.47900390625,-0.234375,5.121951219512195,41.463414634146346,5.365853658536586,130,4
76,0.7177734375,-0.47998046875,-0.24267578125,1.0365853658536586,45.243902439024396,4.75609756097561,130,4
77,0.73583984375,-0.44580078125,-0.228515625,-4.207317073170732,49.207317073170735,4.939024390243903,130,4
78,0.7431640625,-0.43310546875,-0.2119140625,-10.609756097560977,53.78048780487806,6.7682926829268295,130,4
79,0.7392578125,-0.419921875,-0.22314453125,-17.621951219512198,57.13414634146342,8.231707317073171,130,4
80,0.73193359375,-0.412109375,-0.19482421875,-22.98780487804878,61.40243902439025,8.475609756097562,130,4
81,0.626953125,-0.41455078125,-0.2041015625,-25.914634146341466,63.23170731707317,7.195121951219513,130,4
82,0.7734375,-0.43017578125,-0.2294921875,-26.76829268292683,63.59756097560976,5.670731707317073,130,4
83,0.72900390625,-0.46728515625,-0.26171875,-28.84146341463415,60.79268292682927,3.963414634146342,130,4
84,0.712890625,-0.48095703125,-0.3134765625,-30.54878048780488,57.6829268292683,0.9146341463414634,130,4
85,0.6953125,-0.48193359375,-0.326171875,-34.81707317073171,56.646341463414636,-1.707317073170732,130,4
86,0.70947265625,-0.4599609375,-0.30419921875,-36.463414634146346,53.29268292682927,-4.634146341463415,130,4
87,0.7177734375,-0.4619140625,-0.26904296875,-33.963414634146346,49.146341463414636,-7.317073170731708,130,4
88,0.7099609375,-0.47314453125,-0.2421875,-33.170731707317074,45.304878048780495,-8.475609756097562,130,4
89,0.65966796875,-0.49365234375,-0.2255859375,-31.402439024390247,41.890243902439025,-9.26829268292683,130,4
90,0.6494140625,-0.4619140625,-0.21533203125,-30.243902439024392,39.08536585365854,-9.878048780487806,130,4
91,0.64453125,-0.4150390625,-0.17578125,-30.182926829268297,37.19512195121951,-9.634146341463415,130,4
92,0.6474609375,-0.40380859375,-0.177734375,-15.670731707317074,35.609756097560975,-9.51219512195122,130,4
93,0.65966796875,-0.3828125,-0.2275390625,-31.951219512195124,34.024390243902445,-9.634146341463415,130,4
94,0.681640625,-0.36376953125,-0.28759765625,-33.41463414634146,31.58536585365854,-10.426829268292684,130,4
95,0.6923828125,-0.35986328125,-0.3037109375,-36.707317073170735,30.54878048780488,-11.707317073170733,130,4
96,0.70849609375,-0.35302734375,-0.30908203125,-40.304878048780495,31.707317073170735,-13.04878048780488,130,4
97,0.720703125,-0.34375,-0.30078125,-44.63414634146342,32.37804878048781,-14.756097560975611,130,4
98,0.7353515625,-0.3408203125,-0.28564453125,-48.23170731707317,32.6219512195122,-0.06097560975609757,130,4
99,0.71044921875,-0.3662109375,-0.2705078125,-50.36585365853659,31.89024390243903,-16.097560975609756,130,4
100,0.703125,-0.3857421875,-0.2578125,-51.34146341463415,30.853658536585368,-16.82926829268293,130,4
101,0.685546875,-0.39208984375,-0.24169921875,-53.04878048780488,30.000000000000004,-18.10975609756098,130,4
102,0.69970703125,-0.36572265625,-0.23583984375,-55.487804878048784,30.121951219512198,-19.207317073170735,130,4
103,0.708984375,-0.35205078125,-0.24658203125,-58.71951219512196,28.84146341463415,-20.853658536585368,130,4
104,0.73779296875,-0.34033203125,-0.27880859375,-60.97560975609757,27.743902439024392,-22.439024390243905,130,4
105,0.7041015625,-0.36181640625,-0.2939453125,-62.926829268292686,25.000000000000004,-23.902439024390247,130,4
106,0.7138671875,-0.3642578125,-0.28564453125,-62.987804878048784,22.926829268292686,-24.75609756097561,130,4
107,0.7119140625,-0.3603515625,-0.2958984375,-62.560975609756106,20.48780487804878,-25.60975609756098,130,4
108,0.71337890625,-0.34521484375,-0.2880859375,-62.6219512195122,19.26829268292683,-26.463414634146343,130,4
109,0.732421875,-0.32275390625,-0.28955078125,-66.46341463414635,20.54878048780488,-27.500000000000004,130,4
110,0.7548828125,-0.29150390625,-0.302734375,-72.25609756097562,22.865853658536587,-28.780487804878053,130,4
111,0.751953125,-0.2880859375,-0.29443359375,-78.04878048780489,24.939024390243905,-30.731707317073173,130,4
112,0.76806640625,-0.27783203125,-0.2998046875,-83.35365853658537,26.219512195121954,-32.37804878048781,130,4
113,0.767578125,-0.30859375,-0.287109375,-87.25609756097562,26.463414634146343,-33.71951219512196,130,4
114,0.76318359375,-0.314453125,-0.287109375,-88.96341463414635,25.426829268292686,-35.243902439024396,130,4
115,0.7607421875,-0.31591796875,-0.28564453125,-89.32926829268294,23.353658536585368,-36.707317073170735,130,4
116,0.76416015625,-0.318359375,-0.29052734375,-88.84146341463415,21.463414634146343,-38.23170731707317,130,4
117,0.76318359375,-0.3271484375,-0.30078125,-89.45121951219512,20.54878048780488,-39.87804878048781,130,4
118,0.7734375,-0.30517578125,-0.3037109375,-91.40243902439025,19.878048780487806,-42.43902439024391,130,4
119,0.78466796875,-0.29345703125,-0.29931640625,-94.20731707317074,20.60975609756098,-44.268292682926834,130,4
120,0.791015625,-0.29833984375,-0.283203125,-97.5609756097561,21.52439024390244,-46.40243902439025,130,4
121,0.80615234375,-0.28662109375,-0.26123046875,-101.34146341463415,23.04878048780488,-48.04878048780488,130,4
122,0.7919921875,-0.28857421875,-0.2646484375,-105.1219512195122,23.414634146341466,-49.268292682926834,130,4
123,0.7734375,-0.3154296875,-0.27099609375,-107.07317073170732,22.80487804878049,-50.60975609756098,130,4
124,0.796875,-0.291015625,-0.30078125,-107.7439024390244,20.853658536585368,-53.35365853658537,130,4
125,0.80517578125,-0.28076171875,-0.3056640625,-108.71951219512196,19.695121951219512,-55.243902439024396,130,4
126,0.81494140625,-0.283203125,-0.33056640625,-110.3658536585366,19.32926829268293,-57.743902439024396,130,4
127,0.8369140625,-0.2763671875,-0.35302734375,-114.08536585365854,20.365853658536587,-60.73170731707317,130,4
128,0.85693359375,-0.283203125,-0.35693359375,-116.95121951219514,21.28048780487805,-62.6829268292683,130,4
129,0.8515625,-0.2919921875,-0.3115234375,-117.43902439024392,21.28048780487805,-63.71951219512196,130,4
130,0.86962890625,-0.2998046875,-0.306640625,-118.47560975609757,21.890243902439025,-64.81707317073172,130,4
131,0.900390625,-0.37451171875,-0.3212890625,-120.97560975609757,21.585365853658537,-66.21951219512195,130,4
132,0.88916015625,-0.2568359375,-0.33740234375,-123.71951219512196,22.073170731707318,-68.35365853658537,130,4
133,0.90283203125,-0.23876953125,-0.34423828125,-127.13414634146342,22.31707317073171,-71.15853658536587,130,4
134,0.9228515625,-0.20947265625,-0.3369140625,-129.63414634146343,22.195121951219512,-73.90243902439025,130,4
135,0.93994140625,-0.2080078125,-0.3427734375,-132.6219512195122,22.98780487804878,-77.5,130,4
136,0.9453125,-0.21826171875,-0.37841796875,-136.34146341463415,21.52439024390244,-80.79268292682927,130,4
137,0.9296875,-0.23828125,-0.42626953125,-139.02439024390245,20.914634146341466,-84.63414634146342,130,4
138,0.958984375,-0.2099609375,-0.42822265625,-139.20731707317074,19.451219512195124,-87.92682926829269,130,4
139,1.00537109375,-0.19384765625,-0.48291015625,-139.87804878048783,17.25609756097561,-91.40243902439025,130,4
140,1.0458984375,-0.158203125,-0.43310546875,-142.6829268292683,17.5,-96.09756097560977,130,4
141,1.05908203125,-0.1318359375,-0.43994140625,-146.21951219512195,17.621951219512198,-100.00000000000001,130,4
142,1.078125,-0.1015625,-0.41650390625,-150.3658536585366,19.26829268292683,-105.06097560975611,130,4
143,1.08447265625,-0.09033203125,-0.412109375,-155.0,21.890243902439025,-108.78048780487806,130,4
144,1.09130859375,-0.08740234375,-0.4072265625,-159.45121951219514,23.963414634146343,-111.52439024390245,130,4
145,1.076171875,-0.1064453125,-0.4140625,-161.95121951219514,25.54878048780488,-113.47560975609757,130,4
146,1.07763671875,-0.08740234375,-0.43603515625,-161.52439024390245,26.76829268292683,-113.71951219512196,130,4
147,1.10205078125,-0.05029296875,-0.4599609375,-162.6829268292683,27.31707317073171,-115.00000000000001,130,4
148,1.12158203125,-0.03564453125,-0.52685546875,-164.45121951219514,27.682926829268297,-117.01219512195122,130,4
149,1.11962890625,-0.03759765625,-0.52099609375,-165.7317073170732,29.634146341463417,-119.81707317073172,130,4
150,1.1630859375,0.02392578125,-0.48828125,-169.57317073170734,32.6829268292683,-123.71951219512196,130,4
151,1.2060546875,0.076171875,-0.44091796875,-175.00000000000003,36.890243902439025,-127.7439024390244,130,4
152,1.21533203125,0.0634765625,-0.443359375,-180.85365853658539,39.69512195121951,-131.28048780487805,130,4
153,1.1884765625,0.01611328125,-0.44482421875,-182.8658536585366,40.54878048780488,-135.4878048780488,130,4
154,1.162109375,-0.01416015625,-0.4384765625,-179.75609756097563,38.59756097560976,-138.59756097560978,130,4
155,1.1806640625,-0.0126953125,-0.41357421875,-174.87804878048783,37.6219512195122,-142.31707317073173,130,4
156,1.21728515625,0.01416015625,-0.39013671875,-171.58536585365854,37.987804878048784,-145.6707317073171,130,4
157,1.23193359375,0.0537109375,-0.498046875,-171.34146341463415,38.65853658536586,-149.45121951219514,130,4
158,1.26123046875,0.09326171875,-0.3369140625,-172.8048780487805,40.243902439024396,-153.47560975609758,130,4
159,1.2802734375,0.08837890625,-0.3544921875,-174.26829268292684,41.890243902439025,-158.109756097561,130,4
160,1.31396484375,0.1396484375,-0.30029296875,-173.41463414634148,43.41463414634147,-161.64634146341464,130,4
161,1.3193359375,0.1103515625,-0.2958984375,-170.91463414634148,44.51219512195122,-164.93902439024393,130,4
162,1.32763671875,0.11474609375,-0.271484375,-169.45121951219514,45.60975609756098,-169.02439024390245,130,4
163,1.32568359375,0.169921875,-0.2783203125,-168.2926829268293,46.34146341463415,-172.13414634146343,130,4
164,1.32861328125,0.17529296875,-0.25537109375,-166.21951219512198,47.987804878048784,-176.64634146341464,130,4
165,1.3583984375,0.2216796875,-0.234375,-162.8048780487805,48.963414634146346,-180.7926829268293,130,4
166,1.4287109375,0.28564453125,-0.17626953125,-160.97560975609758,50.243902439024396,-184.75609756097563,130,4
167,1.4697265625,0.29931640625,-0.17724609375,-161.21951219512198,52.19512195121952,-188.2926829268293,130,4
168,1.44482421875,0.2578125,-0.189453125,-161.64634146341464,54.57317073170732,-191.34146341463418,130,4
169,1.42626953125,0.2431640625,-0.14453125,-157.31707317073173,54.81707317073171,-194.45121951219514,130,4
170,1.45166015625,0.2705078125,-0.2041015625,-150.5487804878049,53.53658536585366,-196.76829268292684,130,4
171,1.45166015625,0.29833984375,-0.22509765625,-147.5,54.268292682926834,-199.87804878048783,130,4
172,1.44482421875,0.31982421875,-0.22998046875,-147.5,54.93902439024391,-202.62195121951223,130,4
173,1.416015625,0.33837890625,-0.1943359375,-148.59756097560978,58.71951219512196,-208.47560975609758,130,4
174,1.4345703125,0.39404296875,-0.1572265625,-145.97560975609758,59.51219512195122,-214.02439024390245,130,4
175,1.44677734375,0.4267578125,-0.10009765625,-143.35365853658539,59.39024390243903,-219.08536585365854,130,4
176,1.453125,0.42236328125,-0.08544921875,-141.95121951219514,60.487804878048784,-223.2317073170732,130,4
177,1.43017578125,0.37060546875,-0.06201171875,-141.28048780487805,46.82926829268293,-225.85365853658539,130,4
178,1.39599609375,0.35791015625,-0.02197265625,-136.52439024390245,62.07317073170732,-228.1707317073171,130,4
179,1.38623046875,0.36865234375,0.0302734375,-127.25609756097562,59.451219512195124,-229.20731707317074,130,4
180,1.43701171875,0.408203125,-0.01025390625,-119.08536585365854,56.82926829268293,-230.91463414634148,130,4
181,1.43896484375,0.41552734375,-0.06005859375,-116.09756097560977,55.67073170731708,-232.13414634146343,130,4
182,1.41162109375,0.40185546875,-0.06494140625,-113.17073170731709,57.25609756097561,-234.02439024390245,130,4
183,1.42236328125,0.44775390625,-0.009765625,-108.84146341463416,58.23170731707317,-237.56097560975613,130,4
184,1.40625,0.47900390625,-0.01171875,-106.28048780487806,57.804878048780495,-241.82926829268294,130,4
185,1.3984375,0.515625,-0.01220703125,-106.28048780487806,57.25609756097561,-245.12195121951223,130,4
186,1.3623046875,0.5146484375,0.02099609375,-103.47560975609757,56.768292682926834,-249.75609756097563,130,4
187,1.31884765625,0.49072265625,0.0771484375,-98.53658536585367,55.0609756097561,-251.52439024390247,130,4
188,1.24853515625,0.45361328125,0.0947265625,-92.50000000000001,53.41463414634147,-253.2926829268293,130,4
189,1.1962890625,0.47802734375,0.099609375,-85.3658536585366,51.28048780487806,-255.609756097561,130,4
190,1.14501953125,0.5224609375,0.09716796875,-78.53658536585367,48.90243902439025,-258.2317073170732,130,4
191,1.12255859375,0.5009765625,0.10107421875,-73.71951219512195,48.23170731707317,-259.26829268292687,130,4
192,1.09423828125,0.44921875,0.07080078125,-70.67073170731707,47.6829268292683,-260.0,130,4
193,1.04638671875,0.42724609375,0.0810546875,-66.89024390243902,46.34146341463415,-258.7804878048781,130,4
194,0.97265625,0.375,0.03564453125,-62.804878048780495,43.47560975609756,-259.39024390243907,130,4
195,0.97119140625,0.328125,0.052734375,-56.34146341463415,39.63414634146342,-258.1707317073171,130,4
196,0.9453125,0.27734375,0.0888671875,-50.60975609756098,36.34146341463415,-255.30487804878052,130,4
197,0.923828125,0.19140625,0.0888671875,-45.60975609756098,32.5,-252.07317073170734,130,4
198,0.9091796875,0.1279296875,0.11328125,-38.35365853658537,28.292682926829272,-248.84146341463418,130,4
199,0.86572265625,0.09326171875,0.1923828125,-32.987804878048784,23.963414634146343,-246.15853658536588,130,4
200,0.82568359375,0.06884765625,0.26318359375,-46.768292682926834,22.012195121951223,-244.87804878048783,130,4
201,0.8271484375,0.0927734375,0.32177734375,-31.158536585365855,21.646341463414636,-244.26829268292684,130,4
202,0.8134765625,0.078125,0.3603515625,-35.1219512195122,21.646341463414636,-241.40243902439028,130,4
203,0.77392578125,0.12158203125,0.33642578125,-39.32926829268293,23.719512195121954,-238.2926829268293,130,4
204,0.7041015625,-0.07080078125,0.29541015625,-41.463414634146346,24.390243902439025,-235.5487804878049,130,4
205,0.587890625,-0.14990234375,0.28271484375,-40.0,23.04878048780488,-230.18292682926833,130,4
206,0.51123046875,-0.22265625,0.2724609375,-36.707317073170735,20.731707317073173,-223.1707317073171,130,4
207,0.4072265625,-0.275390625,0.24365234375,-32.13414634146342,19.085365853658537,-215.12195121951223,130,4
208,0.302734375,-0.2998046875,0.2802734375,-27.621951219512198,16.82926829268293,-205.609756097561,130,4
209,0.2041015625,-0.35791015625,0.27685546875,-23.53658536585366,15.731707317073171,-195.5487804878049,130,4
210,0.14404296875,-0.42138671875,0.30126953125,-18.84146341463415,15.121951219512196,-186.40243902439025,130,4
211,0.0966796875,-0.4755859375,0.3212890625,-15.000000000000002,15.670731707317074,-176.03658536585368,130,4
212,0.01611328125,-0.54541015625,0.3154296875,-15.060975609756099,16.890243902439025,-165.4268292682927,130,4
213,-0.091796875,-0.61279296875,0.333984375,-15.914634146341465,18.963414634146343,-153.78048780487805,130,4
214,-0.2021484375,-0.66845703125,0.3623046875,-15.487804878048783,20.975609756097562,-142.4390243902439,130,4
215,-0.3232421875,-0.7412109375,0.45068359375,-14.451219512195124,22.80487804878049,-130.85365853658539,130,4
216,-0.46337890625,-0.8056640625,0.51513671875,-12.865853658536587,23.78048780487805,-119.20731707317074,130,4
217,-0.49169921875,-0.80810546875,0.56103515625,-11.951219512195124,27.073170731707318,-123.71951219512196,130,4
218,-0.5048828125,-0.8525390625,0.6171875,-14.451219512195124,30.914634146341466,-94.81707317073172,130,4
219,-0.5498046875,-0.9150390625,0.6513671875,-15.79268292682927,33.71951219512196,-79.93902439024392,130,4
220,-0.64111328125,-1.015625,0.681640625,-13.04878048780488,34.51219512195122,-63.90243902439025,130,4
221,-0.650390625,-1.060546875,0.71240234375,-5.731707317073171,33.65853658536586,-48.170731707317074,130,4
222,-0.64111328125,-1.0009765625,0.66015625,2.804878048780488,32.31707317073171,-31.34146341463415,130,4
223,-0.63427734375,-1.20751953125,0.7431640625,11.76829268292683,31.219512195121954,-11.463414634146343,130,4
224,-0.71435546875,-1.3037109375,0.5576171875,19.878048780487806,32.01219512195122,10.060975609756099,130,4
225,-0.83056640625,-1.38232421875,0.5869140625,28.59756097560976,31.34146341463415,30.914634146341466,130,4
226,-0.7548828125,-1.43603515625,0.63525390625,36.524390243902445,32.6829268292683,50.487804878048784,130,4
227,-0.84521484375,-1.4248046875,0.65966796875,42.5609756097561,34.024390243902445,69.32926829268293,130,4
228,-0.830078125,-1.44921875,0.65234375,44.81707317073171,35.30487804878049,87.43902439024392,130,4
229,-0.72216796875,-1.4736328125,0.5859375,46.03658536585366,38.65853658536586,105.2439024390244,130,4
230,-0.60400390625,-1.5048828125,0.552734375,47.13414634146342,41.524390243902445,123.17073170731709,130,4
231,-0.50390625,-1.59814453125,0.486328125,51.34146341463415,44.024390243902445,143.0487804878049,130,4
232,-0.40234375,-1.6953125,0.44970703125,60.73170731707317,43.53658536585366,163.84146341463415,130,4
233,-0.30615234375,-1.779296875,0.42431640625,75.0609756097561,41.21951219512196,185.4268292682927,130,4
234,-0.21923828125,-1.865234375,0.3740234375,89.45121951219512,38.59756097560976,207.9268292682927,130,4
235,-0.1064453125,-1.93359375,0.32275390625,100.00000000000001,37.6829268292683,232.50000000000003,130,4
236,0.0341796875,-2.021484375,0.3291015625,107.8658536585366,39.207317073170735,255.3658536585366,130,4
237,0.2451171875,-2.07470703125,0.3203125,113.84146341463416,41.21951219512196,278.9024390243903,130,4
238,0.38525390625,-2.1943359375,0.2529296875,117.98780487804879,42.19512195121951,302.7439024390244,130,4
239,0.537109375,-2.33154296875,0.19921875,124.51219512195124,44.63414634146342,327.01219512195127,130,4
240,0.689453125,-2.4990234375,0.12060546875,131.82926829268294,31.402439024390247,352.9268292682927,130,4
241,0.86962890625,-2.69140625,0.056640625,125.3048780487805,48.04878048780488,379.75609756097566,130,4
242,1.02734375,-2.923828125,-0.07666015625,154.26829268292684,47.6829268292683,409.93902439024396,130,4
243,1.2431640625,-3.19921875,-0.20068359375,169.63414634146343,46.89024390243903,442.50000000000006,130,4
244,1.3876953125,-3.47705078125,-0.38427734375,187.01219512195124,39.451219512195124,473.3536585365854,130,4
245,1.98388671875,-3.67529296875,-0.5576171875,206.03658536585368,27.865853658536587,502.56097560975616,130,4
246,2.60107421875,-3.94189453125,-0.8291015625,256.0365853658537,22.500000000000004,533.719512195122,130,4
247,3.1220703125,-4.35400390625,-0.8896484375,266.76829268292687,33.65853658536586,558.3536585365854,130,4
248,3.63427734375,-4.85302734375,-0.8623046875,316.0975609756098,54.57317073170732,569.1463414634147,130,4
249,4.1064453125,-5.32861328125,-0.892578125,334.45121951219517,64.9390243902439,578.4146341463415,130,4
250,4.8974609375,-5.39453125,-1.17919921875,343.7804878048781,86.09756097560977,626.1585365853659,130,4
251,5.83203125,-5.69775390625,-1.6220703125,351.5243902439025,113.59756097560977,697.8658536585366,130,4
252,6.6865234375,-5.7392578125,-2.3623046875,355.5487804878049,136.09756097560978,758.9634146341464,130,4
253,7.80908203125,-5.73974609375,-3.095703125,359.75609756097566,150.97560975609758,807.439024390244,130,4
254,8.93603515625,-5.1591796875,-3.35791015625,403.1707317073171,118.71951219512196,867.3170731707318,130,4
255,9.5654296875,-4.7021484375,-3.923828125,440.12195121951225,88.10975609756099,907.439024390244,130,4
256,10.4697265625,-3.86083984375,-4.6982421875,466.0365853658537,48.29268292682927,930.9146341463415,130,4
257,11.041015625,-3.1552734375,-5.89306640625,518.7804878048781,-18.597560975609756,938.2317073170733,130,4
258,11.01806640625,-2.888671875,-6.5126953125,667.1951219512196,-118.29268292682927,912.9878048780489,130,4
259,10.58935546875,-2.7255859375,-6.509765625,812.8658536585367,-245.85365853658539,862.8048780487806,130,4
260,9.763671875,-3.20947265625,-7.4072265625,954.329268292683,-379.93902439024396,806.4634146341464,130,4
261,8.52978515625,-3.4609375,-7.63037109375,1122.7439024390244,-526.5243902439025,693.6585365853659,130,4
262,7.72314453125,-3.443359375,-8.64501953125,1303.658536585366,-684.0853658536586,558.048780487805,130,4
263,7.58544921875,-2.71240234375,-10.623046875,1461.4024390243903,-733.9634146341464,368.2317073170732,130,4
264,8.2822265625,-3.4306640625,-10.4873046875,1625.7317073170734,-149.93902439024393,20.670731707317074,130,4
265,-0.8720703125,-2.11083984375,-5.736328125,474.20731707317077,130.97560975609758,-538.6585365853659,130,4
266,15.99951171875,15.99951171875,-0.75390625,1045.9146341463415,-137.37804878048783,19.32926829268293,130,4
267,1.8623046875,-2.03759765625,-1.60498046875,1252.1341463414635,-396.95121951219517,-177.19512195121953,130,4
268,5.9609375,4.884765625,-0.40380859375,958.2317073170733,-167.37804878048783,-204.14634146341464,130,4
269,2.1865234375,-1.7509765625,-4.36767578125,933.8414634146342,-51.28048780487806,-415.4268292682927,130,4
270,3.869140625,-1.1181640625,-2.146484375,819.3902439024391,-120.06097560975611,-436.76829268292687,130,4
271,4.07958984375,-1.33349609375,-2.74658203125,848.3536585365854,-197.07317073170734,-544.7560975609756,130,4
272,4.22900390625,-1.720703125,-3.01318359375,734.6341463414635,-192.13414634146343,-611.9512195121952,130,4
273,2.95458984375,-2.4150390625,-2.3349609375,622.9878048780488,-180.85365853658539,-685.0000000000001,130,4
274,2.17041015625,-2.361328125,-2.02197265625,513.6585365853659,-126.34146341463416,-706.7073170731708,130,4
275,2.111328125,-2.18212890625,-1.55419921875,418.3536585365854,-62.50000000000001,-732.1951219512196,130,4
276,2.173828125,-2.07568359375,-0.93212890625,321.5243902439025,-10.853658536585368,-752.2560975609757,130,4
277,2.26171875,-1.62841796875,-0.810546875,242.13414634146343,65.0609756097561,-765.2439024390245,130,4
278,2.32080078125,-1.23046875,-0.76904296875,203.0487804878049,124.26829268292684,-775.4878048780488,130,4
279,2.50830078125,-0.83447265625,-0.66357421875,182.43902439024393,131.52439024390245,-804.6951219512196,130,4
280,2.91455078125,-0.724609375,-0.7470703125,146.28048780487805,155.7926829268293,-789.4512195121952,130,4
281,2.794921875,-0.63037109375,-0.8505859375,95.91463414634147,184.45121951219514,-759.939024390244,130,4
282,2.873046875,-1.048828125,-0.947265625,1.9512195121951221,219.08536585365854,-721.8902439024391,130,4
283,2.97119140625,-1.236328125,-0.87548828125,-63.23170731707317,251.46341463414637,-666.7682926829269,130,4
284,2.7138671875,-1.4267578125,-1.2021484375,-150.7926829268293,284.69512195121956,-613.5365853658537,130,4
285,2.43212890625,-1.3916015625,-1.26416015625,-190.1219512195122,298.5365853658537,-591.2804878048781,130,4
286,2.18212890625,-1.2666015625,-1.00927734375,-238.65853658536588,308.0487804878049,-540.4268292682927,130,4
287,1.78662109375,-1.47314453125,-0.806640625,-261.0365853658537,319.1463414634147,-528.9634146341464,130,4
288,1.82275390625,-1.39453125,-0.8623046875,-280.9756097560976,329.20731707317077,-492.56097560975616,130,4
289,1.8154296875,-1.2373046875,-0.95947265625,-284.81707317073176,329.81707317073176,-453.9634146341464,130,4
290,1.8232421875,-1.03564453125,-0.904296875,-278.5975609756098,334.51219512195127,-422.9268292682927,130,4
291,1.8603515625,-0.95166015625,-0.87158203125,-261.3414634146342,331.70731707317077,-395.5487804878049,130,4
292,1.57861328125,-0.96826171875,-0.95068359375,-240.85365853658539,330.9146341463415,-367.8658536585366,130,4
293,1.24462890625,-0.8935546875,-1.005859375,-233.71951219512198,331.95121951219517,-358.5975609756098,130,4
294,1.005859375,-1.12548828125,-1.07568359375,-233.53658536585368,332.8658536585366,-315.9756097560976,130,4
295,0.92919921875,-0.9970703125,-1.126953125,-234.69512195121953,333.4146341463415,-293.9634146341464,130,4
296,0.68701171875,-0.72509765625,-1.31103515625,-264.51219512195127,322.13414634146346,-271.0365853658537,130,4
297,0.66455078125,-0.38427734375,-1.41650390625,-271.4024390243903,306.3414634146342,-252.8658536585366,130,4
298,0.57373046875,-0.18115234375,-1.21923828125,-263.109756097561,290.7317073170732,-231.76829268292684,130,4
299,0.2568359375,0.11669921875,-1.05859375,-274.8780487804878,283.2317073170732,-215.3048780487805,130,4
300,0.08984375,0.08203125,-1.0322265625,-268.7804878048781,270.4268292682927,-218.2926829268293,130,4
301,-0.09716796875,-0.07275390625,-0.99609375,-270.8536585365854,264.26829268292687,-189.45121951219514,130,4
302,-0.18359375,-0.19287109375,-0.849609375,-269.1463414634147,254.57317073170734,-178.53658536585368,130,4
303,-0.03125,-0.353515625,-0.9345703125,-259.63414634146346,242.9268292682927,-172.01219512195124,130,4
304,0.0048828125,-0.09814453125,-0.91845703125,-251.89024390243904,229.81707317073173,-163.53658536585368,130,4
305,0.00830078125,-0.09130859375,-0.88427734375,-237.74390243902442,232.37804878048783,-148.84146341463415,130,4
306,-0.20703125,-0.1943359375,-0.7001953125,-226.89024390243904,208.2317073170732,-136.64634146341464,130,4
307,-0.6220703125,-0.12548828125,-0.595703125,-215.7317073170732,202.31707317073173,-125.85365853658537,130,4
308,-0.76220703125,-0.20751953125,-0.59716796875,-207.50000000000003,197.31707317073173,-115.54878048780489,130,4
309,-0.72802734375,-0.1650390625,-0.599609375,-198.2926829268293,202.7439024390244,-107.43902439024392,130,4
310,-0.66064453125,-0.0712890625,-0.6484375,-188.1707317073171,185.609756097561,-99.69512195121952,130,4
311,-0.64697265625,-0.04248046875,-0.7275390625,-172.6829268292683,152.19512195121953,-95.0609756097561,130,4
312,-0.669921875,-0.20263671875,-0.99462890625,-172.31707317073173,141.03658536585368,-89.69512195121952,130,4
313,-0.55126953125,-0.05859375,-0.8583984375,-160.85365853658539,131.95121951219514,-82.31707317073172,130,4
314,-0.53857421875,-0.03466796875,-0.669921875,-158.2317073170732,127.92682926829269,-70.91463414634147,130,4
315,-0.84765625,-0.03759765625,-0.66064453125,-158.1707317073171,122.19512195121952,-77.92682926829269,130,4
316,-0.9814453125,-0.05029296875,-0.6796875,-152.8658536585366,121.76829268292684,-53.59756097560976,130,4
317,-1.08251953125,-0.0703125,-0.57470703125,-150.3048780487805,119.20731707317074,-43.78048780487805,130,4
318,-1.20654296875,-0.18505859375,-0.66455078125,-155.1829268292683,117.62195121951221,-40.670731707317074,130,4
319,-1.1943359375,-0.17724609375,-0.619140625,-147.19512195121953,100.1829268292683,-40.0609756097561,130,4
320,-1.12841796875,-0.18212890625,-0.7197265625,-134.45121951219514,82.13414634146342,-39.146341463414636,130,4
321,-1.0185546875,-0.19140625,-0.734375,-114.81707317073172,65.3048780487805,-37.43902439024391,130,4
322,-1.04833984375,-0.17236328125,-0.623046875,-105.48780487804879,56.646341463414636,-33.04878048780488,130,4
323,-1.1728515625,-0.19140625,-0.5283203125,-102.07317073170732,54.024390243902445,-28.04878048780488,130,4
324,-1.33154296875,-0.2177734375,-0.39794921875,-98.71951219512196,51.03658536585366,-23.231707317073173,130,4
325,-1.4072265625,-0.26123046875,-0.4658203125,-95.91463414634147,45.85365853658537,-19.81707317073171,130,4
326,-1.33984375,-0.27587890625,-0.48095703125,-89.93902439024392,41.03658536585366,-16.34146341463415,130,4
327,-1.33251953125,-0.24609375,-0.51025390625,-84.81707317073172,32.13414634146342,-10.426829268292684,130,4
328,-1.34912109375,-0.27099609375,-0.56298828125,-75.85365853658537,22.926829268292686,-4.207317073170732,130,4
329,-1.40087890625,-0.28857421875,-0.53857421875,-66.58536585365854,12.865853658536587,2.378048780487805,130,4
330,-1.4296875,-0.27392578125,-0.53955078125,-57.987804878048784,3.4756097560975614,8.170731707317074,130,4
331,-1.41748046875,-0.255859375,-0.53125,-50.00000000000001,-3.963414634146342,12.987804878048781,130,4
332,-1.3642578125,-0.16162109375,-0.51318359375,-42.86585365853659,-12.073170731707318,18.719512195121954,130,4
333,-1.353515625,-0.13232421875,-0.4697265625,-35.97560975609756,-20.79268292682927,22.621951219512198,130,4
334,-1.33056640625,-0.10302734375,-0.42529296875,-28.414634146341466,-27.987804878048784,25.792682926829272,130,4
335,-1.30859375,-0.10205078125,-0.36865234375,-22.25609756097561,-34.93902439024391,28.475609756097562,130,4
336,-1.2978515625,-0.08837890625,-0.33349609375,-16.82926829268293,-38.963414634146346,30.54878048780488,130,4
337,-1.25537109375,-0.07763671875,-0.314453125,-10.670731707317074,-44.451219512195124,31.76829268292683,130,4
338,-1.2236328125,-0.06298828125,-0.31787109375,-2.1951219512195124,-50.670731707317074,31.89024390243903,130,4
339,-1.18017578125,-0.03125,-0.27783203125,5.975609756097562,-54.51219512195122,31.707317073170735,130,4
340,-1.15234375,-0.00830078125,-0.23779296875,12.195121951219512,-58.17073170731708,31.402439024390247,130,4
341,-1.13134765625,0.02197265625,-0.2333984375,17.195121951219512,-61.524390243902445,30.60975609756098,130,4
342,-1.00048828125,0.044921875,-0.208984375,21.463414634146343,-65.0,30.000000000000004,130,4
343,-1.1337890625,0.04443359375,-0.18017578125,25.243902439024392,-68.41463414634147,30.54878048780488,130,4
344,-1.1572265625,0.0361328125,-0.16796875,27.926829268292686,-71.21951219512195,30.853658536585368,130,4
345,-1.15283203125,0.04052734375,-0.16357421875,30.182926829268297,-72.98780487804879,32.31707317073171,130,4
346,-1.154296875,0.02197265625,-0.13623046875,32.6219512195122,-76.46341463414635,35.487804878048784,130,4
347,-1.1923828125,-0.0029296875,-0.146484375,36.28048780487805,-81.64634146341464,37.86585365853659,130,4
348,-1.20166015625,-0.015625,-0.10986328125,40.85365853658537,-86.21951219512196,40.304878048780495,130,4
349,-1.177734375,-0.01806640625,-0.08203125,45.79268292682927,-90.3658536585366,42.6829268292683,130,4
350,-1.14501953125,0.01318359375,-0.0712890625,49.39024390243903,-94.75609756097562,44.146341463414636,130,4
351,-1.1142578125,0.03369140625,-0.048828125,51.34146341463415,-97.98780487804879,45.0609756097561,130,4
352,-1.0927734375,0.05126953125,-0.00390625,54.024390243902445,-101.40243902439025,46.34146341463415,130,4
353,-1.0615234375,0.076171875,0.025390625,56.585365853658544,-104.32926829268294,47.31707317073171,130,4
354,-1.03271484375,0.099609375,0.0458984375,57.926829268292686,-106.15853658536587,48.53658536585366,130,4
355,-1.12353515625,0.126953125,0.0498046875,57.926829268292686,-106.21951219512196,48.963414634146346,130,4
356,-0.96728515625,0.14306640625,0.06982421875,56.09756097560976,-106.89024390243904,48.71951219512196,130,4
357,-0.947265625,0.15966796875,0.06591796875,54.085365853658544,-110.3658536585366,48.53658536585366,130,4
358,-0.93994140625,0.14599609375,0.07666015625,54.207317073170735,-113.96341463414635,48.29268292682927,130,4
359,-0.921875,0.1396484375,0.00732421875,57.50000000000001,-119.39024390243904,48.04878048780488,130,4
360,-0.90283203125,0.14990234375,0.1640625,61.95121951219513,-122.7439024390244,47.926829268292686,130,4
361,-0.99169921875,0.158203125,0.2041015625,66.70731707317074,-127.43902439024392,48.10975609756098,130,4
362,-0.85302734375,0.15087890625,0.20361328125,70.1219512195122,-131.03658536585368,47.743902439024396,130,4
363,-0.841796875,0.1708984375,0.21875,74.39024390243902,-133.59756097560978,47.43902439024391,130,4
364,-0.82470703125,0.1806640625,0.373046875,77.92682926829269,-135.97560975609758,48.04878048780488,130,4
365,-0.8056640625,0.1875,0.29541015625,78.41463414634147,-133.71951219512195,47.43902439024391,130,4
366,-0.7783203125,0.201171875,0.33447265625,76.52439024390245,-132.13414634146343,47.37804878048781,130,4
367,-0.7763671875,0.21337890625,0.357421875,75.2439024390244,-130.6707317073171,47.743902439024396,130,4
368,-0.7685546875,0.224609375,0.37939453125,77.5609756097561,-131.15853658536585,48.59756097560976,130,4
369,-0.8720703125,0.23974609375,0.38818359375,81.34146341463415,-131.34146341463415,48.59756097560976,130,4
370,-0.705078125,0.28125,0.412109375,84.14634146341464,-131.95121951219514,48.90243902439025,130,4
371,-0.646484375,0.32421875,0.384765625,85.85365853658537,-133.96341463414635,49.207317073170735,130,4
372,-0.6416015625,0.34619140625,0.26171875,85.1829268292683,-134.75609756097563,47.926829268292686,130,4
373,-0.650390625,0.34375,0.38623046875,83.47560975609757,-134.87804878048783,46.21951219512196,130,4
374,-0.64013671875,0.3642578125,0.44873046875,83.29268292682927,-134.57317073170734,44.32926829268293,130,4
375,-0.6162109375,0.36962890625,0.48095703125,81.28048780487805,-133.59756097560978,43.53658536585366,130,4
376,-0.59375,0.3779296875,0.517578125,80.3658536585366,-132.9878048780488,43.10975609756098,130,4
377,-0.6181640625,0.3515625,0.54931640625,79.69512195121952,-132.37804878048783,42.86585365853659,130,4
378,-0.63330078125,0.330078125,0.5498046875,82.07317073170732,-132.5,42.86585365853659,130,4
379,-0.65283203125,0.33984375,0.5615234375,85.85365853658537,-132.6219512195122,42.743902439024396,130,4
380,-0.6318359375,0.36376953125,0.5791015625,89.14634146341464,-131.21951219512195,43.47560975609756,130,4
381,-0.61376953125,0.2568359375,0.56298828125,87.8658536585366,-127.25609756097562,43.84146341463415,130,4
382,-0.5703125,0.419921875,0.57275390625,84.08536585365854,-122.8658536585366,44.63414634146342,130,4
383,-0.5556640625,0.43505859375,0.56982421875,78.71951219512196,-118.84146341463416,45.91463414634147,130,4
384,-0.5400390625,0.46533203125,0.55908203125,74.32926829268294,-116.28048780487806,47.37804878048781,130,4
385,-0.5224609375,0.47314453125,0.556640625,71.40243902439025,-118.04878048780489,49.32926829268293,130,4
386,-0.5498046875,0.44189453125,0.57861328125,72.7439024390244,-120.54878048780489,49.146341463414636,130,4
387,-0.56298828125,0.38623046875,0.568359375,72.5609756097561,-120.85365853658537,52.07317073170732,130,4
388,-0.5791015625,0.359375,0.60693359375,75.2439024390244,-120.60975609756099,53.84146341463415,130,4
389,-0.52734375,0.40869140625,0.61767578125,79.20731707317074,-121.15853658536587,54.51219512195122,130,4
390,-0.48779296875,0.4482421875,0.62939453125,80.2439024390244,-118.84146341463416,55.97560975609757,130,4
391,-0.46533203125,0.474609375,0.64111328125,77.19512195121952,-114.81707317073172,57.865853658536594,130,4
392,-0.44287109375,0.49365234375,0.62646484375,70.54878048780489,-109.93902439024392,59.57317073170732,130,4
393,-0.44140625,0.50830078125,0.60546875,63.963414634146346,-104.26829268292684,59.63414634146342,130,4
394,-0.41259765625,0.5419921875,0.59619140625,59.57317073170732,-100.85365853658537,59.63414634146342,130,4
395,-0.39599609375,0.5654296875,0.57177734375,56.646341463414636,-99.14634146341464,60.487804878048784,130,4
396,-0.34228515625,0.58740234375,0.52685546875,55.73170731707317,-102.13414634146342,62.19512195121952,130,4
397,-0.3486328125,0.54638671875,0.47509765625,56.89024390243903,-105.97560975609757,63.963414634146346,130,4
398,-0.3310546875,0.53857421875,0.4765625,61.28048780487806,-111.15853658536587,64.9390243902439,130,4
399,-0.32373046875,0.5224609375,0.3798828125,65.1829268292683,-113.53658536585367,65.2439024390244,130,4
400,-0.2685546875,0.55810546875,0.52392578125,65.48780487804879,-112.56097560975611,65.1219512195122,130,4
401,-0.224609375,0.6005859375,0.58203125,59.87804878048781,-108.23170731707317,65.42682926829269,130,4
402,-0.19287109375,0.63427734375,0.5009765625,53.90243902439025,-102.7439024390244,65.1219512195122,130,4
403,-0.17529296875,0.63330078125,0.67919921875,50.670731707317074,-98.10975609756099,64.63414634146342,130,4
404,-0.17041015625,0.7490234375,0.68408203125,51.82926829268293,-95.97560975609757,64.51219512195122,130,4
405,-0.16796875,0.74658203125,0.74658203125,55.79268292682927,-96.28048780487806,64.69512195121952,130,4
406,-0.16552734375,0.6142578125,0.55224609375,59.93902439024391,-99.14634146341464,65.0,130,4
407,-0.16162109375,0.6171875,0.48291015625,61.40243902439025,-101.28048780487806,64.45121951219512,130,4
408,-0.14453125,0.65625,0.47265625,60.79268292682927,-103.29268292682927,63.65853658536586,130,4
409,-0.11962890625,0.7080078125,0.48779296875,57.804878048780495,-102.6219512195122,63.41463414634147,130,4
410,-0.09716796875,0.73193359375,0.51611328125,51.707317073170735,-101.76829268292684,64.08536585365854,130,4
411,-0.12158203125,0.70947265625,0.5537109375,45.304878048780495,-99.51219512195122,64.87804878048782,130,4
412,-0.12939453125,0.69091796875,0.5537109375,42.6219512195122,-99.14634146341464,66.03658536585367,130,4
413,-0.13134765625,0.6640625,0.60888671875,44.024390243902445,-97.7439024390244,66.40243902439025,130,4
414,-0.08203125,0.64990234375,0.65234375,46.09756097560976,-96.46341463414635,67.19512195121952,130,4
415,-0.0478515625,0.65771484375,0.6669921875,48.23170731707317,-94.75609756097562,68.47560975609757,130,4
416,-0.03466796875,0.69140625,0.6298828125,49.451219512195124,-94.63414634146342,68.10975609756098,130,4
417,-0.0126953125,0.73583984375,0.59423828125,50.670731707317074,-95.67073170731709,69.51219512195122,130,4
418,-0.041015625,0.7021484375,0.5634765625,62.13414634146342,-94.20731707317074,68.96341463414635,130,4
419,-0.00634765625,0.748046875,0.5205078125,45.0609756097561,-94.26829268292684,68.96341463414635,130,4
420,-0.015625,0.63134765625,0.5390625,43.84146341463415,-93.96341463414635,68.53658536585367,130,4
421,0.00830078125,0.77099609375,0.54833984375,40.85365853658537,-92.43902439024392,69.20731707317074,130,4
422,0.01953125,0.87353515625,0.54833984375,36.58536585365854,-91.40243902439025,71.40243902439025,130,4
423,0.03662109375,0.728515625,0.53662109375,34.63414634146342,-91.46341463414635,73.29268292682927,130,4
424,0.06298828125,0.70947265625,0.55029296875,35.54878048780488,-93.29268292682927,74.69512195121952,130,4
425,0.083984375,0.67138671875,0.568359375,40.97560975609756,-97.19512195121952,76.46341463414635,130,4
426,0.10400390625,0.6416015625,0.58154296875,47.86585365853659,-98.35365853658537,75.3658536585366,130,4
427,0.13671875,0.67724609375,0.578125,53.04878048780488,-97.50000000000001,73.96341463414635,130,4
428,0.17333984375,0.716796875,0.53857421875,51.89024390243903,-94.87804878048782,73.71951219512195,130,4
429,0.2041015625,0.7880859375,0.6220703125,47.804878048780495,-92.13414634146342,73.10975609756098,130,4
430,0.2197265625,0.79296875,0.47509765625,43.23170731707317,-90.67073170731707,73.10975609756098,130,4
431,0.22216796875,0.765625,0.4697265625,41.463414634146346,-90.3658536585366,72.8658536585366,130,4
432,0.21533203125,0.7373046875,0.48388671875,42.19512195121951,-90.48780487804879,73.17073170731707,130,4
433,0.22216796875,0.7109375,0.49560546875,43.35365853658537,-89.63414634146342,73.23170731707317,130,4
434,0.22509765625,0.70947265625,0.4912109375,43.90243902439025,-88.41463414634147,73.47560975609757,130,4
435,0.22216796875,0.72216796875,0.4833984375,44.08536585365854,-87.8658536585366,74.26829268292684,130,4
436,0.22900390625,0.7099609375,0.4833984375,44.81707317073171,-87.8658536585366,74.75609756097562,130,4
437,0.23828125,0.71044921875,0.49169921875,45.97560975609756,-87.7439024390244,74.87804878048782,130,4
438,0.25048828125,0.70263671875,0.466796875,46.463414634146346,-87.07317073170732,75.2439024390244,130,4
439,0.26904296875,0.693359375,0.43603515625,46.646341463414636,-86.28048780487805,75.67073170731707,130,4
440,0.294921875,0.69287109375,0.40283203125,46.28048780487805,-85.97560975609757,76.03658536585367,130,4
441,0.31396484375,0.69091796875,0.3603515625,45.426829268292686,-87.01219512195122,77.37804878048782,130,4
442,0.29931640625,0.65625,0.3359375,40.60975609756098,-86.03658536585367,78.53658536585367,130,4
443,0.30517578125,0.65625,0.306640625,35.79268292682927,-85.3048780487805,79.39024390243902,130,4
444,0.32568359375,0.67578125,0.328125,32.43902439024391,-85.67073170731707,80.85365853658537,130,4
445,0.34228515625,0.6728515625,0.349609375,31.03658536585366,-86.03658536585367,82.6219512195122,130,4
446,0.36328125,0.66015625,0.34814453125,31.646341463414636,-87.7439024390244,83.84146341463415,130,4
447,0.36474609375,0.65869140625,0.3720703125,34.81707317073171,-90.48780487804879,83.41463414634147,130,4
448,0.3857421875,0.67138671875,0.36767578125,36.21951219512196,-90.85365853658537,82.31707317073172,130,4
449,0.4189453125,0.68505859375,0.35791015625,35.97560975609756,-90.0609756097561,81.40243902439025,130,4
450,0.43408203125,0.70751953125,0.33935546875,32.926829268292686,-87.01219512195122,80.91463414634147,130,4
451,0.4375,0.68701171875,0.287109375,26.951219512195124,-82.01219512195122,80.1219512195122,130,4
452,0.45751953125,0.69091796875,0.26171875,22.25609756097561,-78.78048780487805,80.60975609756099,130,4
453,0.447265625,0.66552734375,0.2353515625,18.719512195121954,-75.79268292682927,81.03658536585367,130,4
454,0.45751953125,0.65185546875,0.224609375,17.195121951219512,-74.26829268292684,81.82926829268294,130,4
455,0.4736328125,0.626953125,0.2275390625,19.085365853658537,-74.63414634146342,82.98780487804879,130,4
456,0.47216796875,0.60107421875,0.13330078125,24.573170731707318,-75.91463414634147,82.98780487804879,130,4
457,0.4892578125,0.6103515625,0.28515625,32.31707317073171,-77.8658536585366,82.7439024390244,130,4
458,0.490234375,0.595703125,0.28125,39.390243902439025,-78.10975609756099,82.25609756097562,130,4
459,0.50927734375,0.59814453125,0.23388671875,41.58536585365854,-76.82926829268294,80.91463414634147,130,4
460,0.55029296875,0.6240234375,0.1748046875,39.024390243902445,-75.2439024390244,80.0,130,4
461,0.572265625,0.6484375,0.13525390625,34.69512195121951,-74.51219512195122,80.1829268292683,130,4
462,0.603515625,0.654296875,0.1484375,46.768292682926834,-74.63414634146342,80.54878048780489,130,4
463,0.5986328125,0.7490234375,0.1650390625,27.31707317073171,-74.69512195121952,81.76829268292684,130,4
464,0.55810546875,0.56396484375,0.1572265625,22.500000000000004,-72.01219512195122,81.28048780487805,130,4
465,0.5693359375,0.54150390625,0.1845703125,19.207317073170735,-69.57317073170732,81.46341463414635,130,4
466,0.58203125,0.5380859375,0.17822265625,17.439024390243905,-68.53658536585367,82.50000000000001,130,4
467,0.5927734375,0.537109375,0.16064453125,17.621951219512198,-68.47560975609757,84.14634146341464,130,4
468,0.59326171875,0.5009765625,0.13720703125,19.878048780487806,-70.73170731707317,85.97560975609757,130,4
469,0.58740234375,0.4853515625,0.1103515625,23.10975609756098,-72.5,86.09756097560977,130,4
470,0.62158203125,0.50048828125,0.11572265625,26.58536585365854,-74.32926829268294,85.67073170731707,130,4
471,0.654296875,0.53466796875,0.11572265625,27.378048780487806,-74.45121951219512,85.3048780487805,130,4
472,0.6669921875,0.55419921875,0.095703125,25.792682926829272,-72.25609756097562,84.69512195121952,130,4
473,0.67431640625,0.54296875,0.07861328125,21.951219512195124,-70.1829268292683,84.32926829268294,130,4
474,0.69970703125,0.52490234375,0.06005859375,17.682926829268293,-67.43902439024392,83.23170731707317,130,4
475,0.7265625,0.5166015625,0.05078125,13.170731707317074,-64.02439024390245,81.09756097560977,130,4
476,0.7451171875,0.5009765625,0.04443359375,7.987804878048781,-60.060975609756106,79.08536585365854,130,4
477,0.7451171875,0.47607421875,0.01904296875,3.4756097560975614,-56.03658536585366,76.52439024390245,130,4
478,0.75439453125,0.6220703125,0.0439453125,1.8902439024390245,-53.84146341463415,75.3048780487805,130,4
479,0.73681640625,0.48876953125,0.06005859375,3.1707317073170733,-52.86585365853659,73.96341463414635,130,4
480,0.72021484375,0.46875,0.087890625,8.109756097560977,-52.804878048780495,72.5609756097561,130,4
481,0.6943359375,0.44873046875,0.11279296875,0.1829268292682927,-54.146341463414636,70.97560975609757,130,4
482,0.6708984375,0.41796875,0.10205078125,23.59756097560976,-54.75609756097561,68.47560975609757,130,4
483,0.68212890625,0.39990234375,0.07421875,29.39024390243903,-54.63414634146342,65.54878048780489,130,4
484,0.697265625,0.4072265625,0.02734375,30.731707317073173,-52.13414634146342,63.35365853658537,130,4
485,0.71923828125,0.41796875,-0.0068359375,27.926829268292686,-48.35365853658537,62.25609756097562,130,4
486,0.73779296875,0.4365234375,-0.02734375,21.951219512195124,-44.207317073170735,61.28048780487806,130,4
487,0.75390625,0.423828125,-0.04443359375,30.54878048780488,-40.304878048780495,60.73170731707317,130,4
488,0.75537109375,0.41552734375,-0.05908203125,9.756097560975611,-38.04878048780488,60.54878048780488,130,4
489,0.75537109375,0.38232421875,-0.0498046875,6.890243902439025,-37.37804878048781,60.60975609756098,130,4
490,0.73876953125,0.3408203125,-0.05810546875,5.548780487804878,-38.170731707317074,61.40243902439025,130,4
491,0.7275390625,0.31689453125,-0.04248046875,5.487804878048781,-38.78048780487805,61.82926829268293,130,4
492,0.71337890625,0.2890625,-0.0390625,4.573170731707317,-38.71951219512196,62.01219512195122,130,4
493,0.73046875,0.29443359375,-0.01953125,4.2682926829268295,-38.47560975609756,61.82926829268293,130,4
494,0.7275390625,0.2841796875,-0.0087890625,2.25609756097561,-36.15853658536586,60.426829268292686,130,4
495,0.75439453125,0.296875,-0.02587890625,-0.1829268292682927,-32.987804878048784,58.35365853658537,130,4
496,0.77392578125,0.31689453125,-0.01708984375,-2.804878048780488,-29.26829268292683,55.60975609756098,130,4
497,0.81103515625,0.34619140625,-0.0390625,-3.780487804878049,-26.28048780487805,53.59756097560976,130,4
498,0.80126953125,0.33349609375,-0.07080078125,-4.024390243902439,-25.000000000000004,51.34146341463415,130,4
499,0.79248046875,0.31689453125,-0.09130859375,-2.0121951219512195,-24.207317073170735,49.268292682926834,130,4
