,Ax,Ay,Az,Gx,Gy,Gz,distance,shot_type
0,0.74462890625,-0.4619140625,-0.3154296875,5.060975609756098,8.719512195121952,-15.853658536585368,140,6
1,0.71484375,-0.52001953125,-0.35546875,8.536585365853659,5.426829268292684,-14.878048780487806,140,6
2,0.70458984375,-0.54345703125,-0.357421875,10.365853658536587,4.695121951219512,-14.085365853658537,140,6
3,0.701171875,-0.560546875,-0.34375,9.939024390243903,4.878048780487806,-12.865853658536587,140,6
4,0.6796875,-0.56884765625,-0.3330078125,9.02439024390244,5.365853658536586,-10.792682926829269,140,6
5,0.658203125,-0.58740234375,-0.298828125,7.987804878048781,6.52439024390244,-8.902439024390244,140,6
6,0.63427734375,-0.603515625,-0.2822265625,7.621951219512196,7.01219512195122,-7.073170731707318,140,6
7,0.59326171875,-0.60888671875,-0.30224609375,8.841463414634147,5.670731707317073,-5.7926829268292686,140,6
8,0.5966796875,-0.61181640625,-0.32373046875,10.0,5.2439024390243905,-4.695121951219512,140,6
9,0.60009765625,-0.6201171875,-0.3662109375,11.463414634146343,3.8414634146341466,-3.048780487804878,140,6
10,0.58984375,-0.63720703125,-0.42236328125,11.463414634146343,3.1097560975609757,-2.073170731707317,140,6
11,0.58984375,-0.62646484375,-0.45166015625,8.414634146341465,3.5975609756097566,-1.5853658536585367,140,6
12,0.59033203125,-0.6083984375,-0.46875,4.75609756097561,4.817073170731708,-0.9756097560975611,140,6
13,0.58544921875,-0.60693359375,-0.47021484375,0.9756097560975611,6.036585365853659,-15.609756097560977,140,6
14,0.57421875,-0.61572265625,-0.46923828125,-0.12195121951219513,5.060975609756098,0.7317073170731708,140,6
15,0.564453125,-0.64208984375,-0.45849609375,4.451219512195122,-0.426829268292683,2.1341463414634148,140,6
16,0.5244140625,-0.67724609375,-0.46142578125,8.719512195121952,-3.780487804878049,3.536585365853659,140,6
17,0.5166015625,-0.68994140625,-0.455078125,9.878048780487806,-5.2439024390243905,4.2682926829268295,140,6
18,0.51611328125,-0.658203125,-0.431640625,11.097560975609756,-7.25609756097561,5.121951219512195,140,6
19,0.53173828125,-0.63134765625,-0.42431640625,12.317073170731708,-9.02439024390244,6.2804878048780495,140,6
20,0.537109375,-0.61767578125,-0.4111328125,11.28048780487805,-9.207317073170733,7.134146341463415,140,6
21,0.55810546875,-0.5810546875,-0.396484375,8.78048780487805,-8.841463414634147,7.987804878048781,140,6
22,0.59375,-0.5283203125,-0.3681640625,6.951219512195123,-8.353658536585366,7.439024390243903,140,6
23,0.63134765625,-0.46923828125,-0.3564453125,5.365853658536586,-7.743902439024391,6.158536585365854,140,6
24,0.68310546875,-0.40869140625,-0.33544921875,3.963414634146342,-6.890243902439025,4.2682926829268295,140,6
25,0.73291015625,-0.3525390625,-0.333984375,0.9756097560975611,-5.060975609756098,1.6463414634146343,140,6
26,0.765625,-0.3330078125,-0.2880859375,-1.0975609756097562,-3.048780487804878,0.1829268292682927,140,6
27,0.7626953125,-0.337890625,-0.3681640625,-1.0975609756097562,-2.6219512195121952,-2.0121951219512195,140,6
28,0.75439453125,-0.3291015625,-0.2099609375,2.804878048780488,-3.414634146341464,-3.5975609756097566,140,6
29,0.7392578125,-0.32421875,-0.203125,8.597560975609756,-5.365853658536586,-5.670731707317073,140,6
30,0.76806640625,-0.298828125,-0.1962890625,11.646341463414634,-5.548780487804878,-7.073170731707318,140,6
31,0.7880859375,-0.283203125,-0.2236328125,13.109756097560977,-5.060975609756098,-8.475609756097562,140,6
32,0.80224609375,-0.31005859375,-0.2333984375,13.597560975609758,-4.878048780487806,-8.353658536585366,140,6
33,0.87353515625,-0.3837890625,-0.2392578125,13.597560975609758,-2.987804878048781,-8.231707317073171,140,6
34,0.72705078125,-0.4140625,-0.244140625,12.987804878048781,-0.9146341463414634,-8.841463414634147,140,6
35,0.74267578125,-0.39599609375,-0.2490234375,11.341463414634147,2.7439024390243905,-9.817073170731708,140,6
36,0.630859375,-0.37890625,-0.25244140625,7.987804878048781,8.414634146341465,-11.341463414634147,140,6
37,0.7734375,-0.3837890625,-0.29296875,4.939024390243903,11.52439024390244,-12.195121951219512,140,6
38,0.74267578125,-0.41357421875,-0.32470703125,2.1951219512195124,13.78048780487805,-13.04878048780488,140,6
39,0.73046875,-0.44140625,-0.322265625,-1.829268292682927,15.731707317073171,-12.439024390243903,140,6
40,0.70556640625,-0.47412109375,-0.310546875,-2.987804878048781,31.03658536585366,-12.439024390243903,140,6
41,0.67236328125,-0.51953125,-0.291015625,2.9268292682926833,9.146341463414634,-10.975609756097562,140,6
42,0.623046875,-0.5791015625,-0.267578125,11.890243902439025,3.231707317073171,-10.609756097560977,140,6
43,0.62939453125,-0.61572265625,-0.29150390625,17.743902439024392,0.0,-10.365853658536587,140,6
44,0.62890625,-0.6103515625,-0.33837890625,19.512195121951223,-0.9146341463414634,-10.060975609756099,140,6
45,0.63671875,-0.61572265625,-0.38720703125,18.78048780487805,-0.24390243902439027,-8.231707317073171,140,6
46,0.6337890625,-0.50146484375,-0.41259765625,30.975609756097565,1.9512195121951221,-5.731707317073171,140,6
47,0.61669921875,-0.63916015625,-0.43798828125,8.414634146341465,6.402439024390245,-3.4756097560975614,140,6
48,0.615234375,-0.6318359375,-0.43505859375,1.2804878048780488,10.365853658536587,-1.2804878048780488,140,6
49,0.591796875,-0.65087890625,-0.44384765625,-3.353658536585366,11.951219512195124,0.853658536585366,140,6
50,0.5791015625,-0.68115234375,-0.462890625,-4.817073170731708,10.609756097560977,2.5609756097560976,140,6
51,0.56640625,-0.689453125,-0.484375,-5.060975609756098,10.609756097560977,3.2926829268292686,140,6
52,0.5576171875,-0.66943359375,-0.44482421875,-4.207317073170732,9.878048780487806,3.9024390243902443,140,6
53,0.5537109375,-0.66357421875,-0.408203125,-3.353658536585366,9.695121951219512,3.048780487804878,140,6
54,0.58154296875,-0.60107421875,-0.38037109375,-1.829268292682927,8.475609756097562,2.682926829268293,140,6
55,0.5888671875,-0.5888671875,-0.36572265625,-0.9146341463414634,6.829268292682928,3.414634146341464,140,6
56,0.5712890625,-0.607421875,-0.33740234375,2.804878048780488,3.658536585365854,3.8414634146341466,140,6
57,0.58349609375,-0.5859375,-0.3203125,6.951219512195123,0.7317073170731708,3.414634146341464,140,6
58,0.62109375,-0.55224609375,-0.3232421875,8.78048780487805,-1.2804878048780488,3.658536585365854,140,6
59,0.6328125,-0.623046875,-0.341796875,8.353658536585366,-0.3658536585365854,3.7195121951219514,140,6
60,0.65185546875,-0.47314453125,-0.32275390625,5.609756097560976,1.4634146341463417,4.024390243902439,140,6
61,0.6572265625,-0.45458984375,-0.30908203125,2.1341463414634148,4.634146341463415,4.207317073170732,140,6
62,0.6669921875,-0.455078125,-0.30859375,-1.4634146341463417,7.743902439024391,4.75609756097561,140,6
63,0.66943359375,-0.4482421875,-0.32421875,-4.146341463414634,9.634146341463415,5.365853658536586,140,6
64,0.671875,-0.4599609375,-0.31640625,-3.353658536585366,8.414634146341465,5.731707317073171,140,6
65,0.67236328125,-0.4765625,-0.3037109375,-1.402439024390244,7.134146341463415,5.487804878048781,140,6
66,0.6923828125,-0.478515625,-0.29931640625,-1.0365853658536586,7.073170731707318,5.487804878048781,140,6
67,0.68212890625,-0.48095703125,-0.28466796875,-0.6097560975609757,7.073170731707318,5.426829268292684,140,6
68,0.6904296875,-0.46875,-0.263671875,0.12195121951219513,6.951219512195123,5.3048780487804885,140,6
69,0.69580078125,-0.47021484375,-0.24658203125,0.12195121951219513,6.890243902439025,4.75609756097561,140,6
70,0.70068359375,-0.45751953125,-0.2490234375,0.12195121951219513,7.926829268292684,4.329268292682928,140,6
71,0.7060546875,-0.44384765625,-0.26220703125,-0.9756097560975611,9.085365853658537,3.048780487804878,140,6
72,0.724609375,-0.43408203125,-0.26806640625,-2.439024390243903,10.853658536585368,1.7682926829268295,140,6
73,0.72802734375,-0.4384765625,-0.2646484375,-1.2195121951219514,10.365853658536587,1.0365853658536586,140,6
74,0.701171875,-0.49462890625,-0.27294921875,0.853658536585366,9.02439024390244,0.1829268292682927,140,6
75,0.68505859375,-0.52783203125,-0.3154296875,1.8902439024390245,8.353658536585366,0.12195121951219513,140,6
76,0.6689453125,-0.53857421875,-0.30615234375,2.439024390243903,7.743902439024391,0.0,140,6
77,0.66357421875,-0.5546875,-0.32177734375,4.024390243902439,6.463414634146342,-0.30487804878048785,140,6
78,0.6611328125,-0.55615234375,-0.337890625,5.487804878048781,6.036585365853659,-0.1829268292682927,140,6
79,0.63232421875,-0.5732421875,-0.357421875,6.036585365853659,4.329268292682928,0.12195121951219513,140,6
80,0.6376953125,-0.5654296875,-0.3671875,6.463414634146342,3.780487804878049,0.6097560975609757,140,6
81,0.634765625,-0.55322265625,-0.35400390625,6.890243902439025,3.780487804878049,0.853658536585366,140,6
82,0.6416015625,-0.54736328125,-0.35400390625,6.52439024390244,4.51219512195122,1.1585365853658538,140,6
83,0.6259765625,-0.5400390625,-0.361328125,6.402439024390245,4.573170731707317,1.3414634146341464,140,6
84,0.63330078125,-0.53271484375,-0.34375,5.914634146341464,4.573170731707317,1.5853658536585367,140,6
85,0.64990234375,-0.52490234375,-0.32080078125,6.463414634146342,3.536585365853659,1.6463414634146343,140,6
86,0.64306640625,-0.52197265625,-0.29638671875,8.292682926829269,1.707317073170732,1.0975609756097562,140,6
87,0.65673828125,-0.51171875,-0.31591796875,10.121951219512196,-0.7926829268292683,0.48780487804878053,140,6
88,0.6640625,-0.4970703125,-0.3193359375,10.731707317073171,-1.707317073170732,0.0,140,6
89,0.66748046875,-0.49609375,-0.3193359375,11.158536585365855,-2.073170731707317,-0.426829268292683,140,6
90,0.6826171875,-0.5068359375,-0.3115234375,10.24390243902439,-0.9756097560975611,-0.30487804878048785,140,6
91,0.68310546875,-0.50634765625,-0.31005859375,8.353658536585366,1.0365853658536586,-0.24390243902439027,140,6
92,0.67529296875,-0.52587890625,-0.302734375,6.7682926829268295,3.1097560975609757,-0.30487804878048785,140,6
93,0.669921875,-0.54052734375,-0.2802734375,7.500000000000001,2.3170731707317076,-0.06097560975609757,140,6
94,0.65576171875,-0.56787109375,-0.26416015625,10.975609756097562,0.3658536585365854,0.06097560975609757,140,6
95,0.658203125,-0.56640625,-0.2509765625,13.109756097560977,-0.7317073170731708,-0.426829268292683,140,6
96,0.66259765625,-0.55810546875,-0.12646484375,14.085365853658537,-0.06097560975609757,-0.426829268292683,140,6
97,0.66455078125,-0.5546875,-0.23388671875,14.26829268292683,0.48780487804878053,-0.5487804878048781,140,6
98,0.6640625,-0.55712890625,-0.24169921875,14.634146341463415,1.2195121951219514,-0.5487804878048781,140,6
99,0.6708984375,-0.5390625,-0.2451171875,12.560975609756099,4.085365853658537,-0.3658536585365854,140,6
100,0.67041015625,-0.54931640625,-0.25732421875,9.146341463414634,8.231707317073171,0.1829268292682927,140,6
101,0.67041015625,-0.54296875,-0.2431640625,5.609756097560976,12.560975609756099,0.7317073170731708,140,6
102,0.68017578125,-0.54541015625,-0.21630859375,5.182926829268293,15.609756097560977,1.2804878048780488,140,6
103,0.6728515625,-0.568359375,-0.1845703125,6.890243902439025,15.182926829268293,1.3414634146341464,140,6
104,0.68701171875,-0.5634765625,-0.1826171875,7.621951219512196,16.402439024390244,0.853658536585366,140,6
105,0.7275390625,-0.52685546875,-0.18505859375,7.8048780487804885,16.03658536585366,0.7317073170731708,140,6
106,0.72412109375,-0.5302734375,-0.19287109375,9.085365853658537,15.426829268292684,0.1829268292682927,140,6
107,0.69482421875,-0.556640625,-0.2001953125,10.609756097560977,15.121951219512196,0.5487804878048781,140,6
108,0.6796875,-0.5615234375,-0.1884765625,11.402439024390246,16.097560975609756,0.06097560975609757,140,6
109,0.68603515625,-0.54638671875,-0.19140625,12.682926829268293,15.975609756097562,-1.0975609756097562,140,6
110,0.7119140625,-0.5146484375,-0.1875,15.365853658536587,14.817073170731708,-2.682926829268293,140,6
111,0.6923828125,-0.513671875,-0.23876953125,18.902439024390244,9.207317073170733,-3.780487804878049,140,6
112,0.6748046875,-0.54541015625,-0.28125,21.707317073170735,13.170731707317074,-2.3170731707317076,140,6
113,0.69873046875,-0.61181640625,-0.15771484375,31.158536585365855,21.52439024390244,-0.426829268292683,140,6
114,0.65234375,-0.6142578125,-0.14111328125,11.036585365853659,28.292682926829272,1.5853658536585367,140,6
115,0.62646484375,-0.60546875,-0.16748046875,8.353658536585366,32.31707317073171,2.6219512195121952,140,6
116,0.61474609375,-0.59716796875,-0.1728515625,5.060975609756098,38.170731707317074,3.536585365853659,140,6
117,0.61279296875,-0.58935546875,-0.1025390625,2.5609756097560976,42.926829268292686,4.146341463414634,140,6
118,0.6005859375,-0.615234375,-0.0869140625,1.2195121951219514,44.207317073170735,4.939024390243903,140,6
119,0.6015625,-0.5625,-0.15234375,15.54878048780488,45.97560975609756,3.7195121951219514,140,6
120,0.650390625,-0.48681640625,-0.16943359375,-5.426829268292684,50.00000000000001,4.085365853658537,140,6
121,0.67138671875,-0.50244140625,-0.146484375,-10.487804878048781,54.024390243902445,4.878048780487806,140,6
122,0.65625,-0.5126953125,-0.2099609375,-15.365853658536587,54.146341463414636,4.939024390243903,140,6
123,0.7119140625,-0.4296875,-0.2763671875,-22.134146341463417,56.951219512195124,4.451219512195122,140,6
124,0.775390625,-0.3515625,-0.3330078125,-30.853658536585368,63.29268292682927,4.085365853658537,140,6
125,0.80224609375,-0.49951171875,-0.33544921875,-42.50000000000001,71.09756097560977,4.024390243902439,140,6
126,0.79931640625,-0.40380859375,-0.33251953125,-56.951219512195124,77.01219512195122,4.573170731707317,140,6
127,0.77294921875,-0.3662109375,-0.36865234375,-69.51219512195122,82.13414634146342,4.146341463414634,140,6
128,0.77978515625,-0.3173828125,-0.34375,-75.97560975609757,85.60975609756099,5.3048780487804885,140,6
129,0.7685546875,-0.35205078125,-0.30517578125,-77.6219512195122,82.31707317073172,5.853658536585367,140,6
130,0.7021484375,-0.41748046875,-0.22119140625,-71.40243902439025,75.48780487804879,7.317073170731708,140,6
131,0.63720703125,-0.46044921875,-0.23779296875,-77.6219512195122,64.14634146341464,8.109756097560977,140,6
132,0.60302734375,-0.38818359375,-0.3271484375,-54.146341463414636,57.19512195121952,7.073170731707318,140,6
133,0.6484375,-0.31640625,-0.42529296875,-52.19512195121952,55.426829268292686,4.75609756097561,140,6
134,0.69921875,-0.23583984375,-0.40673828125,-54.87804878048781,56.951219512195124,1.829268292682927,140,6
135,0.7236328125,-0.2158203125,-0.42822265625,-59.146341463414636,51.524390243902445,0.6707317073170732,140,6
136,0.72119140625,-0.24951171875,-0.51318359375,-65.1219512195122,49.93902439024391,-2.073170731707317,140,6
137,0.76953125,-0.06787109375,-0.52783203125,-73.41463414634147,52.19512195121952,-3.414634146341464,140,6
138,0.78515625,-0.08544921875,-0.5078125,-81.70731707317074,53.17073170731708,-5.731707317073171,140,6
139,0.7783203125,-0.11279296875,-0.46728515625,-88.47560975609757,52.19512195121952,-6.890243902439025,140,6
140,0.87353515625,-0.13671875,-0.478515625,-91.89024390243904,48.10975609756098,-7.8048780487804885,140,6
141,0.63134765625,-0.09765625,-0.48974609375,-94.63414634146342,46.15853658536586,-8.841463414634147,140,6
142,0.75341796875,-0.08056640625,-0.48681640625,-95.3658536585366,45.1219512195122,-10.24390243902439,140,6
143,0.75830078125,-0.10986328125,-0.4765625,-96.15853658536587,44.93902439024391,-12.439024390243903,140,6
144,0.76416015625,-0.09912109375,-0.46435546875,-99.69512195121952,48.10975609756098,-13.414634146341465,140,6
145,0.7822265625,-0.03125,-0.37548828125,-106.64634146341464,49.085365853658544,-15.121951219512196,140,6
146,0.76416015625,-0.02490234375,-0.48828125,-113.29268292682927,49.87804878048781,-17.012195121951223,140,6
147,0.73095703125,-0.06005859375,-0.4853515625,-117.7439024390244,48.65853658536586,-19.634146341463417,140,6
148,0.7353515625,-0.04052734375,-0.55029296875,-120.91463414634147,46.707317073170735,-24.573170731707318,140,6
149,0.81298828125,0.0361328125,-0.572265625,-124.87804878048782,49.085365853658544,-29.207317073170735,140,6
150,0.8740234375,0.0576171875,-0.5361328125,-133.41463414634148,50.97560975609756,-33.04878048780488,140,6
151,0.84326171875,-0.009765625,-0.52880859375,-140.4878048780488,52.37804878048781,-37.5,140,6
152,0.82421875,-0.02392578125,-0.4970703125,-146.58536585365854,52.5609756097561,-41.768292682926834,140,6
153,0.81884765625,-0.0166015625,-0.51318359375,-154.51219512195124,55.0609756097561,-31.463414634146343,140,6
154,0.86279296875,0.01953125,-0.4892578125,-163.41463414634148,60.1219512195122,-52.25609756097561,140,6
155,0.87060546875,-0.02001953125,-0.4453125,-171.15853658536588,64.20731707317074,-56.585365853658544,140,6
156,0.8515625,-0.08935546875,-0.36279296875,-175.00000000000003,64.63414634146342,-58.59756097560976,140,6
157,0.84130859375,-0.1123046875,-0.390625,-173.41463414634148,59.69512195121952,-62.31707317073171,140,6
158,0.9033203125,-0.03759765625,-0.462890625,-168.0487804878049,54.75609756097561,-67.25609756097562,140,6
159,0.9853515625,0.052734375,-0.5078125,-170.3658536585366,56.40243902439025,-73.71951219512195,140,6
160,1.0546875,0.06591796875,-0.5537109375,-176.58536585365854,58.78048780487806,-79.26829268292684,140,6
161,1.099609375,0.11279296875,-0.56884765625,-186.21951219512198,63.35365853658537,-86.52439024390245,140,6
162,1.1435546875,0.2421875,-0.587890625,-197.19512195121953,68.41463414634147,-91.82926829268294,140,6
163,1.13037109375,0.0859375,-0.55712890625,-206.46341463414635,74.39024390243902,-97.8658536585366,140,6
164,1.14306640625,0.07080078125,-0.4833984375,-212.8048780487805,77.13414634146342,-102.43902439024392,140,6
165,1.14697265625,0.05908203125,-0.44189453125,-214.75609756097563,79.63414634146342,-106.82926829268294,140,6
166,1.10595703125,0.12353515625,-0.41064453125,-212.13414634146343,80.91463414634147,-110.2439024390244,140,6
167,1.11181640625,-0.0029296875,-0.38623046875,-204.93902439024393,76.09756097560977,-112.8048780487805,140,6
168,1.1455078125,0.00634765625,-0.44140625,-199.20731707317074,74.20731707317074,-117.43902439024392,140,6
169,1.201171875,0.11328125,-0.56982421875,-201.76829268292684,77.6219512195122,-126.40243902439026,140,6
170,1.3017578125,0.271484375,-0.62255859375,-207.37804878048783,76.09756097560977,-134.26829268292684,140,6
171,1.39599609375,0.31884765625,-0.6259765625,-215.4268292682927,80.97560975609757,-144.45121951219514,140,6
172,1.42724609375,0.25732421875,-0.60400390625,-226.34146341463418,90.1219512195122,-152.5,140,6
173,1.45751953125,0.12744140625,-0.60791015625,-237.50000000000003,98.23170731707317,-161.46341463414635,140,6
174,1.4580078125,0.21533203125,-0.5068359375,-244.81707317073173,102.13414634146342,-165.7926829268293,140,6
175,1.39990234375,0.125,-0.4267578125,-240.5487804878049,101.34146341463415,-170.91463414634148,140,6
176,1.38330078125,0.06640625,-0.3544921875,-229.63414634146343,99.81707317073172,-176.03658536585368,140,6
177,1.4111328125,0.0,-0.33837890625,-221.09756097560978,99.75609756097562,-181.89024390243904,140,6
178,1.46044921875,0.19921875,-0.2685546875,-214.45121951219514,99.20731707317074,-185.97560975609758,140,6
179,1.51611328125,0.244140625,-0.126953125,-210.6707317073171,98.41463414634147,-190.3048780487805,140,6
180,1.56787109375,0.24755859375,-0.2724609375,-208.84146341463418,100.2439024390244,-195.4878048780488,140,6
181,1.607421875,0.2861328125,-0.32373046875,-208.1707317073171,105.97560975609757,-203.65853658536588,140,6
182,1.677734375,0.32080078125,-0.27685546875,-207.19512195121953,108.23170731707317,-208.84146341463418,140,6
183,1.70263671875,0.2734375,-0.13818359375,-201.82926829268294,111.15853658536587,-213.41463414634148,140,6
184,1.740234375,0.2255859375,-0.2421875,-195.3048780487805,112.6219512195122,-218.53658536585368,140,6
185,1.771484375,0.2490234375,-0.064453125,-188.0487804878049,113.84146341463416,-223.2926829268293,140,6
186,1.79638671875,0.28515625,-0.00830078125,-182.7439024390244,115.42682926829269,-226.64634146341464,140,6
187,1.7734375,0.23388671875,-0.02294921875,-176.89024390243904,117.98780487804879,-230.6707317073171,140,6
188,1.6259765625,0.2314453125,0.00634765625,-166.46341463414635,118.47560975609757,-234.87804878048783,140,6
189,1.7646484375,0.2919921875,-0.05322265625,-158.41463414634148,119.08536585365854,-240.4268292682927,140,6
190,1.77978515625,0.32470703125,-0.0732421875,-151.89024390243904,122.37804878048782,-244.08536585365854,140,6
191,1.77978515625,0.3193359375,-0.05810546875,-149.51219512195124,126.21951219512196,-246.82926829268294,140,6
192,1.7841796875,0.33447265625,-0.06884765625,-144.87804878048783,129.08536585365854,-248.47560975609758,140,6
193,1.794921875,0.39111328125,0.01171875,-141.64634146341464,130.85365853658539,-250.00000000000003,140,6
194,1.7919921875,0.4130859375,0.01708984375,-139.02439024390245,132.25609756097563,-250.4878048780488,140,6
195,1.763671875,0.400390625,0.10009765625,-138.1707317073171,135.6707317073171,-252.25609756097563,140,6
196,1.87109375,0.384765625,0.14697265625,-132.9878048780488,134.9390243902439,-253.2926829268293,140,6
197,1.74755859375,0.3984375,0.1591796875,-125.91463414634147,132.8048780487805,-255.12195121951223,140,6
198,1.73828125,0.41943359375,0.1640625,-118.29268292682927,129.32926829268294,-257.8658536585366,140,6
199,1.71142578125,0.4140625,0.1494140625,-109.51219512195122,127.43902439024392,-262.3780487804878,140,6
200,1.7021484375,0.4658203125,0.1640625,-98.84146341463415,123.96341463414635,-268.1707317073171,140,6
201,1.6513671875,0.48193359375,0.16455078125,-89.20731707317074,119.81707317073172,-273.719512195122,140,6
202,1.64404296875,0.51025390625,0.1572265625,-84.26829268292684,115.67073170731709,-276.82926829268297,140,6
203,1.607421875,0.47216796875,0.12890625,-84.63414634146342,116.58536585365854,-279.9390243902439,140,6
204,1.53466796875,0.390625,0.12451171875,-85.42682926829269,119.69512195121952,-282.13414634146346,140,6
205,1.474609375,0.37744140625,0.1279296875,-82.07317073170732,120.79268292682927,-282.6219512195122,140,6
206,1.4150390625,0.3447265625,0.13427734375,-93.59756097560977,120.97560975609757,-283.4146341463415,140,6
207,1.33984375,0.21142578125,0.15771484375,-72.8048780487805,122.01219512195124,-284.39024390243907,140,6
208,1.28515625,0.1787109375,0.07421875,-63.963414634146346,119.81707317073172,-284.0853658536586,140,6
209,1.205078125,0.1640625,0.04443359375,-56.707317073170735,118.04878048780489,-283.719512195122,140,6
210,1.2470703125,0.12939453125,0.080078125,-53.10975609756098,118.53658536585367,-280.4878048780488,140,6
211,1.03076171875,0.08740234375,0.17919921875,-48.84146341463415,115.12195121951221,-274.20731707317077,140,6
212,0.93359375,-0.083984375,0.11279296875,-44.207317073170735,113.90243902439025,-271.70731707317077,140,6
213,0.7919921875,-0.1220703125,0.12158203125,-42.13414634146342,110.79268292682927,-269.45121951219517,140,6
214,0.74267578125,-0.1513671875,0.1787109375,-37.5609756097561,108.47560975609757,-266.5853658536586,140,6
215,0.70166015625,-0.21728515625,0.2216796875,-35.1219512195122,107.8658536585366,-261.4634146341464,140,6
216,0.666015625,-0.31298828125,0.21875,-46.524390243902445,106.40243902439025,-255.00000000000003,140,6
217,0.60498046875,-0.38818359375,0.22314453125,-27.134146341463417,104.26829268292684,-248.78048780487808,140,6
218,0.53466796875,-0.4580078125,0.17724609375,-24.02439024390244,102.6219512195122,-241.15853658536588,140,6
219,0.4404296875,-0.513671875,0.12744140625,-24.512195121951223,99.14634146341464,-232.56097560975613,140,6
220,0.36279296875,-0.52880859375,0.12548828125,-30.914634146341466,97.8048780487805,-222.56097560975613,140,6
221,0.25634765625,-0.5048828125,0.14013671875,-37.07317073170732,95.60975609756099,-209.75609756097563,140,6
222,0.0810546875,-0.76904296875,0.125,-39.93902439024391,108.65853658536587,-195.97560975609758,140,6
223,-0.017578125,-0.91259765625,0.19189453125,-42.6219512195122,86.58536585365854,-183.47560975609758,140,6
224,-0.15478515625,-0.88134765625,0.07275390625,-44.63414634146342,80.73170731707317,-169.75609756097563,140,6
225,-0.140625,-1.0751953125,-0.072265625,-44.024390243902445,74.93902439024392,-154.02439024390245,140,6
226,-0.40185546875,-1.23876953125,-0.0400390625,-40.670731707317074,68.96341463414635,-135.97560975609758,140,6
227,-0.5751953125,-1.45263671875,-0.025390625,-32.86585365853659,76.82926829268294,-110.3658536585366,140,6
228,-0.78173828125,-1.6708984375,-0.04931640625,-25.853658536585368,53.29268292682927,-85.67073170731707,140,6
229,-0.8681640625,-1.79345703125,-0.0068359375,-21.03658536585366,47.987804878048784,-58.84146341463415,140,6
230,-0.8994140625,-1.9111328125,-0.05078125,-20.60975609756098,43.71951219512196,-32.31707317073171,140,6
231,-0.9033203125,-2.06982421875,-0.0595703125,-16.585365853658537,37.07317073170732,-5.2439024390243905,140,6
232,-0.86572265625,-2.24951171875,-0.1279296875,-7.378048780487806,46.34146341463415,20.670731707317074,140,6
233,-0.78466796875,-2.41455078125,-0.2138671875,6.52439024390244,21.52439024390244,45.670731707317074,140,6
234,-0.72705078125,-2.5234375,-0.33251953125,21.707317073170735,12.073170731707318,71.21951219512195,140,6
235,-0.666015625,-2.6328125,-0.3955078125,36.82926829268293,2.804878048780488,78.59756097560977,140,6
236,-0.67431640625,-2.73291015625,-0.4599609375,52.31707317073171,-7.621951219512196,117.01219512195122,140,6
237,-0.67724609375,-2.8271484375,-0.474609375,64.51219512195122,-16.951219512195124,126.64634146341464,140,6
238,-0.63525390625,-2.88623046875,-0.51025390625,67.98780487804879,-21.76829268292683,170.6707317073171,140,6
239,-0.54248046875,-3.03759765625,-0.6591796875,66.82926829268293,-30.121951219512198,206.76829268292684,140,6
240,-0.45947265625,-3.23876953125,-0.77685546875,71.58536585365854,-40.243902439024396,246.21951219512198,140,6
241,-0.32080078125,-3.427734375,-0.75927734375,80.97560975609757,-50.79268292682927,288.4756097560976,140,6
242,-0.05810546875,-3.5947265625,-0.7900390625,86.58536585365854,-64.87804878048782,334.81707317073176,140,6
243,0.2177734375,-3.767578125,-0.9072265625,85.91463414634147,-62.804878048780495,380.609756097561,140,6
244,0.6171875,-3.89013671875,-0.88916015625,84.02439024390245,-88.35365853658537,426.5853658536586,140,6
245,1.1484375,-3.97119140625,-0.935546875,83.29268292682927,-100.79268292682927,472.92682926829275,140,6
246,1.97265625,-4.0029296875,-1.15380859375,84.69512195121952,-114.39024390243904,521.4024390243903,140,6
247,2.73583984375,-4.3359375,-1.5986328125,94.02439024390245,-145.85365853658539,572.9268292682927,140,6
248,3.63671875,-4.447265625,-2.0146484375,154.51219512195124,-161.21951219512198,612.1341463414635,140,6
249,4.7490234375,-4.52685546875,-2.28515625,204.20731707317074,-179.02439024390245,646.7682926829269,140,6
250,6.06494140625,-4.7314453125,-2.21728515625,296.0365853658537,-184.26829268292684,679.5121951219513,140,6
251,7.01171875,-4.3271484375,-1.9697265625,366.0975609756098,-175.5487804878049,717.5609756097562,140,6
252,7.74462890625,-4.0087890625,-1.93212890625,439.32926829268297,-177.9268292682927,749.8170731707318,140,6
253,8.337890625,-3.76806640625,-2.34765625,501.5853658536586,-168.78048780487805,797.0121951219513,140,6
254,9.37841796875,-3.318359375,-2.85107421875,534.7560975609756,-149.39024390243904,846.5243902439025,140,6
255,10.23388671875,-2.7119140625,-3.87890625,533.5975609756098,-139.32926829268294,880.0609756097562,140,6
256,10.794921875,-2.02197265625,-4.60986328125,542.5,-100.48780487804879,927.0121951219513,140,6
257,11.6328125,-1.3486328125,-5.4091796875,587.3170731707318,-139.08536585365854,977.0121951219513,140,6
258,11.42041015625,-0.796875,-6.33984375,662.3780487804879,-208.109756097561,1025.2439024390244,140,6
259,11.6533203125,-0.83642578125,-7.55712890625,785.548780487805,-308.7804878048781,1022.8048780487806,140,6
260,11.150390625,-1.38916015625,-8.1787109375,945.9756097560977,-415.9146341463415,984.329268292683,140,6
261,9.51611328125,-2.49755859375,-8.17822265625,1110.3658536585367,-488.4756097560976,890.4268292682927,140,6
262,7.38232421875,-3.76025390625,-7.8349609375,1311.4634146341464,-662.8658536585366,773.4146341463415,140,6
263,6.5068359375,-4.71826171875,-8.1669921875,1523.7804878048782,-787.8658536585367,547.3170731707318,140,6
264,6.890625,-4.482421875,10.23046875,1232.5609756097563,-1561.768292682927,474.39024390243907,140,6
265,12.94189453125,-7.02978515625,-16.0,512.6829268292684,-86.76829268292684,-216.89024390243904,140,6
266,11.59130859375,5.5048828125,-15.08544921875,1725.548780487805,-150.0,-73.71951219512195,140,6
267,4.0244140625,0.650390625,2.16748046875,1607.5000000000002,49.51219512195122,-200.2439024390244,140,6
268,9.01513671875,2.69091796875,1.10400390625,1410.8536585365855,-253.59756097560978,-341.219512195122,140,6
269,4.5908203125,-0.8759765625,-0.2041015625,932.5609756097562,36.21951219512196,-441.0975609756098,140,6
270,6.720703125,-0.25439453125,1.88330078125,881.4634146341464,190.3048780487805,-279.32926829268297,140,6
271,3.65771484375,-6.01708984375,-0.2119140625,799.0853658536586,69.32926829268293,-314.20731707317077,140,6
272,5.09423828125,-5.55517578125,-1.06005859375,672.0121951219513,38.10975609756098,-481.6463414634147,140,6
273,4.65478515625,-5.3076171875,-2.34228515625,633.5975609756098,2.439024390243903,-617.5609756097562,140,6
274,4.8916015625,-4.7294921875,-2.37744140625,564.8780487804878,-12.134146341463415,-745.9146341463415,140,6
275,4.5068359375,-4.048828125,-3.27880859375,466.2804878048781,2.5,-804.5121951219513,140,6
276,3.857421875,-3.9833984375,-3.337890625,327.9878048780488,74.32926829268294,-831.2804878048781,140,6
277,3.13623046875,-4.0048828125,-3.25732421875,217.19512195121953,151.09756097560978,-849.939024390244,140,6
278,3.326171875,-3.384765625,-2.95751953125,75.91463414634147,252.80487804878052,-820.3658536585367,140,6
279,2.84716796875,-3.3525390625,-2.31982421875,-4.573170731707317,363.109756097561,-776.829268292683,140,6
280,2.1396484375,-3.40185546875,-2.20849609375,-10.060975609756099,440.7926829268293,-745.3658536585366,140,6
281,1.78076171875,-3.0703125,-2.22216796875,4.085365853658537,486.4634146341464,-710.609756097561,140,6
282,1.51220703125,-2.98828125,-2.25341796875,8.475609756097562,481.5853658536586,-683.9024390243903,140,6
283,1.4931640625,-2.56884765625,-2.267578125,-17.98780487804878,482.68292682926835,-638.3536585365854,140,6
284,1.30712890625,-2.064453125,-2.00146484375,-52.86585365853659,452.86585365853665,-592.1341463414635,140,6
285,1.25146484375,-1.96142578125,-1.93896484375,-100.91463414634147,450.609756097561,-543.5975609756098,140,6
286,1.07958984375,-1.85400390625,-1.85595703125,-147.37804878048783,451.0365853658537,-486.82926829268297,140,6
287,1.0,-1.52685546875,-2.0390625,-183.109756097561,454.57317073170736,-456.4634146341464,140,6
288,1.0302734375,-1.31298828125,-2.01318359375,-195.97560975609758,459.93902439024396,-436.5853658536586,140,6
289,0.9013671875,-1.2802734375,-2.041015625,-193.90243902439025,471.0365853658537,-395.3048780487805,140,6
290,0.904296875,-1.21630859375,-1.912109375,-192.56097560975613,482.37804878048786,-369.26829268292687,140,6
291,0.974609375,-0.82080078125,-1.9365234375,-190.609756097561,443.7804878048781,-339.69512195121956,140,6
292,0.64404296875,-0.65576171875,-1.943359375,-200.2439024390244,422.50000000000006,-327.37804878048786,140,6
293,0.59521484375,-0.52197265625,-1.71923828125,-213.96341463414635,399.63414634146346,-291.5853658536586,140,6
294,0.193359375,-0.4296875,-1.482421875,-240.3658536585366,376.0975609756098,-275.609756097561,140,6
295,0.18994140625,-0.3154296875,-1.44482421875,-260.4878048780488,360.00000000000006,-260.609756097561,140,6
296,0.20654296875,-0.1943359375,-1.46875,-278.3536585365854,339.20731707317077,-251.46341463414637,140,6
297,0.09912109375,-0.15380859375,-1.6005859375,-289.51219512195127,322.37804878048786,-245.4878048780488,140,6
298,-0.02099609375,-0.1552734375,-1.60302734375,-284.8780487804878,308.7804878048781,-244.75609756097563,140,6
299,0.07177734375,-0.0908203125,-1.55126953125,-273.5365853658537,294.45121951219517,-239.45121951219514,140,6
300,0.12255859375,-0.0986328125,-1.39501953125,-257.9878048780488,288.1707317073171,-229.32926829268294,140,6
301,-0.302734375,-0.291015625,-1.18701171875,-244.39024390243904,279.1463414634147,-215.6707317073171,140,6
302,-0.828125,-0.64306640625,-1.0439453125,-234.93902439024393,268.9634146341464,-209.08536585365854,140,6
303,-0.9990234375,-0.734375,-0.99072265625,-215.97560975609758,257.3780487804878,-203.53658536585368,140,6
304,-0.93310546875,-0.3173828125,-0.73974609375,-200.06097560975613,243.41463414634148,-194.20731707317074,140,6
305,-0.8056640625,-0.1064453125,-0.8583984375,-197.9878048780488,225.6707317073171,-176.76829268292684,140,6
306,-0.63232421875,-0.046875,-0.85546875,-191.15853658536588,220.00000000000003,-151.03658536585368,140,6
307,-0.7568359375,-0.30322265625,-0.99755859375,-184.63414634146343,206.21951219512198,-122.98780487804879,140,6
308,-1.06201171875,-0.54833984375,-0.98486328125,-173.1707317073171,191.52439024390245,-104.39024390243904,140,6
309,-1.0927734375,-0.5986328125,-0.94775390625,-160.1219512195122,172.5609756097561,-94.32926829268294,140,6
310,-1.005859375,-0.4189453125,-0.8564453125,-152.5,170.5487804878049,-89.69512195121952,140,6
311,-0.841796875,-0.37109375,-0.8544921875,-153.0487804878049,135.3048780487805,-87.8048780487805,140,6
312,-0.73779296875,-0.04052734375,-0.9287109375,-147.4390243902439,122.62195121951221,-86.34146341463415,140,6
313,-0.85888671875,-0.0693359375,-0.86328125,-155.0,107.92682926829269,-93.10975609756099,140,6
314,-1.07177734375,-0.35009765625,-0.77099609375,-134.9390243902439,108.35365853658537,-70.97560975609757,140,6
315,-1.19091796875,-0.3896484375,-0.84521484375,-126.76829268292684,85.2439024390244,-66.15853658536587,140,6
316,-1.23291015625,-0.43798828125,-0.966796875,-120.54878048780489,70.3658536585366,-60.85365853658537,140,6
317,-1.1484375,-0.34375,-1.11083984375,-104.93902439024392,51.03658536585366,-53.90243902439025,140,6
318,-1.14697265625,-0.36865234375,-1.08251953125,-89.87804878048782,45.54878048780488,-61.89024390243903,140,6
319,-1.20068359375,-0.36083984375,-1.125,-80.60975609756099,13.29268292682927,-36.463414634146346,140,6
320,-1.24169921875,-0.376953125,-0.9501953125,-76.89024390243902,0.12195121951219513,-27.073170731707318,140,6
321,-1.30322265625,-0.369140625,-1.01806640625,-69.87804878048782,-14.26829268292683,-15.975609756097562,140,6
322,-1.36083984375,-0.45361328125,-1.0263671875,-58.04878048780488,-27.865853658536587,-5.3048780487804885,140,6
323,-1.38232421875,-0.47509765625,-0.97021484375,-45.79268292682927,-44.81707317073171,5.2439024390243905,140,6
324,-1.3720703125,-0.625,-0.88818359375,-36.28048780487805,-57.865853658536594,16.951219512195124,140,6
325,-1.37158203125,-0.49560546875,-0.84521484375,-29.634146341463417,-67.98780487804879,29.451219512195124,140,6
326,-1.32373046875,-0.46533203125,-0.86572265625,-19.390243902439025,-80.1219512195122,39.57317073170732,140,6
327,-1.21337890625,-0.38916015625,-0.88232421875,-4.390243902439025,-92.8048780487805,47.6219512195122,140,6
328,-1.10498046875,-0.2978515625,-0.82568359375,9.207317073170733,-102.8048780487805,53.90243902439025,140,6
329,-1.12109375,-0.2099609375,-0.68994140625,19.451219512195124,-110.79268292682927,58.53658536585366,140,6
330,-0.9287109375,-0.0986328125,-0.55859375,27.073170731707318,-115.00000000000001,62.13414634146342,140,6
331,-0.91552734375,-0.03369140625,-0.50341796875,31.646341463414636,-120.1829268292683,63.78048780487806,140,6
332,-0.90234375,0.0537109375,-0.46630859375,38.170731707317074,-123.65853658536587,63.23170731707317,140,6
333,-0.89453125,0.095703125,-0.38623046875,43.35365853658537,-126.64634146341464,63.59756097560976,140,6
334,-0.888671875,0.14208984375,-0.314453125,31.646341463414636,-128.71951219512195,62.50000000000001,140,6
335,-0.8720703125,0.1767578125,-0.251953125,51.21951219512196,-129.26829268292684,61.21951219512196,140,6
336,-0.9033203125,0.19384765625,-0.20263671875,52.31707317073171,-130.3658536585366,59.57317073170732,140,6
337,-0.94189453125,0.2099609375,-0.20166015625,53.41463414634147,-131.28048780487805,57.865853658536594,140,6
338,-0.9716796875,0.22119140625,-0.181640625,54.57317073170732,-131.95121951219514,56.03658536585366,140,6
339,-1.00146484375,0.20849609375,-0.162109375,57.37804878048781,-136.76829268292684,55.487804878048784,140,6
340,-1.02001953125,0.2021484375,-0.13720703125,61.707317073170735,-140.2439024390244,55.1219512195122,140,6
341,-1.02880859375,0.18701171875,-0.11865234375,62.13414634146342,-143.2926829268293,51.82926829268293,140,6
342,-1.00390625,0.22607421875,-0.09130859375,65.54878048780489,-146.40243902439025,49.57317073170732,140,6
343,-0.9833984375,0.23193359375,-0.0556640625,67.8658536585366,-148.78048780487805,48.23170731707317,140,6
344,-0.9892578125,0.21728515625,-0.00927734375,69.87804878048782,-153.109756097561,48.23170731707317,140,6
345,-0.9755859375,0.23095703125,-0.00390625,75.0,-159.32926829268294,48.04878048780488,140,6
346,-0.97998046875,0.23388671875,0.02099609375,81.21951219512196,-164.93902439024393,46.89024390243903,140,6
347,-0.96826171875,0.21728515625,0.0615234375,88.96341463414635,-168.53658536585368,46.34146341463415,140,6
348,-0.96630859375,0.20849609375,0.154296875,89.87804878048782,-165.4878048780488,44.81707317073171,140,6
349,-0.958984375,0.22021484375,0.21630859375,86.52439024390245,-167.31707317073173,45.670731707317074,140,6
350,-0.93701171875,0.24755859375,0.236328125,87.8048780487805,-168.59756097560978,48.10975609756098,140,6
351,-0.91259765625,0.27490234375,0.22021484375,91.15853658536587,-171.21951219512198,48.35365853658537,140,6
352,-0.89794921875,0.2861328125,0.2470703125,96.28048780487806,-174.02439024390245,47.25609756097561,140,6
353,-0.845703125,0.33447265625,0.267578125,103.84146341463415,-179.57317073170734,48.71951219512196,140,6
354,-0.8046875,0.36083984375,0.294921875,107.6829268292683,-180.609756097561,48.78048780487805,140,6
355,-0.75146484375,0.3662109375,0.32080078125,107.92682926829269,-178.0487804878049,48.47560975609756,140,6
356,-0.7353515625,0.3388671875,0.35205078125,102.07317073170732,-173.0487804878049,48.84146341463415,140,6
357,-0.70361328125,0.3515625,0.373046875,100.06097560975611,-170.7926829268293,52.19512195121952,140,6
358,-0.64892578125,0.35986328125,0.40869140625,102.13414634146342,-173.2926829268293,57.37804878048781,140,6
359,-0.6162109375,0.3330078125,0.45361328125,109.08536585365854,-176.76829268292684,61.585365853658544,140,6
360,-0.6025390625,0.31982421875,0.4853515625,117.6829268292683,-182.07317073170734,63.47560975609757,140,6
361,-0.57568359375,0.32470703125,0.5302734375,126.82926829268294,-183.35365853658539,63.47560975609757,140,6
362,-0.54248046875,0.34130859375,0.5830078125,130.4268292682927,-180.2439024390244,62.19512195121952,140,6
363,-0.509765625,0.38037109375,0.62109375,127.8658536585366,-173.47560975609758,61.28048780487806,140,6
364,-0.47705078125,0.4072265625,0.6337890625,117.8048780487805,-164.39024390243904,59.451219512195124,140,6
365,-0.4521484375,0.41552734375,0.6064453125,108.41463414634147,-159.63414634146343,59.207317073170735,140,6
366,-0.47021484375,0.38525390625,0.60791015625,106.58536585365854,-157.9268292682927,59.81707317073171,140,6
367,-0.490234375,0.33349609375,0.60009765625,110.3658536585366,-161.21951219512198,60.73170731707317,140,6
368,-0.50146484375,0.314453125,0.61669921875,118.90243902439025,-169.69512195121953,62.01219512195122,140,6
369,-0.52392578125,0.2958984375,0.60595703125,125.48780487804879,-175.0609756097561,60.67073170731708,140,6
370,-0.525390625,0.314453125,0.556640625,126.28048780487806,-174.69512195121953,58.71951219512196,140,6
371,-0.625,0.345703125,0.529296875,119.26829268292684,-169.14634146341464,57.13414634146342,140,6
372,-0.44775390625,0.4033203125,0.55517578125,105.48780487804879,-162.43902439024393,57.804878048780495,140,6
373,-0.43408203125,0.412109375,0.607421875,88.59756097560977,-154.14634146341464,59.87804878048781,140,6
374,-0.419921875,0.4111328125,0.560546875,75.79268292682927,-152.19512195121953,63.78048780487806,140,6
375,-0.455078125,0.357421875,0.56982421875,73.53658536585367,-154.08536585365854,67.5609756097561,140,6
376,-0.47509765625,0.302734375,0.5791015625,80.2439024390244,-159.63414634146343,70.97560975609757,140,6
377,-0.45556640625,0.314453125,0.6083984375,92.01219512195122,-166.52439024390245,72.37804878048782,140,6
378,-0.42138671875,0.33984375,0.61181640625,99.14634146341464,-166.34146341463415,71.64634146341464,140,6
379,-0.3740234375,0.25146484375,0.55224609375,95.3048780487805,-162.19512195121953,70.91463414634147,140,6
380,-0.310546875,0.421875,0.56689453125,85.67073170731707,-171.64634146341464,70.91463414634147,140,6
381,-0.259765625,0.47119140625,0.56298828125,77.25609756097562,-152.5,71.21951219512195,140,6
382,-0.22412109375,0.50244140625,0.60498046875,73.29268292682927,-149.87804878048783,72.01219512195122,140,6
383,-0.22314453125,0.447265625,0.58349609375,68.65853658536587,-148.0487804878049,72.8658536585366,140,6
384,-0.2138671875,0.451171875,0.55859375,67.5,-147.4390243902439,73.35365853658537,140,6
385,-0.1982421875,0.45849609375,0.56396484375,67.43902439024392,-146.03658536585368,73.29268292682927,140,6
386,-0.16748046875,0.4970703125,0.5673828125,66.82926829268293,-145.609756097561,74.02439024390245,140,6
387,-0.166015625,0.51416015625,0.5791015625,65.2439024390244,-144.69512195121953,75.91463414634147,140,6
388,-0.18017578125,0.5302734375,0.5859375,64.39024390243902,-143.65853658536588,77.37804878048782,140,6
389,-0.16552734375,0.533203125,0.623046875,63.23170731707317,-155.7317073170732,76.89024390243902,140,6
390,-0.13720703125,0.51708984375,0.67041015625,58.84146341463415,-132.9268292682927,76.09756097560977,140,6
391,-0.07080078125,0.552734375,0.6796875,53.41463414634147,-125.91463414634147,74.87804878048782,140,6
392,-0.01611328125,0.59326171875,0.71484375,50.85365853658537,-121.76829268292684,73.84146341463415,140,6
393,0.01171875,0.6015625,0.732421875,50.0609756097561,-118.35365853658537,71.82926829268294,140,6
394,0.048828125,0.62744140625,0.70703125,52.5609756097561,-117.62195121951221,70.97560975609757,140,6
395,0.06884765625,0.650390625,0.673828125,54.39024390243903,-117.7439024390244,70.1829268292683,140,6
396,0.0634765625,0.66455078125,0.6220703125,55.1219512195122,-118.53658536585367,68.96341463414635,140,6
397,0.06640625,0.673828125,0.53662109375,55.54878048780488,-119.26829268292684,67.92682926829269,140,6
398,0.0751953125,0.66845703125,0.51123046875,53.23170731707317,-119.39024390243904,66.89024390243902,140,6
399,0.0830078125,0.67333984375,0.53564453125,50.36585365853659,-119.08536585365854,66.09756097560977,140,6
400,0.07958984375,0.64599609375,0.5966796875,45.670731707317074,-116.52439024390245,65.60975609756098,140,6
401,0.05517578125,0.61474609375,0.63525390625,40.73170731707317,-112.07317073170732,65.1219512195122,140,6
402,0.05078125,0.60498046875,0.681640625,37.6829268292683,-107.7439024390244,64.63414634146342,140,6
403,0.05517578125,0.609375,0.69384765625,35.487804878048784,-102.92682926829269,63.47560975609757,140,6
404,0.10498046875,0.662109375,0.70068359375,34.93902439024391,-100.85365853658537,63.78048780487806,140,6
405,0.10400390625,0.65478515625,0.66650390625,34.87804878048781,-97.6829268292683,64.02439024390245,140,6
406,0.0048828125,0.6962890625,0.638671875,34.63414634146342,-95.42682926829269,64.63414634146342,140,6
407,0.13427734375,0.70947265625,0.60205078125,33.170731707317074,-92.43902439024392,64.81707317073172,140,6
408,0.1494140625,0.744140625,0.56298828125,30.60975609756098,-91.28048780487806,65.3658536585366,140,6
409,0.1416015625,0.72998046875,0.5263671875,27.682926829268297,-90.42682926829269,65.54878048780489,140,6
410,0.12451171875,0.72509765625,0.513671875,24.085365853658537,-90.3048780487805,65.97560975609757,140,6
411,0.111328125,0.69970703125,0.51416015625,21.158536585365855,-90.67073170731707,66.82926829268293,140,6
412,0.115234375,0.6767578125,0.5263671875,18.53658536585366,-89.87804878048782,67.19512195121952,140,6
413,0.15087890625,0.66748046875,0.58740234375,17.621951219512198,-89.26829268292684,67.8048780487805,140,6
414,0.20068359375,0.6640625,0.62353515625,18.902439024390244,-88.90243902439025,68.10975609756098,140,6
415,0.244140625,0.67138671875,0.615234375,21.097560975609756,-87.92682926829269,67.7439024390244,140,6
416,0.2646484375,0.68115234375,0.58837890625,21.890243902439025,-85.3658536585366,66.21951219512195,140,6
417,0.2998046875,0.73779296875,0.59521484375,20.54878048780488,-83.04878048780489,65.2439024390244,140,6
418,0.326171875,0.76171875,0.58935546875,19.939024390243905,-79.93902439024392,64.57317073170732,140,6
419,0.3369140625,0.77490234375,0.58203125,19.695121951219512,-79.02439024390245,64.20731707317074,140,6
420,0.306640625,0.748046875,0.546875,20.0,-78.71951219512196,62.01219512195122,140,6
421,0.28271484375,0.625,0.52392578125,19.81707317073171,-79.32926829268294,60.060975609756106,140,6
422,0.26171875,0.78271484375,0.544921875,19.81707317073171,-80.3048780487805,58.29268292682927,140,6
423,0.2529296875,0.82275390625,0.5732421875,20.182926829268293,-80.1829268292683,57.6219512195122,140,6
424,0.27685546875,0.84765625,0.6005859375,21.03658536585366,-81.09756097560977,56.585365853658544,140,6
425,0.275390625,0.8623046875,0.62744140625,21.951219512195124,-81.46341463414635,55.00000000000001,140,6
426,0.2890625,0.8701171875,0.61669921875,23.10975609756098,-81.34146341463415,54.146341463414636,140,6
427,0.30517578125,0.84619140625,0.61279296875,24.02439024390244,-79.63414634146342,52.5609756097561,140,6
428,0.330078125,0.8515625,0.63671875,21.707317073170735,-75.97560975609757,50.54878048780488,140,6
429,0.25830078125,0.86279296875,0.65185546875,19.75609756097561,-72.37804878048782,47.987804878048784,140,6
430,0.2919921875,0.837890625,0.6455078125,17.5609756097561,-67.7439024390244,45.97560975609756,140,6
431,0.27001953125,0.82421875,0.63134765625,17.073170731707318,-64.14634146341464,44.93902439024391,140,6
432,0.28125,0.84521484375,0.74853515625,18.78048780487805,-64.02439024390245,44.32926829268293,140,6
433,0.37109375,0.82177734375,0.6015625,20.853658536585368,-62.804878048780495,43.23170731707317,140,6
434,0.26123046875,0.85009765625,0.59326171875,23.231707317073173,-63.17073170731708,42.37804878048781,140,6
435,0.23193359375,0.81787109375,0.607421875,23.10975609756098,-63.963414634146346,40.0609756097561,140,6
436,0.27734375,0.91943359375,0.61279296875,19.634146341463417,-62.926829268292686,39.390243902439025,140,6
437,0.2392578125,0.93896484375,0.6376953125,13.841463414634148,-61.09756097560976,38.10975609756098,140,6
438,0.22119140625,0.91455078125,0.66796875,8.841463414634147,-59.085365853658544,35.670731707317074,140,6
439,0.21240234375,0.90087890625,0.685546875,6.097560975609756,-58.23170731707317,33.59756097560976,140,6
440,0.173828125,0.75390625,0.71337890625,3.780487804878049,-55.73170731707317,30.975609756097565,140,6
441,0.19482421875,0.89404296875,0.72265625,2.378048780487805,-52.5609756097561,28.963414634146343,140,6
442,0.2138671875,0.93408203125,0.74462890625,0.0,-48.47560975609756,27.073170731707318,140,6
443,0.24951171875,0.9521484375,0.74462890625,-1.0365853658536586,-44.51219512195122,24.81707317073171,140,6
444,0.2841796875,0.958984375,0.71826171875,-15.54878048780488,-41.03658536585366,22.012195121951223,140,6
445,0.31298828125,0.97900390625,0.67333984375,1.6463414634146343,-37.19512195121951,18.231707317073173,140,6
446,0.359375,0.98876953125,0.6376953125,1.7682926829268295,-32.31707317073171,15.060975609756099,140,6
447,0.45166015625,1.01416015625,0.65087890625,15.426829268292684,-26.82926829268293,9.939024390243903,140,6
448,0.42041015625,1.00830078125,0.62744140625,-2.9268292682926833,-23.414634146341466,7.195121951219513,140,6
449,0.390625,0.92822265625,0.53125,-3.353658536585366,-21.707317073170735,2.1951219512195124,140,6
450,0.3642578125,0.8818359375,0.509765625,-1.3414634146341464,-20.365853658536587,-2.6219512195121952,140,6
451,0.390625,0.8779296875,0.50244140625,0.0,-19.451219512195124,-7.25609756097561,140,6
452,0.42919921875,0.90380859375,0.5302734375,-2.378048780487805,-15.670731707317074,-12.317073170731708,140,6
453,0.443359375,0.9189453125,0.55029296875,-4.878048780487806,-11.76829268292683,-14.939024390243905,140,6
454,0.43994140625,0.90234375,0.5869140625,-7.439024390243903,-7.439024390243903,-18.170731707317074,140,6
455,0.416015625,0.865234375,0.62158203125,-9.451219512195122,-1.6463414634146343,-20.48780487804878,140,6
456,0.4013671875,0.8466796875,0.62744140625,-11.097560975609756,2.3170731707317076,-22.5609756097561,140,6
457,0.3642578125,0.80419921875,0.576171875,-11.219512195121952,3.780487804878049,-24.32926829268293,140,6
458,0.30615234375,0.71044921875,0.498046875,-8.902439024390244,1.524390243902439,-26.402439024390247,140,6
459,0.2685546875,0.65625,0.40185546875,-5.853658536585367,0.853658536585366,-29.634146341463417,140,6
460,0.30859375,0.67138671875,0.41064453125,-4.573170731707317,15.487804878048783,-30.487804878048784,140,6
461,0.29345703125,0.60205078125,0.4345703125,-4.695121951219512,-0.7317073170731708,-30.30487804878049,140,6
462,0.294921875,0.61962890625,0.404296875,-8.353658536585366,2.073170731707317,-29.512195121951223,140,6
463,0.259765625,0.5947265625,0.3896484375,-11.097560975609756,4.085365853658537,-29.695121951219516,140,6
464,0.25,0.5908203125,0.38818359375,-12.01219512195122,5.548780487804878,-28.84146341463415,140,6
465,0.275390625,0.58056640625,0.40625,-12.682926829268293,8.231707317073171,-29.02439024390244,140,6
466,0.29638671875,0.5888671875,0.4072265625,-15.487804878048783,11.097560975609756,-27.926829268292686,140,6
467,0.2998046875,0.544921875,0.39697265625,-17.926829268292686,13.414634146341465,-27.195121951219516,140,6
468,0.27490234375,0.5234375,0.369140625,-18.04878048780488,13.414634146341465,-26.219512195121954,140,6
469,0.25439453125,0.61962890625,0.34716796875,-16.28048780487805,11.219512195121952,-25.670731707317074,140,6
470,0.24658203125,0.4765625,0.3203125,-13.231707317073171,9.146341463414634,-27.073170731707318,140,6
471,0.25390625,0.5009765625,0.3125,-12.500000000000002,7.621951219512196,-25.60975609756098,140,6
472,0.2607421875,0.4736328125,0.32421875,-11.463414634146343,5.426829268292684,-24.32926829268293,140,6
473,0.22705078125,0.4208984375,0.30517578125,-7.926829268292684,3.414634146341464,-22.682926829268293,140,6
474,0.2607421875,0.42919921875,0.328125,-5.3048780487804885,-0.7926829268292683,-20.914634146341466,140,6
475,0.21826171875,0.41796875,0.34375,-15.060975609756099,-6.951219512195123,-18.414634146341466,140,6
476,0.23193359375,0.4013671875,0.349609375,8.78048780487805,-11.097560975609756,-17.5609756097561,140,6
477,0.205078125,0.37939453125,0.330078125,13.29268292682927,-12.926829268292684,-15.975609756097562,140,6
478,0.2216796875,0.392578125,0.29736328125,14.756097560975611,-16.097560975609756,-13.414634146341465,140,6
479,0.19921875,0.4248046875,0.2958984375,14.634146341463415,-16.646341463414636,-11.890243902439025,140,6
480,0.22216796875,0.41064453125,0.28564453125,12.073170731707318,-16.402439024390244,-10.609756097560977,140,6
481,0.248046875,0.4541015625,0.2763671875,7.987804878048781,-16.52439024390244,-8.536585365853659,140,6
482,0.2275390625,0.4208984375,0.2626953125,5.548780487804878,-17.98780487804878,-5.609756097560976,140,6
483,0.173828125,0.4990234375,0.2421875,6.097560975609756,-21.158536585365855,-3.1097560975609757,140,6
484,0.18017578125,0.3740234375,0.24609375,9.26829268292683,-24.32926829268293,-0.9756097560975611,140,6
485,0.2041015625,0.37890625,0.2568359375,11.76829268292683,-26.89024390243903,1.8902439024390245,140,6
486,0.2236328125,0.427734375,0.2626953125,13.658536585365855,-29.939024390243905,2.7439024390243905,140,6
487,0.2666015625,0.39404296875,0.24853515625,14.207317073170733,-31.76829268292683,5.182926829268293,140,6
488,0.2763671875,0.37060546875,0.27978515625,12.926829268292684,-28.475609756097562,7.317073170731708,140,6
489,0.294921875,0.35546875,0.2744140625,3.1707317073170733,-24.207317073170735,10.426829268292684,140,6
490,0.31884765625,0.40673828125,0.3046875,-6.646341463414635,-18.658536585365855,12.682926829268293,140,6
491,0.34130859375,0.4462890625,0.3388671875,-14.756097560975611,-13.231707317073171,0.24390243902439027,140,6
492,0.32958984375,0.427734375,0.3798828125,-19.573170731707318,-9.634146341463415,19.634146341463417,140,6
493,0.32568359375,0.4091796875,0.4150390625,-19.32926829268293,-8.048780487804878,22.743902439024392,140,6
494,0.31982421875,0.37939453125,0.4345703125,-18.84146341463415,-4.817073170731708,25.000000000000004,140,6
495,0.32275390625,0.4072265625,0.45263671875,-18.719512195121954,-2.3170731707317076,28.414634146341466,140,6
496,0.33349609375,0.43994140625,0.46533203125,-15.121951219512196,-2.3170731707317076,32.6829268292683,140,6
497,0.3720703125,0.51171875,0.474609375,-10.182926829268293,-3.048780487804878,35.79268292682927,140,6
498,0.373046875,0.5185546875,0.51123046875,-5.121951219512195,-4.329268292682928,38.84146341463415,140,6
499,0.373046875,0.50146484375,0.515625,2.0121951219512195,-7.378048780487806,41.768292682926834,140,6
