,Ax,Ay,Az,Gx,Gy,Gz,distance,shot_type
0,0.72509765625,-0.47412109375,-0.244140625,-8.536585365853659,25.914634146341466,2.5609756097560976,130,4
1,0.7080078125,-0.478515625,-0.24853515625,-3.353658536585366,21.646341463414636,2.3170731707317076,130,4
2,0.72216796875,-0.37744140625,-0.2392578125,1.6463414634146343,18.658536585365855,1.524390243902439,130,4
3,0.7265625,-0.50146484375,-0.25,4.573170731707317,16.402439024390244,1.0975609756097562,130,4
4,0.70751953125,-0.5107421875,-0.22998046875,6.219512195121951,16.219512195121954,1.5853658536585367,130,4
5,0.677734375,-0.5283203125,-0.2138671875,4.634146341463415,16.646341463414636,2.0121951219512195,130,4
6,0.72021484375,-0.49853515625,-0.2314453125,1.9512195121951221,19.75609756097561,2.378048780487805,130,4
7,0.70703125,-0.4775390625,-0.21484375,-3.1097560975609757,23.78048780487805,2.6219512195121952,130,4
8,0.68994140625,-0.5,-0.1884765625,-7.621951219512196,26.951219512195124,3.2926829268292686,130,4
9,0.66064453125,-0.529296875,-0.17333984375,-9.085365853658537,27.621951219512198,2.8658536585365857,130,4
10,0.64599609375,-0.5439453125,-0.16162109375,-7.743902439024391,27.195121951219516,3.2926829268292686,130,4
11,0.6240234375,-0.56884765625,-0.146484375,-5.182926829268293,27.073170731707318,3.780487804878049,130,4
12,0.62158203125,-0.59521484375,-0.13525390625,-4.2682926829268295,28.10975609756098,4.207317073170732,130,4
13,0.62060546875,-0.599609375,-0.15380859375,-5.2439024390243905,29.451219512195124,4.573170731707317,130,4
14,0.62158203125,-0.5732421875,-0.18212890625,-6.2804878048780495,31.463414634146343,4.817073170731708,130,4
15,0.63720703125,-0.57861328125,-0.17041015625,-7.500000000000001,33.963414634146346,5.121951219512195,130,4
16,0.64208984375,-0.59716796875,-0.14599609375,-11.463414634146343,38.59756097560976,4.939024390243903,130,4
17,0.65771484375,-0.568359375,-0.140625,-16.76829268292683,41.890243902439025,4.451219512195122,130,4
18,0.650390625,-0.533203125,-0.00390625,-18.353658536585368,41.768292682926834,4.329268292682928,130,4
19,0.64599609375,-0.54248046875,-0.0927734375,-16.158536585365855,38.78048780487805,4.51219512195122,130,4
20,0.63818359375,-0.580078125,-0.06982421875,-10.060975609756099,32.5609756097561,3.9024390243902443,130,4
21,0.64501953125,-0.56396484375,-0.06982421875,-1.0975609756097562,25.792682926829272,3.4756097560975614,130,4
22,0.646484375,-0.55224609375,-0.08837890625,8.414634146341465,17.195121951219512,3.1097560975609757,130,4
23,0.68603515625,-0.5341796875,-0.12353515625,17.012195121951223,10.365853658536587,2.3170731707317076,130,4
24,0.69482421875,-0.541015625,-0.13671875,22.80487804878049,6.402439024390245,1.707317073170732,130,4
25,0.71240234375,-0.54638671875,-0.1669921875,25.853658536585368,4.146341463414634,1.0975609756097562,130,4
26,0.74072265625,-0.521484375,-0.166015625,25.54878048780488,5.7926829268292686,0.3658536585365854,130,4
27,0.748046875,-0.484375,-0.1787109375,21.34146341463415,10.609756097560977,-0.3658536585365854,130,4
28,0.7373046875,-0.4658203125,-0.177734375,31.09756097560976,0.1829268292682927,-0.853658536585366,130,4
29,0.74462890625,-0.46923828125,-0.19189453125,9.817073170731708,18.902439024390244,-1.3414634146341464,130,4
30,0.77197265625,-0.4384765625,-0.1796875,4.146341463414634,24.02439024390244,-2.073170731707317,130,4
31,0.76513671875,-0.43701171875,-0.15869140625,-2.3170731707317076,28.170731707317074,-2.804878048780488,130,4
32,0.73388671875,-0.44287109375,-0.1533203125,-6.341463414634147,30.60975609756098,-3.2926829268292686,130,4
33,0.7041015625,-0.4697265625,-0.2470703125,-6.707317073170732,30.243902439024392,-3.963414634146342,130,4
34,0.689453125,-0.4931640625,-0.103515625,-4.085365853658537,28.04878048780488,-4.390243902439025,130,4
35,0.6689453125,-0.50732421875,-0.09228515625,-0.48780487804878053,26.34146341463415,-4.939024390243903,130,4
36,0.67041015625,-0.50341796875,-0.087890625,2.3170731707317076,25.365853658536587,-5.853658536585367,130,4
37,0.6923828125,-0.4912109375,-0.0859375,5.548780487804878,22.5609756097561,-5.975609756097562,130,4
38,0.7001953125,-0.48779296875,-0.09814453125,8.963414634146343,19.146341463414636,-6.219512195121951,130,4
39,0.68505859375,-0.51806640625,-0.1044921875,13.353658536585368,14.51219512195122,-5.670731707317073,130,4
40,0.68896484375,-0.53125,-0.1572265625,17.743902439024392,9.02439024390244,-5.2439024390243905,130,4
41,0.7021484375,-0.50634765625,-0.1923828125,21.158536585365855,5.914634146341464,-3.8414634146341466,130,4
42,0.68115234375,-0.51171875,-0.18798828125,20.670731707317074,6.341463414634147,-2.5609756097560976,130,4
43,0.65673828125,-0.5107421875,-0.17626953125,17.378048780487806,9.390243902439025,-2.1951219512195124,130,4
44,0.65625,-0.5,-0.15234375,12.926829268292684,13.658536585365855,-1.524390243902439,130,4
45,0.65771484375,-0.49755859375,-0.15234375,6.7682926829268295,18.170731707317074,-0.24390243902439027,130,4
46,0.65673828125,-0.49658203125,-0.134765625,0.6097560975609757,22.500000000000004,0.9146341463414634,130,4
47,0.63818359375,-0.5068359375,-0.11572265625,-4.329268292682928,26.463414634146343,1.829268292682927,130,4
48,0.6318359375,-0.53271484375,-0.1044921875,-7.195121951219513,28.658536585365855,3.1707317073170733,130,4
49,0.6376953125,-0.54833984375,-0.10888671875,-8.048780487804878,28.719512195121954,3.9024390243902443,130,4
50,0.6337890625,-0.546875,-0.12158203125,-6.158536585365854,26.89024390243903,4.390243902439025,130,4
51,0.64111328125,-0.54345703125,-0.10791015625,-2.9268292682926833,23.902439024390247,5.060975609756098,130,4
52,0.64306640625,-0.5595703125,-0.1171875,0.48780487804878053,21.52439024390244,4.695121951219512,130,4
53,0.666015625,-0.54638671875,-0.12646484375,3.048780487804878,19.573170731707318,5.060975609756098,130,4
54,0.6650390625,-0.54931640625,-0.14794921875,3.231707317073171,18.231707317073173,5.548780487804878,130,4
55,0.67041015625,-0.53125,-0.1806640625,2.804878048780488,17.804878048780488,5.487804878048781,130,4
56,0.68896484375,-0.509765625,-0.177734375,15.426829268292684,20.731707317073173,5.7926829268292686,130,4
57,0.70361328125,-0.498046875,-0.1513671875,-6.463414634146342,25.853658536585368,5.914634146341464,130,4
58,0.69091796875,-0.51123046875,-0.1064453125,-14.26829268292683,32.743902439024396,6.097560975609756,130,4
59,0.68505859375,-0.52978515625,-0.08349609375,-21.585365853658537,37.19512195121951,5.914634146341464,130,4
60,0.6748046875,-0.52294921875,-0.04931640625,-25.670731707317074,39.268292682926834,5.670731707317073,130,4
61,0.6640625,-0.5205078125,-0.04443359375,-25.853658536585368,39.146341463414636,5.853658536585367,130,4
62,0.6669921875,-0.53271484375,-0.00732421875,-23.53658536585366,38.35365853658537,6.341463414634147,130,4
63,0.6552734375,-0.54052734375,0.0048828125,-22.31707317073171,36.951219512195124,6.585365853658537,130,4
64,0.66650390625,-0.52392578125,-0.015625,-17.5609756097561,34.268292682926834,7.25609756097561,130,4
65,0.69140625,-0.494140625,-0.05029296875,-14.695121951219514,46.524390243902445,8.048780487804878,130,4
66,0.71533203125,-0.470703125,-0.10791015625,-14.573170731707318,28.719512195121954,7.926829268292684,130,4
67,0.74609375,-0.4560546875,-0.15185546875,-17.012195121951223,29.32926829268293,6.463414634146342,130,4
68,0.76904296875,-0.4130859375,-0.14111328125,-20.48780487804878,15.79268292682927,3.9024390243902443,130,4
69,0.78271484375,-0.4326171875,-0.15625,-22.682926829268293,31.707317073170735,2.378048780487805,130,4
70,0.76513671875,-0.45849609375,-0.15576171875,-24.512195121951223,31.58536585365854,0.7926829268292683,130,4
71,0.7353515625,-0.482421875,-0.130859375,-24.634146341463417,31.280487804878053,-0.1829268292682927,130,4
72,0.7109375,-0.49462890625,-0.13330078125,-23.353658536585368,30.182926829268297,-0.48780487804878053,130,4
73,0.68896484375,-0.51611328125,-0.11376953125,-22.5609756097561,28.414634146341466,0.12195121951219513,130,4
74,0.69384765625,-0.49658203125,-0.0966796875,-20.731707317073173,27.012195121951223,0.6097560975609757,130,4
75,0.69189453125,-0.47412109375,-0.11181640625,-19.451219512195124,24.207317073170735,0.48780487804878053,130,4
76,0.70849609375,-0.43017578125,-0.12548828125,-18.53658536585366,23.170731707317074,-0.6707317073170732,130,4
77,0.7001953125,-0.416015625,-0.1572265625,-19.939024390243905,23.353658536585368,-2.0121951219512195,130,4
78,0.712890625,-0.39599609375,-0.15673828125,-22.926829268292686,24.26829268292683,-4.2682926829268295,130,4
79,0.7265625,-0.37646484375,-0.18017578125,-26.402439024390247,24.878048780487806,-6.219512195121951,130,4
80,0.7119140625,-0.39794921875,-0.1953125,-27.5609756097561,22.865853658536587,-7.500000000000001,130,4
81,0.70068359375,-0.4169921875,-0.20166015625,-26.09756097560976,20.243902439024392,-7.560975609756098,130,4
82,0.69775390625,-0.42626953125,-0.185546875,-23.658536585365855,17.98780487804878,-6.7682926829268295,130,4
83,0.7109375,-0.42333984375,-0.16650390625,-22.926829268292686,17.926829268292686,-6.646341463414635,130,4
84,0.7109375,-0.40234375,-0.16796875,-23.902439024390247,18.04878048780488,-6.646341463414635,130,4
85,0.701171875,-0.39306640625,-0.1796875,-27.500000000000004,19.085365853658537,-7.500000000000001,130,4
86,0.7158203125,-0.35791015625,-0.1953125,-16.097560975609756,20.48780487804878,-9.573170731707318,130,4
87,0.72216796875,-0.3466796875,-0.185546875,-37.13414634146342,22.073170731707318,-11.097560975609756,130,4
88,0.71630859375,-0.353515625,-0.22216796875,-40.670731707317074,22.25609756097561,-12.80487804878049,130,4
89,0.7265625,-0.3603515625,-0.212890625,-42.01219512195122,21.097560975609756,-14.146341463414636,130,4
90,0.72265625,-0.37158203125,-0.22216796875,-42.37804878048781,19.695121951219512,-14.695121951219514,130,4
91,0.7138671875,-0.388671875,-0.2392578125,-42.25609756097561,17.195121951219512,-15.487804878048783,130,4
92,0.71533203125,-0.380859375,-0.13427734375,-43.23170731707317,15.975609756097562,-16.951219512195124,130,4
93,0.71826171875,-0.36865234375,-0.240234375,-44.81707317073171,15.670731707317074,-18.353658536585368,130,4
94,0.72216796875,-0.38232421875,-0.22509765625,-48.35365853658537,16.28048780487805,-19.573170731707318,130,4
95,0.73046875,-0.36669921875,-0.21240234375,-52.07317073170732,17.25609756097561,-20.54878048780488,130,4
96,0.71923828125,-0.3603515625,-0.19482421875,-54.39024390243903,17.743902439024392,-21.646341463414636,130,4
97,0.71875,-0.3701171875,-0.20458984375,-57.19512195121952,18.04878048780488,-22.926829268292686,130,4
98,0.72216796875,-0.3642578125,-0.2109375,-59.93902439024391,18.53658536585366,-23.78048780487805,130,4
99,0.7265625,-0.357421875,-0.212890625,-62.25609756097562,17.439024390243905,-24.634146341463417,130,4
100,0.7265625,-0.25390625,-0.23486328125,-63.41463414634147,16.097560975609756,-25.365853658536587,130,4
101,0.7392578125,-0.3759765625,-0.2412109375,-64.08536585365854,14.878048780487806,-26.158536585365855,130,4
102,0.62548828125,-0.3662109375,-0.23779296875,-65.97560975609757,14.390243902439027,-27.195121951219516,130,4
103,0.76171875,-0.3447265625,-0.27685546875,-68.04878048780489,14.329268292682928,-28.780487804878053,130,4
104,0.767578125,-0.34130859375,-0.2431640625,-70.97560975609757,15.060975609756099,-30.182926829268297,130,4
105,0.76513671875,-0.3427734375,-0.2216796875,-73.65853658536587,15.487804878048783,-31.402439024390247,130,4
106,0.7666015625,-0.3466796875,-0.2119140625,-75.42682926829269,15.243902439024392,-32.19512195121951,130,4
107,0.86962890625,-0.361328125,-0.2197265625,-76.34146341463415,14.451219512195124,-33.41463414634146,130,4
108,0.87353515625,-0.35595703125,-0.21435546875,-77.19512195121952,13.719512195121952,-34.08536585365854,130,4
109,0.7568359375,-0.33935546875,-0.22802734375,-78.47560975609757,12.865853658536587,-34.51219512195122,130,4
110,0.75,-0.3583984375,-0.37255859375,-79.69512195121952,11.76829268292683,-35.426829268292686,130,4
111,0.765625,-0.34814453125,-0.271484375,-81.58536585365854,11.646341463414634,-36.707317073170735,130,4
112,0.78857421875,-0.3310546875,-0.2978515625,-84.45121951219512,13.109756097560977,-38.963414634146346,130,4
113,0.8115234375,-0.30859375,-0.29736328125,-89.93902439024392,15.487804878048783,-40.54878048780488,130,4
114,0.81982421875,-0.3115234375,-0.30322265625,-95.91463414634147,17.804878048780488,-42.743902439024396,130,4
115,0.80322265625,-0.31884765625,-0.2978515625,-101.64634146341464,20.426829268292686,-44.51219512195122,130,4
116,0.80419921875,-0.31005859375,-0.2685546875,-105.67073170731709,21.82926829268293,-46.28048780487805,130,4
117,0.81640625,-0.30126953125,-0.2529296875,-108.84146341463416,22.98780487804878,-47.6219512195122,130,4
118,0.79296875,-0.31982421875,-0.2529296875,-110.2439024390244,22.134146341463417,-48.47560975609756,130,4
119,0.7783203125,-0.3330078125,-0.251953125,-93.71951219512196,21.646341463414636,-49.75609756097561,130,4
120,0.77490234375,-0.33447265625,-0.28125,-108.78048780487806,19.573170731707318,-50.54878048780488,130,4
121,0.79296875,-0.30322265625,-0.28515625,-107.7439024390244,17.073170731707318,-52.01219512195122,130,4
122,0.828125,-0.26318359375,-0.2783203125,-110.1219512195122,17.378048780487806,-53.71951219512196,130,4
123,0.8408203125,-0.25634765625,-0.3154296875,-112.92682926829269,17.012195121951223,-55.243902439024396,130,4
124,0.83544921875,-0.259765625,-0.32421875,-114.39024390243904,16.219512195121954,-57.6219512195122,130,4
125,0.84130859375,-0.2568359375,-0.3037109375,-114.57317073170732,16.463414634146343,-59.87804878048781,130,4
126,0.8720703125,-0.25439453125,-0.30224609375,-115.48780487804879,17.25609756097561,-60.91463414634147,130,4
127,0.99609375,-0.23388671875,-0.31005859375,-119.63414634146342,18.658536585365855,-62.37804878048781,130,4
128,0.876953125,-0.22265625,-0.31396484375,-122.8658536585366,20.60975609756098,-64.32926829268293,130,4
129,0.876953125,-0.22998046875,-0.32275390625,-125.3048780487805,22.134146341463417,-66.34146341463415,130,4
130,0.90234375,-0.2275390625,-0.3037109375,-127.31707317073172,23.53658536585366,-68.04878048780489,130,4
131,0.9140625,-0.23486328125,-0.296875,-129.81707317073173,25.670731707317074,-70.1829268292683,130,4
132,0.91796875,-0.22216796875,-0.3056640625,-132.6219512195122,27.378048780487806,-72.5609756097561,130,4
133,0.9375,-0.2001953125,-0.29736328125,-133.1707317073171,27.682926829268297,-74.57317073170732,130,4
134,0.943359375,-0.2041015625,-0.29833984375,-133.59756097560978,26.951219512195124,-76.28048780487805,130,4
135,0.927734375,-0.220703125,-0.28955078125,-132.7439024390244,25.30487804878049,-78.04878048780489,130,4
136,0.94384765625,-0.19873046875,-0.31396484375,-131.70731707317074,23.719512195121954,-80.73170731707317,130,4
137,0.98974609375,-0.1455078125,-0.30615234375,-132.8658536585366,24.390243902439025,-84.08536585365854,130,4
138,1.02685546875,-0.12060546875,-0.318359375,-134.9390243902439,26.28048780487805,-87.25609756097562,130,4
139,1.0439453125,-0.091796875,-0.314453125,-138.65853658536585,28.902439024390247,-91.09756097560977,130,4
140,1.056640625,-0.07373046875,-0.30615234375,-144.02439024390245,32.25609756097561,-94.81707317073172,130,4
141,1.03271484375,-0.08740234375,-0.3125,-148.78048780487805,34.63414634146342,-97.07317073170732,130,4
142,1.00146484375,-0.11376953125,-0.296875,-151.89024390243904,37.31707317073171,-99.51219512195122,130,4
143,0.9921875,-0.12451171875,-0.2724609375,-150.91463414634148,37.987804878048784,-101.46341463414635,130,4
144,1.017578125,-0.09375,-0.27001953125,-147.9878048780488,37.07317073170732,-104.75609756097562,130,4
145,1.02685546875,-0.05908203125,-0.29833984375,-145.7926829268293,34.81707317073171,-108.23170731707317,130,4
146,1.0556640625,-0.00830078125,-0.33984375,-144.02439024390245,30.60975609756098,-111.89024390243904,130,4
147,1.08056640625,0.01806640625,-0.3544921875,-144.81707317073173,29.39024390243903,-116.95121951219514,130,4
148,1.1123046875,0.04150390625,-0.35888671875,-144.63414634146343,28.04878048780488,-120.67073170731709,130,4
149,1.140625,0.0703125,-0.35546875,-146.03658536585368,27.926829268292686,-124.14634146341464,130,4
150,1.14453125,0.09423828125,-0.35302734375,-146.64634146341464,28.658536585365855,-127.8048780487805,130,4
151,1.17626953125,0.10009765625,-0.3623046875,-148.2926829268293,30.60975609756098,-132.07317073170734,130,4
152,1.203125,0.130859375,-0.3583984375,-150.609756097561,32.25609756097561,-135.2439024390244,130,4
153,1.20654296875,0.13330078125,-0.32470703125,-152.07317073170734,33.170731707317074,-138.109756097561,130,4
154,1.21875,0.248046875,-0.35546875,-152.5,33.04878048780488,-141.64634146341464,130,4
155,1.21484375,0.13720703125,-0.345703125,-148.47560975609758,31.951219512195124,-146.03658536585368,130,4
156,1.23681640625,0.14013671875,-0.32177734375,-143.78048780487805,28.10975609756098,-148.65853658536588,130,4
157,1.28173828125,0.189453125,-0.3662109375,-139.26829268292684,25.731707317073173,-152.9878048780488,130,4
158,1.33544921875,0.23583984375,-0.357421875,-124.93902439024392,26.463414634146343,-157.7439024390244,130,4
159,1.349609375,0.21875,-0.37939453125,-144.39024390243904,27.5609756097561,-162.8048780487805,130,4
160,1.3671875,0.240234375,-0.34521484375,-144.26829268292684,28.353658536585368,-168.35365853658539,130,4
161,1.36865234375,0.220703125,-0.32958984375,-142.37804878048783,27.621951219512198,-173.1707317073171,130,4
162,1.37158203125,0.21044921875,-0.32275390625,-141.34146341463415,26.03658536585366,-178.1707317073171,130,4
163,1.349609375,0.20166015625,-0.32568359375,-140.609756097561,27.073170731707318,-181.70731707317074,130,4
164,1.3671875,0.21826171875,-0.2744140625,-137.37804878048783,26.219512195121954,-184.45121951219514,130,4
165,1.376953125,0.22802734375,-0.23974609375,-133.71951219512195,25.914634146341466,-186.64634146341464,130,4
166,1.39892578125,0.25390625,-0.2119140625,-131.52439024390245,25.0609756097561,-188.2926829268293,130,4
167,1.423828125,0.275390625,-0.18896484375,-129.26829268292684,23.658536585365855,-191.21951219512198,130,4
168,1.45703125,0.31201171875,-0.240234375,-127.13414634146342,21.707317073170735,-195.7926829268293,130,4
169,1.462890625,0.3212890625,-0.2490234375,-126.34146341463416,21.28048780487805,-199.63414634146343,130,4
170,1.50927734375,0.3154296875,-0.1923828125,-122.62195121951221,20.914634146341466,-203.65853658536588,130,4
171,1.55517578125,0.32080078125,-0.15576171875,-119.57317073170732,20.365853658536587,-207.9268292682927,130,4
172,1.5498046875,0.30078125,-0.1806640625,-120.60975609756099,22.31707317073171,-212.7439024390244,130,4
173,1.55078125,0.32861328125,-0.19384765625,-123.78048780487806,25.914634146341466,-217.43902439024393,130,4
174,1.5634765625,0.36572265625,-0.158203125,-129.26829268292684,32.37804878048781,-222.19512195121953,130,4
175,1.56884765625,0.36962890625,-0.0595703125,-135.91463414634148,38.29268292682927,-224.51219512195124,130,4
176,1.5087890625,0.29345703125,-0.04736328125,-142.01219512195124,44.146341463414636,-225.4268292682927,130,4
177,1.439453125,0.26513671875,-0.00634765625,-142.9878048780488,46.58536585365854,-226.52439024390245,130,4
178,1.3671875,0.2744140625,0.029296875,-138.35365853658539,45.426829268292686,-227.9878048780488,130,4
179,1.35009765625,0.29150390625,0.033203125,-130.1829268292683,42.6829268292683,-230.24390243902442,130,4
180,1.3388671875,0.28759765625,0.06884765625,-119.75609756097562,38.47560975609756,-233.65853658536588,130,4
181,1.31201171875,0.26953125,0.09228515625,-109.45121951219514,32.926829268292686,-235.91463414634148,130,4
182,1.2509765625,0.25537109375,0.1015625,-100.42682926829269,29.87804878048781,-237.9878048780488,130,4
183,1.2177734375,0.24560546875,0.0634765625,-96.09756097560977,27.682926829268297,-238.96341463414637,130,4
184,1.1513671875,0.373046875,0.06103515625,-94.26829268292684,28.292682926829272,-238.53658536585368,130,4
185,1.10302734375,0.27587890625,0.07763671875,-89.57317073170732,27.926829268292686,-236.28048780487808,130,4
186,1.08740234375,0.33056640625,0.06494140625,-83.35365853658537,26.646341463414636,-235.4878048780488,130,4
187,1.09619140625,0.49755859375,0.02294921875,-80.42682926829269,26.82926829268293,-234.75609756097563,130,4
188,1.0751953125,0.369140625,0.02685546875,-79.87804878048782,28.53658536585366,-234.93902439024393,130,4
189,1.06298828125,0.34765625,0.09814453125,-78.59756097560977,30.54878048780488,-235.5487804878049,130,4
190,1.05224609375,0.36181640625,0.14599609375,-77.25609756097562,33.78048780487805,-236.28048780487808,130,4
191,1.013671875,0.3544921875,0.11865234375,-80.3658536585366,37.13414634146342,-236.82926829268294,130,4
192,0.91357421875,0.32373046875,0.0751953125,-82.7439024390244,38.963414634146346,-237.13414634146343,130,4
193,0.8466796875,0.33251953125,0.0693359375,-80.0,39.51219512195122,-237.68292682926833,130,4
194,0.82177734375,0.33642578125,0.10791015625,-75.0609756097561,37.926829268292686,-237.25609756097563,130,4
195,0.81787109375,0.3203125,0.1171875,-72.13414634146342,37.37804878048781,-237.31707317073173,130,4
196,0.75537109375,0.2939453125,0.18408203125,-68.78048780487805,37.743902439024396,-237.56097560975613,130,4
197,0.71044921875,0.267578125,0.24365234375,-65.48780487804879,38.65853658536586,-237.50000000000003,130,4
198,0.67626953125,0.25,0.27001953125,-62.01219512195122,38.65853658536586,-237.68292682926833,130,4
199,0.65380859375,0.236328125,0.3203125,-59.75609756097562,38.59756097560976,-236.64634146341464,130,4
200,0.74072265625,0.1640625,0.298828125,-56.28048780487806,38.41463414634147,-234.81707317073173,130,4
201,0.55322265625,0.1142578125,0.30029296875,-47.25609756097561,34.69512195121951,-232.74390243902442,130,4
202,0.52197265625,0.04541015625,0.24609375,-33.41463414634146,28.292682926829272,-229.08536585365854,130,4
203,0.4609375,0.00048828125,0.19384765625,-22.073170731707318,22.134146341463417,-226.64634146341464,130,4
204,0.408203125,-0.0146484375,0.12890625,-14.451219512195124,16.82926829268293,-223.53658536585368,130,4
205,0.33056640625,-0.03955078125,0.1669921875,-9.634146341463415,12.682926829268293,-218.59756097560978,130,4
206,0.29150390625,-0.064453125,0.14013671875,-7.01219512195122,12.01219512195122,-215.4878048780488,130,4
207,0.21826171875,-0.095703125,0.3564453125,-8.963414634146343,13.109756097560977,-211.34146341463418,130,4
208,0.24951171875,-0.15869140625,0.40625,-13.719512195121952,15.975609756097562,-206.70731707317074,130,4
209,0.0341796875,-0.2451171875,0.43896484375,-17.5609756097561,17.134146341463417,-200.06097560975613,130,4
210,-0.04443359375,-0.30517578125,0.52197265625,-16.34146341463415,15.609756097560977,-191.70731707317074,130,4
211,-0.10791015625,-0.4013671875,0.548828125,-12.01219512195122,14.51219512195122,-182.9268292682927,130,4
212,-0.21142578125,-0.51513671875,0.56396484375,-5.975609756097562,12.926829268292684,-172.31707317073173,130,4
213,-0.33837890625,-0.6162109375,0.54296875,-2.1951219512195124,12.256097560975611,-160.85365853658539,130,4
214,-0.4453125,-0.6484375,0.54296875,1.9512195121951221,12.378048780487806,-148.109756097561,130,4
215,-0.52783203125,-0.68701171875,0.55908203125,1.829268292682927,15.30487804878049,-134.51219512195124,130,4
216,-0.58154296875,-0.71337890625,0.572265625,-1.5853658536585367,18.414634146341466,-122.01219512195124,130,4
217,-0.6552734375,-0.7763671875,0.59716796875,-5.914634146341464,24.02439024390244,-109.32926829268294,130,4
218,-0.73291015625,-0.8232421875,0.6201171875,-10.792682926829269,29.02439024390244,-93.96341463414635,130,4
219,-0.810546875,-0.91552734375,0.6103515625,-14.146341463414636,34.268292682926834,-93.17073170731707,130,4
220,-0.75732421875,-1.02197265625,0.6142578125,-13.414634146341465,36.40243902439025,-59.32926829268293,130,4
221,-0.9189453125,-1.11376953125,0.65966796875,-7.621951219512196,37.25609756097561,-42.19512195121951,130,4
222,-0.85498046875,-1.1171875,0.6796875,-15.30487804878049,37.5,-25.48780487804878,130,4
223,-0.81298828125,-1.17822265625,0.71484375,6.219512195121951,39.08536585365854,-6.7682926829268295,130,4
224,-0.7939453125,-1.205078125,0.74560546875,11.52439024390244,43.10975609756098,12.682926829268293,130,4
225,-0.7939453125,-1.267578125,0.87255859375,0.12195121951219513,46.09756097560976,35.30487804878049,130,4
226,-0.82763671875,-1.36767578125,0.75927734375,22.25609756097561,48.29268292682927,57.07317073170732,130,4
227,-0.86767578125,-1.39697265625,0.736328125,16.402439024390244,48.41463414634147,77.43902439024392,130,4
228,-0.69189453125,-1.46142578125,0.69482421875,43.65853658536586,48.35365853658537,98.41463414634147,130,4
229,-0.6201171875,-1.51953125,0.6064453125,53.65853658536586,47.86585365853659,120.12195121951221,130,4
230,-0.5771484375,-1.5654296875,0.5576171875,47.6829268292683,49.81707317073171,140.3048780487805,130,4
231,-0.4609375,-1.576171875,0.591796875,72.8048780487805,52.01219512195122,140.4878048780488,130,4
232,-0.3056640625,-1.54736328125,0.5927734375,79.81707317073172,54.81707317073171,170.91463414634148,130,4
233,-0.1904296875,-1.5859375,0.59912109375,85.67073170731707,59.75609756097562,171.95121951219514,130,4
234,-0.08349609375,-1.642578125,0.6005859375,89.87804878048782,64.39024390243902,188.65853658536588,130,4
235,0.03369140625,-1.64013671875,0.54541015625,96.89024390243904,67.5609756097561,223.78048780487808,130,4
236,0.17724609375,-1.787109375,0.54736328125,106.64634146341464,68.53658536585367,241.76829268292684,130,4
237,0.25,-1.80224609375,0.52490234375,114.69512195121952,71.34146341463415,261.5853658536586,130,4
238,0.53564453125,-1.89892578125,0.55029296875,118.41463414634147,76.64634146341464,284.1463414634147,130,4
239,0.66845703125,-2.0751953125,0.52783203125,118.17073170731709,83.65853658536587,308.9024390243903,130,4
240,0.767578125,-2.13037109375,0.54931640625,116.15853658536587,94.39024390243904,335.8536585365854,130,4
241,0.865234375,-2.4521484375,0.56396484375,113.78048780487806,103.78048780487806,368.5365853658537,130,4
242,0.94482421875,-2.6572265625,0.43408203125,124.57317073170732,110.1829268292683,410.6707317073171,130,4
243,1.05029296875,-3.21875,0.248046875,113.29268292682927,113.35365853658537,451.70731707317077,130,4
244,1.31201171875,-3.6083984375,0.10546875,113.84146341463416,113.71951219512196,490.7317073170732,130,4
245,1.79541015625,-3.9287109375,-0.02685546875,122.13414634146342,99.57317073170732,529.4512195121952,130,4
246,2.3388671875,-4.32763671875,-0.41162109375,136.64634146341464,74.39024390243902,568.719512195122,130,4
247,3.0576171875,-4.6728515625,-0.7939453125,157.43902439024393,52.31707317073171,606.829268292683,130,4
248,3.86279296875,-5.30126953125,-0.7744140625,222.19512195121953,50.426829268292686,633.5975609756098,130,4
249,4.5947265625,-5.98828125,-0.65380859375,312.9268292682927,83.41463414634147,661.0365853658537,130,4
250,5.306640625,-6.19580078125,-0.53369140625,385.00000000000006,116.89024390243904,695.9146341463415,130,4
251,6.23681640625,-6.0908203125,-1.17578125,407.43902439024396,139.63414634146343,737.7439024390245,130,4
252,6.90966796875,-5.89013671875,-2.2568359375,398.9024390243903,147.5609756097561,785.609756097561,130,4
253,7.82470703125,-5.8193359375,-2.970703125,409.75609756097566,148.59756097560978,826.0365853658537,130,4
254,9.09326171875,-5.439453125,-3.333984375,431.82926829268297,127.56097560975611,867.3780487804879,130,4
255,9.9248046875,-5.033203125,-3.9765625,462.56097560975616,116.09756097560977,904.939024390244,130,4
256,10.72314453125,-4.37841796875,-4.6962890625,474.51219512195127,93.65853658536587,933.2926829268293,130,4
257,11.32373046875,-3.5048828125,-5.46875,514.7560975609756,50.00000000000001,940.9756097560977,130,4
258,11.8173828125,-3.2216796875,-6.2099609375,601.2804878048781,1.524390243902439,951.2804878048781,130,4
259,11.29638671875,-2.85400390625,-6.6259765625,696.6463414634147,-65.97560975609757,893.1097560975611,130,4
260,10.5009765625,-2.818359375,-6.80859375,804.8780487804879,-191.58536585365854,831.0365853658537,130,4
261,9.8017578125,-3.02978515625,-6.482421875,955.3658536585367,-354.57317073170736,776.9512195121952,130,4
262,8.263671875,-4.1611328125,-6.44287109375,1153.2926829268295,-533.9024390243903,655.9146341463415,130,4
263,6.888671875,-4.59814453125,-8.4619140625,1270.9146341463415,-786.6463414634147,795.2439024390245,130,4
264,8.37353515625,-13.5,-8.6240234375,1372.9268292682927,163.2317073170732,-213.65853658536588,130,4
265,13.462890625,8.9013671875,-1.42333984375,1025.9146341463415,-253.84146341463418,27.134146341463417,130,4
266,9.3798828125,3.40869140625,-13.626953125,923.2317073170733,-612.0121951219513,-143.96341463414635,130,4
267,5.5537109375,-6.1103515625,-6.5693359375,1204.329268292683,-77.8048780487805,-96.21951219512196,130,4
268,9.154296875,5.57177734375,3.92919921875,795.7317073170732,-110.60975609756099,-213.59756097560978,130,4
269,-0.8779296875,-4.91064453125,-5.306640625,1072.0731707317075,-148.53658536585368,-387.62195121951225,130,4
270,6.8818359375,2.15576171875,-0.30712890625,864.2682926829269,-289.51219512195127,-460.18292682926835,130,4
271,5.26953125,-0.49658203125,-2.90673828125,818.3536585365854,-201.03658536585368,-529.1463414634147,130,4
272,3.38330078125,-0.4365234375,-3.40234375,778.1707317073171,-91.58536585365854,-589.0243902439025,130,4
273,4.06640625,-0.888671875,-2.63232421875,664.8780487804879,-114.14634146341464,-644.2682926829269,130,4
274,2.8701171875,-1.8154296875,-2.97265625,555.6707317073171,-142.31707317073173,-715.3658536585366,130,4
275,2.2587890625,-1.58154296875,-2.81591796875,435.7926829268293,-84.02439024390245,-716.6463414634147,130,4
276,0.87890625,-2.025390625,-1.72216796875,338.109756097561,-23.902439024390247,-704.6341463414635,130,4
277,0.02978515625,-2.1416015625,-0.80126953125,260.9146341463415,58.29268292682927,-692.0731707317074,130,4
278,0.3916015625,-1.63720703125,-0.55419921875,226.95121951219514,119.32926829268294,-695.3658536585366,130,4
279,1.02392578125,-0.75048828125,-0.76904296875,216.76829268292684,148.90243902439025,-707.3170731707318,130,4
280,1.8583984375,-0.2607421875,-1.1962890625,218.0487804878049,180.1219512195122,-702.5000000000001,130,4
281,2.615234375,-0.14697265625,-1.05029296875,174.08536585365854,206.82926829268294,-700.609756097561,130,4
282,3.02734375,-0.50390625,-0.896484375,130.7926829268293,223.109756097561,-708.109756097561,130,4
283,3.46240234375,-0.93359375,-0.67041015625,69.08536585365854,214.45121951219514,-702.9268292682927,130,4
284,3.2451171875,-1.03173828125,-0.736328125,-8.597560975609756,221.52439024390245,-676.219512195122,130,4
285,2.970703125,-1.0009765625,-0.49853515625,-67.31707317073172,245.3658536585366,-654.0243902439025,130,4
286,2.68701171875,-1.19970703125,-0.5703125,-168.84146341463415,260.9756097560976,-608.109756097561,130,4
287,2.2685546875,-1.4755859375,-0.9658203125,-219.69512195121953,276.5243902439025,-554.939024390244,130,4
288,1.9609375,-1.4091796875,-0.8701171875,-274.8780487804878,288.719512195122,-544.329268292683,130,4
289,1.66357421875,-1.4091796875,-0.716796875,-284.45121951219517,292.3780487804878,-500.18292682926835,130,4
290,1.2744140625,-1.4638671875,-0.42724609375,-253.65853658536588,297.07317073170736,-472.50000000000006,130,4
291,1.31982421875,-1.0478515625,-0.59619140625,-236.09756097560978,297.9268292682927,-468.2317073170732,130,4
292,1.541015625,-0.7666015625,-0.755859375,-227.68292682926833,301.5853658536586,-429.0243902439025,130,4
293,1.5556640625,-0.7685546875,-1.0478515625,-227.43902439024393,309.45121951219517,-394.57317073170736,130,4
294,1.33251953125,-0.9326171875,-1.2763671875,-241.58536585365854,317.6829268292683,-372.50000000000006,130,4
295,0.9990234375,-1.11279296875,-1.34375,-247.25609756097563,314.81707317073176,-329.45121951219517,130,4
296,0.76513671875,-0.912109375,-1.3359375,-238.71951219512198,310.9146341463415,-306.70731707317077,130,4
297,0.6142578125,-0.72216796875,-1.07470703125,-240.3658536585366,308.109756097561,-288.5365853658537,130,4
298,0.2568359375,-0.57421875,-0.94873046875,-247.31707317073173,308.719512195122,-279.45121951219517,130,4
299,0.12109375,-0.56103515625,-0.8857421875,-241.70731707317074,286.1585365853659,-271.6463414634147,130,4
300,0.29443359375,-0.15478515625,-1.12841796875,-237.62195121951223,277.9268292682927,-257.2560975609756,130,4
301,0.29443359375,-0.23486328125,-1.28369140625,-241.95121951219514,265.6707317073171,-239.63414634146343,130,4
302,0.16064453125,-0.36376953125,-1.26513671875,-261.4634146341464,261.4024390243903,-225.4878048780488,130,4
303,-0.01416015625,-0.279296875,-1.2763671875,-279.63414634146346,253.41463414634148,-211.03658536585368,130,4
304,-0.0048828125,-0.5087890625,-0.916015625,-252.01219512195124,229.69512195121953,-194.26829268292684,130,4
305,-0.28662109375,-0.4140625,-0.91845703125,-245.85365853658539,214.75609756097563,-176.76829268292684,130,4
306,-0.5341796875,-0.3359375,-0.82958984375,-237.50000000000003,217.8048780487805,-166.52439024390245,130,4
307,-0.62060546875,-0.25048828125,-0.86279296875,-238.2317073170732,190.6707317073171,-157.9878048780488,130,4
308,-0.71826171875,-0.16064453125,-0.6923828125,-231.70731707317074,181.89024390243904,-149.39024390243904,130,4
309,-0.81005859375,-0.1552734375,-0.642578125,-229.69512195121953,169.14634146341464,-155.4268292682927,130,4
310,-0.83740234375,-0.13525390625,-0.89111328125,-224.63414634146343,156.82926829268294,-128.84146341463415,130,4
311,-0.93408203125,-0.33251953125,-0.90234375,-214.02439024390245,146.64634146341464,-112.6829268292683,130,4
312,-1.11572265625,-0.43896484375,-0.75439453125,-199.08536585365854,135.5487804878049,-97.7439024390244,130,4
313,-1.2080078125,-0.451171875,-0.7470703125,-190.06097560975613,132.19512195121953,-84.26829268292684,130,4
314,-1.14208984375,-0.29931640625,-0.8740234375,-180.6707317073171,129.32926829268294,-73.10975609756098,130,4
315,-1.05419921875,-0.16259765625,-0.7412109375,-175.6707317073171,122.92682926829269,-64.45121951219512,130,4
316,-0.98828125,-0.02392578125,-0.77734375,-164.81707317073173,124.20731707317074,-57.6829268292683,130,4
317,-1.01904296875,-0.00732421875,-0.8076171875,-171.70731707317074,96.34146341463415,-54.146341463414636,130,4
318,-1.1015625,-0.0146484375,-0.80322265625,-145.3048780487805,78.10975609756099,-48.47560975609756,130,4
319,-1.2158203125,-0.138671875,-0.76806640625,-136.34146341463415,67.19512195121952,-42.25609756097561,130,4
320,-1.38818359375,-0.1513671875,-0.720703125,-130.7317073170732,56.03658536585366,-40.670731707317074,130,4
321,-1.38720703125,-0.396484375,-0.7646484375,-122.25609756097562,47.01219512195122,-38.41463414634147,130,4
322,-1.2734375,-0.30810546875,-0.6845703125,-105.60975609756099,35.30487804878049,-33.53658536585366,130,4
323,-1.2783203125,-0.28076171875,-0.6162109375,-94.81707317073172,26.82926829268293,-25.243902439024392,130,4
324,-1.283203125,-0.24658203125,-0.625,-87.50000000000001,21.646341463414636,-18.170731707317074,130,4
325,-1.29150390625,-0.24462890625,-0.6337890625,-79.81707317073172,17.98780487804878,-7.378048780487806,130,4
326,-1.33984375,-0.3203125,-0.68701171875,-71.09756097560977,12.74390243902439,2.804878048780488,130,4
327,-1.39453125,-0.3974609375,-0.6494140625,-61.463414634146346,8.658536585365855,10.792682926829269,130,4
328,-1.44140625,-0.39892578125,-0.60107421875,-52.804878048780495,0.48780487804878053,18.963414634146343,130,4
329,-1.42529296875,-0.3876953125,-0.5927734375,-43.41463414634147,-7.134146341463415,25.60975609756098,130,4
330,-1.3369140625,-0.34033203125,-0.56689453125,-33.71951219512196,-15.30487804878049,32.31707317073171,130,4
331,-1.3662109375,-0.28564453125,-0.5166015625,-25.182926829268293,-23.78048780487805,37.13414634146342,130,4
332,-1.1728515625,-0.1806640625,-0.47509765625,-18.353658536585368,-30.792682926829272,40.243902439024396,130,4
333,-1.12646484375,-0.10888671875,-0.4248046875,-14.451219512195124,-37.86585365853659,41.951219512195124,130,4
334,-1.1025390625,-0.03564453125,-0.41455078125,-8.719512195121952,-43.84146341463415,42.5609756097561,130,4
335,-1.07470703125,-0.0244140625,-0.384765625,-3.780487804878049,-49.63414634146342,42.01219512195122,130,4
336,-1.0341796875,-0.00927734375,-0.40087890625,1.1585365853658538,-54.87804878048781,39.63414634146342,130,4
337,-1.01220703125,-0.12451171875,-0.38525390625,6.2804878048780495,-59.51219512195122,37.86585365853659,130,4
338,-1.0224609375,-0.01025390625,-0.32666015625,10.0,-65.1829268292683,37.31707317073171,130,4
339,-1.04248046875,-0.02783203125,-0.2900390625,12.500000000000002,-70.79268292682927,37.5609756097561,130,4
340,-1.0693359375,-0.0498046875,-0.3662109375,16.158536585365855,-75.42682926829269,38.53658536585366,130,4
341,-1.07080078125,-0.03271484375,-0.21533203125,19.02439024390244,-81.09756097560977,41.15853658536586,130,4
342,-1.06689453125,-0.00439453125,-0.22119140625,21.463414634146343,-85.79268292682927,44.32926829268293,130,4
343,-1.0732421875,0.01025390625,-0.2119140625,23.170731707317074,-91.70731707317074,47.743902439024396,130,4
344,-1.072265625,0.033203125,-0.21142578125,26.463414634146343,-98.59756097560977,50.36585365853659,130,4
345,-1.07421875,0.04541015625,-0.18994140625,28.902439024390247,-103.17073170731709,51.34146341463415,130,4
346,-1.06201171875,0.06298828125,-0.162109375,30.121951219512198,-106.15853658536587,52.43902439024391,130,4
347,-1.02880859375,0.08447265625,-0.12451171875,30.365853658536587,-109.20731707317074,52.987804878048784,130,4
348,-0.9951171875,0.0888671875,-0.0791015625,32.5,-114.20731707317074,53.90243902439025,130,4
349,-0.962890625,0.10107421875,-0.0185546875,37.13414634146342,-119.32926829268294,54.75609756097561,130,4
350,-0.9140625,0.099609375,0.05029296875,42.6219512195122,-124.87804878048782,55.1219512195122,130,4
351,-0.85791015625,0.11669921875,0.0859375,48.78048780487805,-131.09756097560978,54.63414634146342,130,4
352,-0.80908203125,0.12109375,0.11474609375,52.37804878048781,-135.609756097561,53.59756097560976,130,4
353,-0.7705078125,0.12255859375,0.18115234375,51.28048780487806,-137.8048780487805,52.13414634146342,130,4
354,-0.716796875,0.13818359375,0.1875,48.71951219512196,-139.08536585365854,50.304878048780495,130,4
355,-0.7109375,0.1474609375,0.20361328125,46.03658536585366,-140.4268292682927,49.268292682926834,130,4
356,-0.73095703125,0.13232421875,0.23974609375,46.58536585365854,-142.01219512195124,49.69512195121952,130,4
357,-0.75830078125,0.11328125,0.30517578125,49.57317073170732,-142.9878048780488,50.426829268292686,130,4
358,-0.77197265625,0.12255859375,0.3671875,53.59756097560976,-142.7439024390244,51.585365853658544,130,4
359,-0.76806640625,0.13232421875,0.419921875,56.951219512195124,-141.52439024390245,53.53658536585366,130,4
360,-0.765625,0.17138671875,0.46728515625,58.963414634146346,-139.39024390243904,55.67073170731708,130,4
361,-0.7568359375,0.189453125,0.462890625,58.23170731707317,-136.28048780487805,57.6829268292683,130,4
362,-0.7333984375,0.208984375,0.46826171875,59.51219512195122,-135.3048780487805,59.51219512195122,130,4
363,-0.72314453125,0.22412109375,0.45361328125,62.25609756097562,-136.21951219512195,60.426829268292686,130,4
364,-0.71630859375,0.25634765625,0.466796875,65.97560975609757,-137.9268292682927,60.426829268292686,130,4
365,-0.69580078125,0.27587890625,0.4990234375,66.76829268292684,-138.84146341463415,60.73170731707317,130,4
366,-0.6875,0.306640625,0.49755859375,65.60975609756098,-137.5609756097561,60.54878048780488,130,4
367,-0.65673828125,0.34619140625,0.474609375,77.7439024390244,-135.91463414634148,60.487804878048784,130,4
368,-0.6416015625,0.369140625,0.525390625,59.87804878048781,-135.609756097561,60.60975609756098,130,4
369,-0.64697265625,0.36669921875,0.58154296875,58.78048780487806,-134.45121951219514,61.524390243902445,130,4
370,-0.6630859375,0.33154296875,0.638671875,58.90243902439025,-131.82926829268294,61.585365853658544,130,4
371,-0.662109375,0.3505859375,0.68212890625,60.60975609756098,-129.26829268292684,61.34146341463415,130,4
372,-0.6552734375,0.3447265625,0.669921875,63.23170731707317,-127.98780487804879,62.25609756097562,130,4
373,-0.650390625,0.3671875,0.6474609375,66.89024390243902,-126.46341463414635,63.10975609756098,130,4
374,-0.61376953125,0.404296875,0.6328125,71.70731707317074,-126.03658536585367,63.59756097560976,130,4
375,-0.578125,0.44287109375,0.60986328125,74.02439024390245,-124.39024390243904,63.59756097560976,130,4
376,-0.54150390625,0.47802734375,0.58447265625,70.0,-120.42682926829269,63.17073170731708,130,4
377,-0.52685546875,0.529296875,0.57763671875,63.35365853658537,-116.09756097560977,62.560975609756106,130,4
378,-0.49365234375,0.58642578125,0.57958984375,57.13414634146342,-112.19512195121952,62.01219512195122,130,4
379,-0.48291015625,0.57080078125,0.57666015625,53.78048780487806,-111.82926829268294,62.37804878048781,130,4
380,-0.46728515625,0.5556640625,0.56689453125,53.90243902439025,-115.3658536585366,62.6219512195122,130,4
381,-0.50537109375,0.513671875,0.6240234375,54.93902439024391,-117.13414634146342,62.07317073170732,130,4
382,-0.53466796875,0.4599609375,0.65087890625,56.524390243902445,-116.03658536585367,60.73170731707317,130,4
383,-0.53173828125,0.48095703125,0.708984375,55.79268292682927,-111.28048780487806,59.93902439024391,130,4
384,-0.4931640625,0.50732421875,0.6279296875,53.71951219512196,-105.42682926829269,60.60975609756098,130,4
385,-0.46728515625,0.53564453125,0.76416015625,51.28048780487806,-98.23170731707317,61.524390243902445,130,4
386,-0.44482421875,0.55078125,0.8701171875,50.97560975609756,-94.26829268292684,63.59756097560976,130,4
387,-0.43798828125,0.53369140625,0.697265625,53.35365853658537,-93.10975609756099,64.9390243902439,130,4
388,-0.42724609375,0.54248046875,0.6279296875,58.41463414634147,-95.3048780487805,66.21951219512195,130,4
389,-0.43603515625,0.55517578125,0.57373046875,65.0609756097561,-100.1829268292683,68.10975609756098,130,4
390,-0.43359375,0.55517578125,0.5185546875,68.65853658536587,-102.6829268292683,68.96341463414635,130,4
391,-0.40771484375,0.5859375,0.50439453125,67.5609756097561,-103.35365853658537,69.63414634146342,130,4
392,-0.36669921875,0.61669921875,0.51904296875,60.91463414634147,-101.09756097560977,70.2439024390244,130,4
393,-0.30859375,0.66845703125,0.5712890625,52.01219512195122,-98.17073170731709,70.54878048780489,130,4
394,-0.27978515625,0.669921875,0.638671875,43.41463414634147,-109.02439024390245,70.79268292682927,130,4
395,-0.267578125,0.67236328125,0.68701171875,38.10975609756098,-90.97560975609757,70.1219512195122,130,4
396,-0.27880859375,0.64697265625,0.72021484375,36.34146341463415,-90.91463414634147,69.20731707317074,130,4
397,-0.296875,0.60302734375,0.7373046875,37.5609756097561,-91.15853658536587,68.17073170731707,130,4
398,-0.28515625,0.60986328125,0.7431640625,41.03658536585366,-92.6219512195122,68.10975609756098,130,4
399,-0.27294921875,0.59521484375,0.7001953125,46.09756097560976,-95.1219512195122,68.78048780487805,130,4
400,-0.2626953125,0.56982421875,0.66064453125,48.59756097560976,-95.2439024390244,68.90243902439025,130,4
401,-0.24609375,0.5703125,0.6357421875,46.82926829268293,-109.26829268292684,69.08536585365854,130,4
402,-0.193359375,0.63623046875,0.61572265625,43.170731707317074,-89.69512195121952,68.41463414634147,130,4
403,-0.14892578125,0.69482421875,0.5927734375,39.08536585365854,-85.79268292682927,68.90243902439025,130,4
404,-0.11474609375,0.7236328125,0.58154296875,35.243902439024396,-84.26829268292684,68.53658536585367,130,4
405,-0.0966796875,0.7451171875,0.59033203125,32.43902439024391,-85.42682926829269,67.8048780487805,130,4
406,-0.09765625,0.72802734375,0.62255859375,30.853658536585368,-86.21951219512196,66.52439024390245,130,4
407,-0.0859375,0.712890625,0.666015625,27.865853658536587,-85.79268292682927,65.1219512195122,130,4
408,-0.08837890625,0.68701171875,0.6923828125,25.670731707317074,-84.08536585365854,63.65853658536586,130,4
409,-0.087890625,0.677734375,0.7099609375,25.182926829268293,-84.51219512195122,62.19512195121952,130,4
410,-0.1005859375,0.65576171875,0.7236328125,26.219512195121954,-83.96341463414635,61.03658536585366,130,4
411,-0.12158203125,0.64453125,0.66552734375,26.707317073170735,-82.98780487804879,59.93902439024391,130,4
412,-0.1044921875,0.63525390625,0.65673828125,25.731707317073173,-79.57317073170732,60.060975609756106,130,4
413,-0.072265625,0.6435546875,0.6591796875,23.414634146341466,-75.1829268292683,60.304878048780495,130,4
414,-0.0361328125,0.671875,0.59619140625,22.134146341463417,-74.20731707317074,61.09756097560976,130,4
415,-0.01708984375,0.7060546875,0.57568359375,23.29268292682927,-74.69512195121952,61.40243902439025,130,4
416,0.01123046875,0.7099609375,0.5693359375,26.76829268292683,-77.5,61.646341463414636,130,4
417,0.04736328125,0.70556640625,0.5849609375,30.853658536585368,-82.13414634146342,62.31707317073171,130,4
418,0.0400390625,0.65771484375,0.5478515625,33.23170731707317,-86.03658536585367,61.585365853658544,130,4
419,0.0478515625,0.650390625,0.564453125,32.5609756097561,-85.73170731707317,58.53658536585366,130,4
420,0.05517578125,0.666015625,0.58740234375,28.658536585365855,-83.65853658536587,57.25609756097561,130,4
421,0.087890625,0.69921875,0.642578125,25.426829268292686,-80.2439024390244,56.646341463414636,130,4
422,0.08251953125,0.6767578125,0.68359375,22.5609756097561,-75.60975609756098,56.463414634146346,130,4
423,0.06005859375,0.74267578125,0.69482421875,24.02439024390244,-71.89024390243902,57.6219512195122,130,4
424,0.05078125,0.5693359375,0.6826171875,28.292682926829272,-70.0,59.32926829268293,130,4
425,0.06201171875,0.55078125,0.654296875,35.30487804878049,-70.73170731707317,61.463414634146346,130,4
426,0.08349609375,0.5380859375,0.56640625,42.743902439024396,-71.95121951219512,62.743902439024396,130,4
427,0.1259765625,0.5654296875,0.46826171875,47.804878048780495,-74.20731707317074,63.65853658536586,130,4
428,0.1611328125,0.55810546875,0.38037109375,46.40243902439025,-74.51219512195122,62.926829268292686,130,4
429,0.23974609375,0.64208984375,0.3935546875,39.87804878048781,-73.29268292682927,46.82926829268293,130,4
430,0.2724609375,0.6640625,0.36376953125,31.951219512195124,-72.19512195121952,62.926829268292686,130,4
431,0.30322265625,0.6923828125,0.3359375,25.914634146341466,-72.25609756097562,62.6219512195122,130,4
432,0.2890625,0.67724609375,0.35498046875,24.207317073170735,-75.1829268292683,61.21951219512196,130,4
433,0.28515625,0.65673828125,0.44091796875,25.60975609756098,-78.53658536585367,60.97560975609757,130,4
434,0.26513671875,0.619140625,0.46630859375,26.76829268292683,-80.0609756097561,60.73170731707317,130,4
435,0.232421875,0.5791015625,0.5146484375,27.25609756097561,-79.20731707317074,60.00000000000001,130,4
436,0.205078125,0.5673828125,0.5107421875,28.231707317073173,-77.31707317073172,59.93902439024391,130,4
437,0.197265625,0.5703125,0.5078125,28.84146341463415,-74.63414634146342,60.91463414634147,130,4
438,0.2119140625,0.56396484375,0.4736328125,27.926829268292686,-70.91463414634147,63.04878048780488,130,4
439,0.22705078125,0.580078125,0.4384765625,26.76829268292683,-68.78048780487805,65.0,130,4
440,0.2587890625,0.58203125,0.3544921875,25.121951219512198,-67.98780487804879,67.07317073170732,130,4
441,0.27880859375,0.5966796875,0.3271484375,24.451219512195124,-69.69512195121952,69.20731707317074,130,4
442,0.3076171875,0.61083984375,0.3173828125,24.939024390243905,-73.71951219512195,70.54878048780489,130,4
443,0.32373046875,0.6396484375,0.36962890625,24.75609756097561,-77.37804878048782,71.52439024390245,130,4
444,0.31640625,0.6533203125,0.42822265625,23.719512195121954,-78.23170731707317,72.6829268292683,130,4
445,0.28857421875,0.6728515625,0.466796875,20.60975609756098,-76.40243902439025,72.37804878048782,130,4
446,0.31591796875,0.71240234375,0.431640625,15.243902439024392,-74.20731707317074,72.37804878048782,130,4
447,0.32861328125,0.71337890625,0.39697265625,12.74390243902439,-73.96341463414635,72.92682926829269,130,4
448,0.35400390625,0.7177734375,0.25048828125,12.378048780487806,-75.1219512195122,73.17073170731707,130,4
449,0.3681640625,0.70166015625,0.37939453125,13.719512195121952,-75.91463414634147,73.17073170731707,130,4
450,0.39599609375,0.70751953125,0.41162109375,16.951219512195124,-76.21951219512196,72.31707317073172,130,4
451,0.4248046875,0.7080078125,0.44091796875,20.79268292682927,-76.28048780487805,71.28048780487805,130,4
452,0.43798828125,0.7021484375,0.447265625,24.573170731707318,-75.54878048780489,69.75609756097562,130,4
453,0.4453125,0.69482421875,0.42529296875,24.26829268292683,-72.07317073170732,66.58536585365854,130,4
454,0.48486328125,0.70849609375,0.40087890625,23.04878048780488,-69.57317073170732,63.53658536585366,130,4
455,0.505859375,0.71240234375,0.39111328125,20.731707317073173,-66.58536585365854,60.73170731707317,130,4
456,0.51953125,0.7109375,0.25244140625,19.75609756097561,-63.53658536585366,58.84146341463415,130,4
457,0.4951171875,0.6875,0.388671875,19.146341463414636,-60.73170731707317,57.743902439024396,130,4
458,0.46435546875,0.6630859375,0.25146484375,19.75609756097561,-58.29268292682927,56.34146341463415,130,4
459,0.44970703125,0.67041015625,0.353515625,21.646341463414636,-56.03658536585366,54.87804878048781,130,4
460,0.4580078125,0.697265625,0.25732421875,24.02439024390244,-55.67073170731708,54.146341463414636,130,4
461,0.4697265625,0.7041015625,0.365234375,25.731707317073173,-54.93902439024391,53.47560975609757,130,4
462,0.4755859375,0.71240234375,0.37158203125,25.731707317073173,-54.146341463414636,52.01219512195122,130,4
463,0.49755859375,0.7177734375,0.3447265625,25.182926829268293,-52.804878048780495,50.1829268292683,130,4
464,0.52587890625,0.728515625,0.3349609375,24.75609756097561,-51.646341463414636,47.6829268292683,130,4
465,0.5390625,0.73974609375,0.33935546875,25.54878048780488,-51.28048780487806,44.93902439024391,130,4
466,0.54345703125,0.7333984375,0.33056640625,25.792682926829272,-50.243902439024396,43.10975609756098,130,4
467,0.52685546875,0.71240234375,0.30029296875,25.243902439024392,-48.23170731707317,40.73170731707317,130,4
468,0.52490234375,0.69677734375,0.27880859375,24.451219512195124,-45.79268292682927,38.170731707317074,130,4
469,0.5166015625,0.705078125,0.27392578125,23.53658536585366,-43.47560975609756,35.85365853658537,130,4
470,0.548828125,0.7158203125,0.2578125,21.707317073170735,-40.97560975609756,33.963414634146346,130,4
471,0.56494140625,0.71337890625,0.26220703125,19.634146341463417,-38.78048780487805,31.76829268292683,130,4
472,0.56640625,0.71142578125,0.27392578125,18.719512195121954,-35.79268292682927,28.902439024390247,130,4
473,0.58349609375,0.6982421875,0.2568359375,17.25609756097561,-32.6219512195122,25.60975609756098,130,4
474,0.599609375,0.6875,0.25146484375,17.134146341463417,-31.219512195121954,22.682926829268293,130,4
475,0.59326171875,0.66748046875,0.232421875,18.597560975609756,-31.34146341463415,19.146341463414636,130,4
476,0.57275390625,0.642578125,0.2099609375,21.219512195121954,-32.13414634146342,15.914634146341465,130,4
477,0.57568359375,0.626953125,0.19873046875,21.646341463414636,-30.853658536585368,11.951219512195124,130,4
478,0.58447265625,0.63330078125,0.1875,19.207317073170735,-27.743902439024392,8.902439024390244,130,4
479,0.59423828125,0.6376953125,0.1806640625,15.731707317073171,-24.573170731707318,6.829268292682928,130,4
480,0.59130859375,0.6298828125,0.18701171875,13.597560975609758,-22.073170731707318,4.878048780487806,130,4
481,0.5595703125,0.60107421875,0.18798828125,13.29268292682927,-20.79268292682927,3.7195121951219514,130,4
482,0.52587890625,0.56787109375,0.19677734375,14.329268292682928,-19.451219512195124,2.1341463414634148,130,4
483,0.537109375,0.57080078125,0.2158203125,15.365853658536587,-18.353658536585368,0.6097560975609757,130,4
484,0.53515625,0.5732421875,0.19775390625,14.451219512195124,-16.28048780487805,0.12195121951219513,130,4
485,0.5419921875,0.56591796875,0.18505859375,12.987804878048781,-13.78048780487805,-1.0365853658536586,130,4
486,0.541015625,0.56103515625,0.1845703125,10.30487804878049,-11.707317073170733,-1.402439024390244,130,4
487,0.5341796875,0.53759765625,0.16943359375,8.719512195121952,-9.756097560975611,-1.5853658536585367,130,4
488,0.5205078125,0.5146484375,0.16259765625,8.414634146341465,-8.658536585365855,-1.6463414634146343,130,4
489,0.51708984375,0.50048828125,0.1484375,8.658536585365855,-7.987804878048781,-2.1951219512195124,130,4
490,0.53759765625,0.498046875,0.14697265625,8.597560975609756,-6.951219512195123,-2.1341463414634148,130,4
491,0.54248046875,0.49609375,0.1474609375,7.317073170731708,-5.365853658536586,-2.1951219512195124,130,4
492,0.537109375,0.48779296875,0.15771484375,4.451219512195122,-2.7439024390243905,-2.439024390243903,130,4
493,0.5546875,0.51123046875,0.1484375,0.9756097560975611,0.6097560975609757,-3.1097560975609757,130,4
494,0.578125,0.5224609375,0.16943359375,-1.829268292682927,3.963414634146342,-3.414634146341464,130,4
495,0.5810546875,0.53125,0.1767578125,-3.536585365853659,5.2439024390243905,-3.414634146341464,130,4
496,0.57373046875,0.52685546875,0.12646484375,-3.4756097560975614,4.51219512195122,-3.963414634146342,130,4
497,0.568359375,0.4765625,0.09130859375,-0.9756097560975611,1.5853658536585367,-4.817073170731708,130,4
498,0.560546875,0.45947265625,0.06494140625,1.8902439024390245,-1.524390243902439,-6.158536585365854,130,4
499,0.58447265625,0.48486328125,0.0791015625,2.439024390243903,-2.25609756097561,-6.219512195121951,130,4
