,Ax,Ay,Az,Gx,Gy,Gz,distance,shot_type
0,0.56103515625,-0.748046875,-0.34716796875,0.9146341463414634,8.719512195121952,0.0,120,4
1,0.56884765625,-0.87109375,-0.3740234375,2.25609756097561,6.707317073170732,1.0365853658536586,120,4
2,0.6044921875,-0.73046875,-0.41357421875,2.682926829268293,6.036585365853659,2.25609756097561,120,4
3,0.578125,-0.75244140625,-0.40185546875,0.9756097560975611,7.439024390243903,2.6219512195121952,120,4
4,0.57275390625,-0.70947265625,-0.37939453125,-2.378048780487805,9.51219512195122,2.682926829268293,120,4
5,0.58349609375,-0.6748046875,-0.39013671875,-4.146341463414634,9.26829268292683,2.5609756097560976,120,4
6,0.607421875,-0.6279296875,-0.37646484375,-4.634146341463415,8.414634146341465,2.804878048780488,120,4
7,0.60107421875,-0.63818359375,-0.3740234375,-6.890243902439025,8.353658536585366,4.207317073170732,120,4
8,0.552734375,-0.6708984375,-0.35986328125,-6.646341463414635,7.500000000000001,5.426829268292684,120,4
9,0.53466796875,-0.66943359375,-0.34619140625,-3.8414634146341466,5.0,6.219512195121951,120,4
10,0.5478515625,-0.65771484375,-0.35009765625,-0.426829268292683,2.25609756097561,7.682926829268293,120,4
11,0.5400390625,-0.6552734375,-0.3662109375,2.439024390243903,0.30487804878048785,9.085365853658537,120,4
12,0.52734375,-0.64208984375,-0.36865234375,6.2804878048780495,-1.402439024390244,9.207317073170733,120,4
13,0.5517578125,-0.58544921875,-0.3408203125,8.963414634146343,-3.2926829268292686,7.865853658536586,120,4
14,0.60791015625,-0.5087890625,-0.34033203125,10.30487804878049,-4.573170731707317,7.134146341463415,120,4
15,0.62451171875,-0.478515625,-0.3515625,11.158536585365855,-4.634146341463415,6.2804878048780495,120,4
16,0.6455078125,-0.44970703125,-0.3515625,10.548780487804878,-4.085365853658537,4.329268292682928,120,4
17,0.68359375,-0.4033203125,-0.3486328125,8.475609756097562,-2.1341463414634148,3.353658536585366,120,4
18,0.71630859375,-0.35302734375,-0.33642578125,4.390243902439025,0.24390243902439027,2.1341463414634148,120,4
19,0.74169921875,-0.3056640625,-0.318359375,15.54878048780488,3.414634146341464,1.5853658536585367,120,4
20,0.7451171875,-0.29296875,-0.2900390625,-4.146341463414634,6.585365853658537,0.6097560975609757,120,4
21,0.873046875,-0.29931640625,-0.27099609375,-6.158536585365854,8.109756097560977,0.12195121951219513,120,4
22,0.72705078125,-0.31201171875,-0.2529296875,-4.390243902439025,8.170731707317074,-0.24390243902439027,120,4
23,0.72509765625,-0.3427734375,-0.234375,-0.6707317073170732,7.439024390243903,-1.0975609756097562,120,4
24,0.72119140625,-0.35791015625,-0.205078125,3.231707317073171,6.52439024390244,-2.5609756097560976,120,4
25,0.734375,-0.33837890625,-0.20947265625,6.463414634146342,5.914634146341464,-3.231707317073171,120,4
26,0.73583984375,-0.35791015625,-0.2177734375,10.0,5.121951219512195,-3.353658536585366,120,4
27,0.732421875,-0.40625,-0.22119140625,11.951219512195124,4.51219512195122,-2.3170731707317076,120,4
28,0.69677734375,-0.47119140625,-0.24560546875,12.560975609756099,5.121951219512195,-1.524390243902439,120,4
29,0.6923828125,-0.47705078125,-0.21630859375,14.085365853658537,5.3048780487804885,-2.1341463414634148,120,4
30,0.71240234375,-0.47802734375,-0.19580078125,16.03658536585366,5.7926829268292686,-3.8414634146341466,120,4
31,0.70068359375,-0.4765625,-0.19580078125,17.25609756097561,6.341463414634147,-5.853658536585367,120,4
32,0.70068359375,-0.49853515625,-0.21142578125,19.02439024390244,5.731707317073171,-7.134146341463415,120,4
33,0.67041015625,-0.5439453125,-0.22802734375,22.500000000000004,2.9268292682926833,-7.8048780487804885,120,4
34,0.64208984375,-0.6083984375,-0.2119140625,26.707317073170735,0.6097560975609757,-8.048780487804878,120,4
35,0.62939453125,-0.63525390625,-0.18359375,15.609756097560977,0.06097560975609757,-6.585365853658537,120,4
36,0.57958984375,-0.69140625,-0.14990234375,34.268292682926834,0.9756097560975611,-5.731707317073171,120,4
37,0.55322265625,-0.72607421875,-0.13232421875,36.58536585365854,4.75609756097561,-3.1707317073170733,120,4
38,0.548828125,-0.7109375,-0.203125,36.15853658536586,7.378048780487806,-0.48780487804878053,120,4
39,0.6044921875,-0.5888671875,-0.1298828125,35.1829268292683,14.634146341463415,3.1097560975609757,120,4
40,0.6767578125,-0.54736328125,-0.33349609375,26.951219512195124,21.219512195121954,2.804878048780488,120,4
41,0.712890625,-0.47705078125,-0.380859375,16.158536585365855,28.10975609756098,3.353658536585366,120,4
42,0.6962890625,-0.47998046875,-0.375,2.7439024390243905,33.59756097560976,2.682926829268293,120,4
43,0.72216796875,-0.43212890625,-0.40478515625,-7.743902439024391,36.28048780487805,0.7317073170731708,120,4
44,0.73291015625,-0.44580078125,-0.38037109375,-12.439024390243903,35.1829268292683,0.24390243902439027,120,4
45,0.6611328125,-0.51513671875,-0.32666015625,-9.756097560975611,28.902439024390247,0.7317073170731708,120,4
46,0.5966796875,-0.61962890625,-0.30859375,-0.7926829268292683,18.414634146341466,0.48780487804878053,120,4
47,0.60595703125,-0.65478515625,-0.31787109375,10.914634146341465,7.987804878048781,0.426829268292683,120,4
48,0.5966796875,-0.65478515625,-0.2998046875,21.34146341463415,-1.0365853658536586,0.9756097560975611,120,4
49,0.60400390625,-0.61572265625,-0.29052734375,28.963414634146343,-6.7682926829268295,2.3170731707317076,120,4
50,0.609375,-0.62060546875,-0.2861328125,31.52439024390244,-9.573170731707318,4.146341463414634,120,4
51,0.6240234375,-0.58056640625,-0.3134765625,30.30487804878049,-9.817073170731708,3.9024390243902443,120,4
52,0.63134765625,-0.533203125,-0.306640625,26.76829268292683,-7.134146341463415,4.024390243902439,120,4
53,0.654296875,-0.51220703125,-0.29443359375,21.76829268292683,-4.207317073170732,3.7195121951219514,120,4
54,0.69189453125,-0.48291015625,-0.3076171875,16.463414634146343,-0.9146341463414634,3.4756097560975614,120,4
55,0.69482421875,-0.47119140625,-0.3251953125,10.975609756097562,1.7682926829268295,2.682926829268293,120,4
56,0.71142578125,-0.458984375,-0.3349609375,6.7682926829268295,3.353658536585366,1.7682926829268295,120,4
57,0.7158203125,-0.43701171875,-0.37109375,2.987804878048781,4.939024390243903,1.0365853658536586,120,4
58,0.73486328125,-0.43212890625,-0.38720703125,-1.829268292682927,5.670731707317073,1.0975609756097562,120,4
59,0.7138671875,-0.46142578125,-0.41015625,-5.731707317073171,6.341463414634147,1.4634146341463417,120,4
60,0.70166015625,-0.47998046875,-0.4052734375,-7.8048780487804885,6.341463414634147,1.3414634146341464,120,4
61,0.71728515625,-0.47705078125,-0.4091796875,-12.256097560975611,6.402439024390245,0.5487804878048781,120,4
62,0.734375,-0.4326171875,-0.41943359375,-17.378048780487806,8.170731707317074,0.30487804878048785,120,4
63,0.7353515625,-0.4658203125,-0.4921875,-23.658536585365855,11.585365853658537,0.9756097560975611,120,4
64,0.70703125,-0.52294921875,-0.3291015625,-28.902439024390247,14.146341463414636,2.682926829268293,120,4
65,0.671875,-0.56103515625,-0.30029296875,-30.365853658536587,15.731707317073171,2.987804878048781,120,4
66,0.67578125,-0.54296875,-0.25830078125,-28.353658536585368,15.243902439024392,3.048780487804878,120,4
67,0.6826171875,-0.53515625,-0.212890625,-23.475609756097562,14.085365853658537,3.353658536585366,120,4
68,0.6552734375,-0.57568359375,-0.18701171875,-19.81707317073171,13.78048780487805,3.414634146341464,120,4
69,0.6572265625,-0.55419921875,-0.19091796875,-16.52439024390244,12.865853658536587,2.3170731707317076,120,4
70,0.6953125,-0.5068359375,-0.19873046875,-15.243902439024392,14.146341463414636,1.8902439024390245,120,4
71,0.703125,-0.4853515625,-0.2119140625,-19.26829268292683,18.597560975609756,1.3414634146341464,120,4
72,0.70166015625,-0.49462890625,-0.1845703125,-23.963414634146343,22.621951219512198,2.3170731707317076,120,4
73,0.6962890625,-0.52294921875,-0.177734375,-29.75609756097561,26.463414634146343,2.439024390243903,120,4
74,0.720703125,-0.62158203125,-0.1943359375,-32.926829268292686,29.451219512195124,1.524390243902439,120,4
75,0.728515625,-0.4921875,-0.17626953125,-46.707317073170735,26.52439024390244,2.1341463414634148,120,4
76,0.658203125,-0.55419921875,-0.1572265625,-25.48780487804878,24.573170731707318,3.1097560975609757,120,4
77,0.65185546875,-0.57763671875,-0.14892578125,-18.10975609756098,20.243902439024392,1.2195121951219514,120,4
78,0.6884765625,-0.53515625,-0.16357421875,-13.04878048780488,17.195121951219512,0.426829268292683,120,4
79,0.69140625,-0.53173828125,-0.138671875,-8.841463414634147,16.34146341463415,1.5853658536585367,120,4
80,0.6630859375,-0.55615234375,-0.2470703125,-4.939024390243903,15.060975609756099,0.9756097560975611,120,4
81,0.66650390625,-0.55517578125,-0.12158203125,-2.378048780487805,15.182926829268293,0.24390243902439027,120,4
82,0.67138671875,-0.5439453125,-0.1298828125,-0.5487804878048781,15.426829268292684,15.54878048780488,120,4
83,0.685546875,-0.517578125,-0.13623046875,0.48780487804878053,16.158536585365855,0.12195121951219513,120,4
84,0.67529296875,-0.544921875,-0.13134765625,-0.5487804878048781,18.597560975609756,0.12195121951219513,120,4
85,0.69140625,-0.53125,-0.13720703125,-3.231707317073171,21.585365853658537,-0.426829268292683,120,4
86,0.70263671875,-0.5205078125,-0.1298828125,-6.219512195121951,24.75609756097561,0.06097560975609757,120,4
87,0.69091796875,-0.52587890625,-0.11572265625,-9.085365853658537,27.987804878048784,0.48780487804878053,120,4
88,0.68505859375,-0.54052734375,-0.0849609375,-10.060975609756099,31.52439024390244,1.3414634146341464,120,4
89,0.67919921875,-0.56689453125,-0.07763671875,-12.80487804878049,35.426829268292686,1.4634146341463417,120,4
90,0.6884765625,-0.54443359375,-0.0830078125,-15.060975609756099,40.1219512195122,1.8902439024390245,120,4
91,0.6943359375,-0.54736328125,-0.0888671875,-18.353658536585368,45.54878048780488,2.804878048780488,120,4
92,0.6806640625,-0.57568359375,-0.0546875,-23.170731707317074,51.82926829268293,3.048780487804878,120,4
93,0.6845703125,-0.5654296875,-0.04443359375,-27.073170731707318,58.84146341463415,2.9268292682926833,120,4
94,0.701171875,-0.54052734375,-0.12353515625,-30.121951219512198,65.1829268292683,1.8902439024390245,120,4
95,0.74609375,-0.494140625,0.02001953125,-30.000000000000004,69.87804878048782,0.24390243902439027,120,4
96,0.75048828125,-0.48876953125,0.041015625,-28.170731707317074,69.81707317073172,1.8902439024390245,120,4
97,0.68359375,-0.5771484375,0.05224609375,-19.207317073170735,65.91463414634147,5.121951219512195,120,4
98,0.6005859375,-0.66943359375,0.07275390625,-7.134146341463415,64.26829268292684,6.463414634146342,120,4
99,0.5849609375,-0.64892578125,0.0595703125,2.804878048780488,65.48780487804879,5.670731707317073,120,4
100,0.65673828125,-0.5517578125,0.04443359375,5.426829268292684,68.47560975609757,6.158536585365854,120,4
101,0.70068359375,-0.51025390625,0.0439453125,4.573170731707317,72.01219512195122,10.426829268292684,120,4
102,0.67822265625,-0.5634765625,0.015625,-2.1341463414634148,62.6219512195122,14.390243902439027,120,4
103,0.6884765625,-0.5869140625,-0.021484375,-18.170731707317074,80.67073170731707,17.134146341463417,120,4
104,0.69384765625,-0.53662109375,-0.16650390625,-37.5609756097561,84.57317073170732,16.097560975609756,120,4
105,0.79736328125,-0.39501953125,-0.228515625,-48.84146341463415,93.23170731707317,15.914634146341465,120,4
106,0.81103515625,-0.39892578125,-0.21240234375,-59.93902439024391,97.98780487804879,15.731707317073171,120,4
107,0.81201171875,-0.4150390625,-0.15966796875,-66.52439024390245,101.58536585365854,13.536585365853659,120,4
108,0.81884765625,-0.4033203125,-0.0986328125,-68.29268292682927,100.1219512195122,15.243902439024392,120,4
109,0.736328125,-0.48974609375,-0.06787109375,-65.85365853658537,95.79268292682927,15.853658536585368,120,4
110,0.6904296875,-0.4970703125,-0.0673828125,-62.865853658536594,94.69512195121952,31.09756097560976,120,4
111,0.6982421875,-0.4501953125,-0.08544921875,-63.29268292682927,91.82926829268294,14.51219512195122,120,4
112,0.72802734375,-0.4912109375,-0.09814453125,-64.69512195121952,78.04878048780489,13.170731707317074,120,4
113,0.7275390625,-0.33349609375,-0.1376953125,-66.40243902439025,85.48780487804879,13.597560975609758,120,4
114,0.720703125,-0.28662109375,-0.158203125,-62.07317073170732,82.43902439024392,11.097560975609756,120,4
115,0.751953125,-0.26513671875,-0.1259765625,-61.646341463414636,80.60975609756099,8.719512195121952,120,4
116,0.76171875,-0.2470703125,-0.3564453125,-60.67073170731708,78.17073170731707,6.7682926829268295,120,4
117,0.76513671875,-0.23876953125,-0.38232421875,-60.243902439024396,76.03658536585367,3.658536585365854,120,4
118,0.78369140625,-0.2392578125,-0.37646484375,-56.15853658536586,72.98780487804879,2.378048780487805,120,4
119,0.7841796875,-0.2314453125,-0.3740234375,-55.1829268292683,70.54878048780489,0.0,120,4
120,0.76904296875,-0.22705078125,-0.2548828125,-56.03658536585366,70.0,-0.7317073170731708,120,4
121,0.74658203125,-0.2265625,-0.38232421875,-56.82926829268293,66.40243902439025,-1.0365853658536586,120,4
122,0.7197265625,-0.2021484375,-0.4111328125,-51.646341463414636,59.024390243902445,-4.2682926829268295,120,4
123,0.74267578125,-0.10498046875,-0.42626953125,-51.768292682926834,55.1829268292683,-8.109756097560977,120,4
124,0.759765625,-0.0654296875,-0.46923828125,-56.524390243902445,52.926829268292686,-10.792682926829269,120,4
125,0.73388671875,-0.09912109375,-0.46435546875,-61.40243902439025,52.6219512195122,-14.390243902439027,120,4
126,0.748046875,-0.07666015625,-0.458984375,-66.76829268292684,50.304878048780495,-17.743902439024392,120,4
127,0.755859375,-0.08447265625,-0.4697265625,-70.97560975609757,47.31707317073171,-21.76829268292683,120,4
128,0.8681640625,-0.07763671875,-0.47705078125,-76.46341463414635,44.57317073170732,-25.975609756097562,120,4
129,0.77001953125,-0.08447265625,-0.45068359375,-81.76829268292684,42.07317073170732,-29.02439024390244,120,4
130,0.7353515625,-0.15478515625,-0.43603515625,-83.65853658536587,39.51219512195122,-32.01219512195122,120,4
131,0.7392578125,-0.15771484375,-0.4326171875,-82.43902439024392,35.0609756097561,-35.30487804878049,120,4
132,0.75439453125,-0.12939453125,-0.43798828125,-82.92682926829269,30.487804878048784,-38.23170731707317,120,4
133,0.77587890625,-0.11328125,-0.44482421875,-85.00000000000001,27.987804878048784,-41.28048780487805,120,4
134,0.78564453125,-0.1015625,-0.45654296875,-88.23170731707317,26.76829268292683,-44.390243902439025,120,4
135,0.8037109375,-0.09814453125,-0.46240234375,-78.53658536585367,25.792682926829272,-48.84146341463415,120,4
136,0.837890625,-0.04736328125,-0.48095703125,-101.40243902439025,24.512195121951223,-52.6829268292683,120,4
137,0.84423828125,-0.0791015625,-0.49658203125,-107.13414634146342,24.390243902439025,-55.243902439024396,120,4
138,0.84228515625,-0.1083984375,-0.48681640625,-112.43902439024392,24.085365853658537,-57.43902439024391,120,4
139,0.84765625,-0.107421875,-0.47412109375,-117.56097560975611,24.81707317073171,-60.060975609756106,120,4
140,0.87255859375,-0.09423828125,-0.4560546875,-122.01219512195124,25.121951219512198,-62.6829268292683,120,4
141,0.875,-0.1044921875,-0.458984375,-127.31707317073172,25.426829268292686,-66.64634146341464,120,4
142,0.892578125,-0.09814453125,-0.45166015625,-132.9878048780488,25.670731707317074,-70.48780487804879,120,4
143,0.88916015625,-0.1103515625,-0.41748046875,-136.82926829268294,24.390243902439025,-73.35365853658537,120,4
144,0.8837890625,-0.15478515625,-0.4189453125,-139.20731707317074,22.865853658536587,-76.40243902439025,120,4
145,0.88623046875,-0.1767578125,-0.4296875,-140.5487804878049,21.34146341463415,-79.93902439024392,120,4
146,0.89599609375,-0.158203125,-0.3984375,-142.37804878048783,19.634146341463417,-84.02439024390245,120,4
147,0.94677734375,-0.00634765625,-0.423828125,-142.9878048780488,16.402439024390244,-86.95121951219512,120,4
148,0.95654296875,-0.12939453125,-0.41845703125,-144.57317073170734,14.878048780487806,-91.03658536585367,120,4
149,0.97265625,-0.0986328125,-0.431640625,-146.03658536585368,13.353658536585368,-95.0609756097561,120,4
150,1.00634765625,-0.06982421875,-0.4453125,-148.96341463414635,13.170731707317074,-100.3658536585366,120,4
151,1.046875,-0.03759765625,-0.4609375,-153.1707317073171,12.682926829268293,-105.97560975609757,120,4
152,1.07080078125,-0.0107421875,-0.466796875,-157.5609756097561,11.097560975609756,-110.3658536585366,120,4
153,1.076171875,-0.021484375,-0.4892578125,-161.15853658536588,11.402439024390246,-115.1829268292683,120,4
154,1.09814453125,-0.0537109375,-0.46728515625,-162.5,10.365853658536587,-119.32926829268294,120,4
155,1.12646484375,-0.05712890625,-0.47265625,-161.21951219512198,9.573170731707318,-123.10975609756099,120,4
156,1.134765625,-0.099609375,-0.49609375,-160.5487804878049,9.02439024390244,-125.97560975609757,120,4
157,1.1513671875,-0.0888671875,-0.546875,-156.82926829268294,7.195121951219513,-129.8780487804878,120,4
158,1.23193359375,-0.00048828125,-0.54150390625,-157.37804878048783,7.926829268292684,-135.0,120,4
159,1.28955078125,0.0693359375,-0.56689453125,-162.31707317073173,9.085365853658537,-138.2317073170732,120,4
160,1.2919921875,0.04150390625,-0.603515625,-168.109756097561,9.329268292682928,-141.28048780487805,120,4
161,1.29296875,0.03857421875,-0.58984375,-171.34146341463415,11.951219512195124,-147.07317073170734,120,4
162,1.345703125,0.08837890625,-0.591796875,-175.00000000000003,12.926829268292684,-150.1829268292683,120,4
163,1.3876953125,0.10986328125,-0.61083984375,-178.109756097561,14.939024390243905,-155.0,120,4
164,1.40283203125,0.10498046875,-0.6513671875,-181.34146341463415,16.34146341463415,-160.0609756097561,120,4
165,1.43505859375,0.1337890625,-0.66357421875,-185.3048780487805,18.719512195121954,-165.3048780487805,120,4
166,1.4716796875,0.10986328125,-0.6337890625,-190.3048780487805,23.475609756097562,-171.52439024390245,120,4
167,1.53125,0.1376953125,-0.59912109375,-195.00000000000003,25.60975609756098,-176.09756097560978,120,4
168,1.5419921875,0.1103515625,-0.57275390625,-196.15853658536588,27.073170731707318,-180.06097560975613,120,4
169,1.52490234375,0.05712890625,-0.55126953125,-195.6707317073171,27.31707317073171,-183.47560975609758,120,4
170,1.529296875,0.0751953125,-0.5146484375,-194.63414634146343,30.182926829268297,-171.89024390243904,120,4
171,1.6015625,0.14013671875,-0.4775390625,-197.13414634146343,33.29268292682927,-190.85365853658539,120,4
172,1.63427734375,0.13671875,-0.451171875,-199.63414634146343,37.743902439024396,-193.53658536585368,120,4
173,1.65087890625,0.09619140625,-0.4482421875,-200.12195121951223,41.28048780487805,-196.15853658536588,120,4
174,1.6474609375,0.091796875,-0.4091796875,-197.01219512195124,43.53658536585366,-200.06097560975613,120,4
175,1.69970703125,0.142578125,-0.392578125,-192.7439024390244,45.426829268292686,-206.03658536585368,120,4
176,1.76220703125,0.17529296875,-0.41943359375,-188.65853658536588,44.57317073170732,-211.95121951219514,120,4
177,1.78564453125,0.17138671875,-0.4248046875,-184.20731707317074,45.54878048780488,-217.25609756097563,120,4
178,1.8046875,0.17529296875,-0.412109375,-181.52439024390245,48.35365853658537,-222.7439024390244,120,4
179,1.82080078125,0.1962890625,-0.369140625,-178.96341463414635,49.63414634146342,-226.70731707317074,120,4
180,1.80712890625,0.20849609375,-0.2548828125,-176.46341463414635,50.85365853658537,-230.91463414634148,120,4
181,1.80078125,0.2392578125,-0.4931640625,-175.4878048780488,53.65853658536586,-237.07317073170734,120,4
182,1.80712890625,0.29150390625,-0.3603515625,-174.45121951219514,53.35365853658537,-241.40243902439028,120,4
183,1.814453125,0.3193359375,-0.3251953125,-173.0487804878049,55.85365853658537,-245.30487804878052,120,4
184,1.80322265625,0.27392578125,-0.35986328125,-173.90243902439025,58.41463414634147,-249.57317073170734,120,4
185,1.796875,0.26611328125,-0.32568359375,-171.95121951219514,60.426829268292686,-252.9878048780488,120,4
186,1.76953125,0.2529296875,-0.27734375,-169.26829268292684,63.10975609756098,-256.95121951219517,120,4
187,1.6298828125,0.28466796875,-0.24365234375,-164.63414634146343,63.71951219512196,-259.20731707317077,120,4
188,1.71630859375,0.3046875,-0.2021484375,-159.63414634146343,64.26829268292684,-260.3048780487805,120,4
189,1.71142578125,0.32275390625,-0.177734375,-158.35365853658539,65.54878048780489,-261.6463414634147,120,4
190,1.68310546875,0.30810546875,-0.18505859375,-156.15853658536588,68.04878048780489,-263.4146341463415,120,4
191,1.677734375,0.33349609375,-0.11083984375,-152.25609756097563,69.75609756097562,-265.9756097560976,120,4
192,1.67626953125,0.3291015625,-0.02099609375,-146.28048780487805,69.45121951219512,-268.0487804878049,120,4
193,1.67529296875,0.345703125,0.01220703125,-138.2317073170732,68.78048780487805,-270.4268292682927,120,4
194,1.67626953125,0.4140625,0.06396484375,-134.57317073170734,72.98780487804879,-272.8658536585366,120,4
195,1.6279296875,0.41259765625,0.1201171875,-129.63414634146343,70.97560975609757,-272.5,120,4
196,1.56103515625,0.35693359375,0.244140625,-131.21951219512195,74.51219512195122,-272.5,120,4
197,1.61572265625,0.3017578125,0.15869140625,-140.0609756097561,77.8658536585366,-272.6219512195122,120,4
198,1.4345703125,0.275390625,0.12548828125,-115.91463414634147,77.01219512195122,-273.719512195122,120,4
199,1.39208984375,0.3740234375,0.05126953125,-124.45121951219514,77.92682926829269,-275.3048780487805,120,4
200,1.31787109375,0.21337890625,0.0107421875,-103.41463414634147,78.59756097560977,-276.0365853658537,120,4
201,1.2548828125,0.1474609375,0.001953125,-100.00000000000001,80.3658536585366,-275.0,120,4
202,1.142578125,0.041015625,-0.02880859375,-100.00000000000001,83.17073170731707,-272.7439024390244,120,4
203,1.0244140625,-0.046875,-0.03955078125,-98.90243902439025,86.52439024390245,-268.8414634146342,120,4
204,0.931640625,-0.14794921875,-0.0185546875,-95.3658536585366,88.10975609756099,-263.9024390243903,120,4
205,0.8408203125,-0.12939453125,-0.00830078125,-88.41463414634147,87.43902439024392,-259.26829268292687,120,4
206,0.74072265625,-0.275390625,0.09228515625,-81.28048780487805,85.54878048780489,-253.1707317073171,120,4
207,0.67041015625,-0.3408203125,0.1806640625,-73.17073170731707,82.5609756097561,-247.9268292682927,120,4
208,0.74853515625,-0.39111328125,0.20703125,-67.8048780487805,80.79268292682927,-242.13414634146343,120,4
209,0.57763671875,-0.46728515625,0.21875,-60.487804878048784,76.40243902439025,-236.82926829268294,120,4
210,0.50634765625,-0.56689453125,0.228515625,-49.63414634146342,69.45121951219512,-230.5487804878049,120,4
211,0.4140625,-0.64013671875,0.24755859375,-34.57317073170732,59.268292682926834,-223.71951219512198,120,4
212,0.376953125,-0.6220703125,0.2509765625,-18.29268292682927,52.37804878048781,-216.40243902439028,120,4
213,0.26806640625,-0.62841796875,0.2314453125,-10.30487804878049,47.07317073170732,-207.6829268292683,120,4
214,0.1708984375,-0.6484375,0.16796875,-6.646341463414635,41.15853658536586,-198.1707317073171,120,4
215,0.119140625,-0.68212890625,0.1142578125,-8.292682926829269,44.08536585365854,-189.32926829268294,120,4
216,0.03662109375,-0.6962890625,0.1171875,-15.121951219512196,47.01219512195122,-177.6219512195122,120,4
217,-0.08642578125,-0.76611328125,0.08154296875,-23.170731707317074,48.59756097560976,-164.26829268292684,120,4
218,-0.22119140625,-0.87744140625,0.1328125,-25.670731707317074,51.03658536585366,-153.0487804878049,120,4
219,-0.32763671875,-0.96337890625,0.19287109375,-29.939024390243905,53.23170731707317,-135.0609756097561,120,4
220,-0.50634765625,-1.01123046875,0.21875,-31.09756097560976,54.39024390243903,-116.40243902439025,120,4
221,-0.6708984375,-1.2578125,0.2646484375,-29.75609756097561,54.63414634146342,-94.87804878048782,120,4
222,-0.85546875,-1.3505859375,0.39892578125,-27.865853658536587,53.65853658536586,-76.09756097560977,120,4
223,-0.97998046875,-1.37890625,0.4482421875,-29.39024390243903,50.73170731707317,-58.10975609756098,120,4
224,-0.9033203125,-1.408203125,0.50634765625,-34.08536585365854,53.35365853658537,-41.15853658536586,120,4
225,-0.81298828125,-1.4521484375,0.5546875,-37.07317073170732,52.01219512195122,-19.81707317073171,120,4
226,-0.69189453125,-1.607421875,0.4765625,-33.47560975609756,48.90243902439025,-0.9146341463414634,120,4
227,-0.6953125,-1.806640625,0.40625,-22.378048780487806,44.87804878048781,20.79268292682927,120,4
228,-0.64306640625,-1.90869140625,0.380859375,-5.182926829268293,39.207317073170735,40.73170731707317,120,4
229,-0.53466796875,-1.90966796875,0.30615234375,10.487804878048781,35.670731707317074,59.146341463414636,120,4
230,-0.46044921875,-1.85009765625,0.18115234375,25.182926829268293,30.487804878048784,76.89024390243902,120,4
231,-0.43896484375,-1.8603515625,0.10205078125,38.47560975609756,27.621951219512198,79.08536585365854,120,4
232,-0.4755859375,-1.83447265625,0.078125,42.6829268292683,28.231707317073173,113.96341463414635,120,4
233,-0.3701171875,-1.85205078125,0.037109375,47.37804878048781,27.682926829268297,138.90243902439025,120,4
234,-0.1396484375,-1.95263671875,-0.07470703125,51.463414634146346,24.81707317073171,164.26829268292684,120,4
235,-0.0458984375,-2.0771484375,-0.1787109375,58.41463414634147,18.902439024390244,172.8658536585366,120,4
236,0.0498046875,-2.189453125,-0.23974609375,71.76829268292684,9.390243902439025,212.9268292682927,120,4
237,0.2099609375,-2.26806640625,-0.25537109375,92.25609756097562,-1.829268292682927,236.76829268292684,120,4
238,0.41064453125,-2.36083984375,-0.23681640625,116.76829268292684,-14.085365853658537,261.0975609756098,120,4
239,0.60791015625,-2.42041015625,-0.2490234375,137.8048780487805,-21.03658536585366,285.1829268292683,120,4
240,0.78076171875,-2.49365234375,-0.2451171875,149.32926829268294,-24.573170731707318,311.1585365853659,120,4
241,0.95703125,-2.552734375,-0.28857421875,153.96341463414635,-24.146341463414636,340.2439024390244,120,4
242,1.158203125,-2.646484375,-0.3056640625,156.40243902439025,-20.182926829268293,369.20731707317077,120,4
243,1.42138671875,-2.81005859375,-0.33935546875,155.7317073170732,-16.158536585365855,401.5853658536586,120,4
244,1.69384765625,-3.09521484375,-0.41845703125,152.31707317073173,-11.341463414634147,444.39024390243907,120,4
245,1.876953125,-3.4052734375,-0.45458984375,155.3048780487805,-6.219512195121951,491.5243902439025,120,4
246,2.369140625,-3.9609375,-0.4990234375,169.63414634146343,-5.3048780487804885,541.1585365853659,120,4
247,2.9619140625,-4.25048828125,-0.86669921875,200.609756097561,-5.609756097560976,583.9024390243903,120,4
248,3.666015625,-4.44677734375,-1.33349609375,229.75609756097563,-7.560975609756098,610.1219512195122,120,4
249,4.71533203125,-4.63818359375,-1.64208984375,264.39024390243907,4.75609756097561,660.0000000000001,120,4
250,5.77490234375,-5.21435546875,-1.591796875,307.9268292682927,36.09756097560976,694.4512195121952,120,4
251,6.89892578125,-5.33544921875,-1.287109375,347.07317073170736,63.71951219512196,722.439024390244,120,4
252,7.8564453125,-4.9990234375,-1.36279296875,394.32926829268297,101.64634146341464,759.8170731707318,120,4
253,8.55810546875,-4.62255859375,-1.7509765625,422.01219512195127,91.03658536585367,811.0365853658537,120,4
254,8.890625,-4.29736328125,-2.9853515625,461.3414634146342,67.98780487804879,846.6463414634147,120,4
255,10.07861328125,-3.7099609375,-3.51513671875,489.57317073170736,42.5609756097561,860.6707317073171,120,4
256,11.32763671875,-2.78076171875,-4.0546875,539.8170731707318,-12.134146341463415,907.6219512195123,120,4
257,11.67578125,-1.94970703125,-5.17822265625,561.4024390243903,-48.35365853658537,966.829268292683,120,4
258,11.62158203125,-1.18115234375,-6.85791015625,593.9634146341464,-103.35365853658537,960.7926829268293,120,4
259,12.09814453125,0.205078125,-8.31005859375,675.2439024390244,-143.2926829268293,923.2926829268293,120,4
260,10.775390625,0.1708984375,-8.97509765625,787.0121951219513,-248.78048780487808,867.8048780487806,120,4
261,9.1142578125,-0.38916015625,-7.5009765625,998.5975609756099,-374.32926829268297,758.4756097560976,120,4
262,7.1611328125,-1.65673828125,-6.94482421875,1277.9268292682927,-527.6219512195122,716.8902439024391,120,4
263,12.65869140625,-6.8076171875,-4.21875,1838.4756097560978,-956.7682926829269,383.0487804878049,120,4
264,-15.91845703125,2.087890625,-3.29248046875,737.2560975609757,-22.31707317073171,-373.9024390243903,120,4
265,15.99951171875,14.38720703125,-6.15185546875,950.8536585365855,-431.4024390243903,97.43902439024392,120,4
266,-7.97412109375,-9.13525390625,2.45654296875,1171.6463414634147,-116.58536585365854,-128.96341463414635,120,4
267,6.548828125,3.3525390625,1.1708984375,1024.878048780488,-54.207317073170735,16.52439024390244,120,4
268,1.03466796875,-4.62255859375,-6.7646484375,972.1341463414635,-289.75609756097566,-362.9878048780488,120,4
269,7.65576171875,3.80810546875,-2.4609375,895.2439024390245,-56.21951219512196,-332.25609756097566,120,4
270,2.94921875,0.3916015625,-2.6259765625,963.2926829268293,-91.95121951219512,-440.8536585365854,120,4
271,4.26123046875,-0.51513671875,-3.01953125,851.9512195121952,-103.23170731707317,-638.5975609756098,120,4
272,4.6552734375,0.85546875,-2.10986328125,701.0365853658537,-85.73170731707317,-646.0365853658537,120,4
273,2.888671875,-0.021484375,-2.44140625,586.8902439024391,11.097560975609756,-686.0365853658537,120,4
274,2.8447265625,-0.9658203125,-2.232421875,425.7926829268293,31.280487804878053,-694.0853658536586,120,4
275,1.74267578125,-1.2265625,-2.0849609375,371.0365853658537,99.69512195121952,-696.7682926829269,120,4
276,1.28369140625,-1.73583984375,-1.4306640625,311.89024390243907,140.85365853658539,-701.829268292683,120,4
277,0.88037109375,-1.9814453125,-0.82958984375,219.51219512195124,226.76829268292684,-703.4146341463415,120,4
278,0.8857421875,-1.36962890625,-0.38330078125,183.71951219512198,265.3048780487805,-680.609756097561,120,4
279,0.7724609375,-0.75244140625,-0.39306640625,167.5609756097561,294.69512195121956,-647.8658536585366,120,4
280,1.244140625,-0.34228515625,-0.462890625,163.90243902439025,312.43902439024396,-620.2439024390244,120,4
281,1.65380859375,-0.05859375,-0.7041015625,140.5487804878049,347.43902439024396,-611.219512195122,120,4
282,2.505859375,-0.09521484375,-0.8095703125,113.47560975609757,352.56097560975616,-606.5243902439025,120,4
283,2.87158203125,-0.33447265625,-0.71484375,77.6219512195122,344.51219512195127,-598.4146341463415,120,4
284,2.69384765625,-0.6591796875,-0.96630859375,-12.134146341463415,339.1463414634147,-594.939024390244,120,4
285,2.7939453125,-0.6376953125,-0.9638671875,-67.6829268292683,328.4146341463415,-575.1219512195122,120,4
286,2.66064453125,-0.6923828125,-0.78173828125,-128.59756097560978,343.4146341463415,-541.7682926829269,120,4
287,2.2275390625,-0.76953125,-0.615234375,-195.85365853658539,336.1585365853659,-509.57317073170736,120,4
288,1.759765625,-0.9814453125,-0.67138671875,-223.2317073170732,336.70731707317077,-479.26829268292687,120,4
289,1.41064453125,-1.1044921875,-0.7685546875,-230.24390243902442,330.9756097560976,-458.5975609756098,120,4
290,1.43310546875,-0.88818359375,-0.91357421875,-221.82926829268294,320.8536585365854,-439.32926829268297,120,4
291,1.49755859375,-0.78515625,-0.912109375,-210.4878048780488,312.9878048780488,-418.4756097560976,120,4
292,1.43994140625,-0.69140625,-0.89208984375,-206.03658536585368,309.45121951219517,-399.0243902439025,120,4
293,1.490234375,-0.63232421875,-0.99267578125,-209.93902439024393,312.8048780487805,-380.2439024390244,120,4
294,1.1767578125,-0.697265625,-1.12353515625,-221.34146341463418,310.8536585365854,-372.9268292682927,120,4
295,0.8232421875,-0.69384765625,-1.1376953125,-230.6707317073171,310.3658536585366,-330.2439024390244,120,4
296,0.5341796875,-0.634765625,-1.123046875,-239.26829268292684,311.5853658536586,-311.76829268292687,120,4
297,0.28076171875,-0.41796875,-1.150390625,-252.31707317073173,314.81707317073176,-272.01219512195127,120,4
298,-0.11181640625,-0.53466796875,-1.26611328125,-279.69512195121956,292.6829268292683,-251.95121951219514,120,4
299,0.34619140625,-0.33984375,-1.3349609375,-266.0365853658537,270.6707317073171,-228.78048780487808,120,4
300,0.24853515625,-0.29638671875,-1.3642578125,-246.64634146341464,263.2317073170732,-210.85365853658539,120,4
301,-0.01611328125,-0.34326171875,-1.21875,-237.13414634146343,231.52439024390245,-200.5487804878049,120,4
302,-0.14697265625,-0.33837890625,-1.18115234375,-239.87804878048783,216.40243902439028,-190.1219512195122,120,4
303,-0.2744140625,-0.27880859375,-1.08251953125,-247.43902439024393,204.14634146341464,-177.6829268292683,120,4
304,-0.3427734375,-0.2802734375,-0.93310546875,-255.00000000000003,193.0487804878049,-165.2439024390244,120,4
305,-0.4560546875,-0.3427734375,-0.83642578125,-261.5243902439025,179.20731707317074,-171.21951219512198,120,4
306,-0.5126953125,-0.4462890625,-0.8857421875,-262.9268292682927,163.35365853658539,-147.07317073170734,120,4
307,-0.4775390625,-0.40625,-1.01318359375,-254.93902439024393,149.69512195121953,-137.01219512195124,120,4
308,-0.56494140625,-0.33251953125,-0.91162109375,-237.01219512195124,135.7926829268293,-139.9390243902439,120,4
309,-0.77099609375,-0.41064453125,-0.98583984375,-230.24390243902442,121.40243902439025,-112.13414634146342,120,4
310,-0.923828125,-0.41015625,-0.9189453125,-215.18292682926833,111.52439024390245,-101.40243902439025,120,4
311,-1.09765625,-0.43408203125,-0.966796875,-204.26829268292684,100.67073170731709,-89.26829268292684,120,4
312,-1.19384765625,-0.42138671875,-0.97412109375,-190.06097560975613,89.45121951219512,-78.71951219512196,120,4
313,-1.1884765625,-0.3857421875,-0.95068359375,-175.3658536585366,83.35365853658537,-66.52439024390245,120,4
314,-1.18408203125,-0.4267578125,-0.9599609375,-175.7926829268293,72.01219512195122,-49.93902439024391,120,4
315,-1.2138671875,-0.52392578125,-0.95849609375,-161.95121951219514,64.81707317073172,-39.32926829268293,120,4
316,-1.23779296875,-0.49169921875,-0.98876953125,-145.6707317073171,56.951219512195124,-26.28048780487805,120,4
317,-1.322265625,-0.46337890625,-0.6796875,-133.47560975609758,52.19512195121952,-15.914634146341465,120,4
318,-1.298828125,-0.470703125,-0.64990234375,-125.85365853658537,47.43902439024391,-8.597560975609756,120,4
319,-1.216796875,-0.35595703125,-0.67236328125,-115.73170731707319,40.243902439024396,-5.3048780487804885,120,4
320,-1.18408203125,-0.19921875,-0.7197265625,-105.42682926829269,30.792682926829272,-1.2804878048780488,120,4
321,-1.18115234375,-0.1025390625,-0.65283203125,-91.58536585365854,23.353658536585368,3.231707317073171,120,4
322,-1.2099609375,-0.2021484375,-0.65234375,-84.93902439024392,14.939024390243905,5.975609756097562,120,4
323,-1.2080078125,-0.24755859375,-0.62939453125,-74.45121951219512,5.7926829268292686,8.353658536585366,120,4
324,-1.2001953125,-0.26806640625,-0.611328125,-60.79268292682927,-4.024390243902439,11.76829268292683,120,4
325,-1.1650390625,-0.1298828125,-0.60302734375,-49.75609756097561,-12.926829268292684,14.390243902439027,120,4
326,-1.16748046875,-0.17041015625,-0.57275390625,-41.34146341463415,-19.512195121951223,16.82926829268293,120,4
327,-1.220703125,-0.134765625,-0.541015625,-32.86585365853659,-26.82926829268293,18.597560975609756,120,4
328,-1.13134765625,-0.09912109375,-0.55810546875,-25.975609756097562,-32.19512195121951,20.975609756097562,120,4
329,-1.2958984375,-0.08984375,-0.54931640625,-17.743902439024392,-37.37804878048781,24.02439024390244,120,4
330,-1.310546875,-0.07958984375,-0.50830078125,-11.097560975609756,-44.207317073170735,28.170731707317074,120,4
331,-1.3251953125,-0.0615234375,-0.4833984375,-5.182926829268293,-49.63414634146342,31.03658536585366,120,4
332,-1.32958984375,-0.046875,-0.4775390625,-15.609756097560977,-57.07317073170732,33.29268292682927,120,4
333,-1.32421875,-0.0322265625,-0.48291015625,5.3048780487804885,-63.90243902439025,35.36585365853659,120,4
334,-1.29345703125,-0.04345703125,-0.474609375,12.682926829268293,-70.1829268292683,36.768292682926834,120,4
335,-1.259765625,-0.06396484375,-0.41015625,20.426829268292686,-77.7439024390244,38.47560975609756,120,4
336,-1.2197265625,-0.03662109375,-0.3603515625,27.073170731707318,-83.47560975609757,38.71951219512196,120,4
337,-1.19189453125,-0.0078125,-0.3037109375,32.80487804878049,-88.35365853658537,40.0,120,4
338,-1.17919921875,0.01904296875,-0.25439453125,37.5609756097561,-92.6219512195122,40.79268292682927,120,4
339,-1.162109375,0.03076171875,-0.2509765625,40.304878048780495,-96.21951219512196,39.75609756097561,120,4
340,-1.13818359375,0.04345703125,-0.21923828125,43.29268292682927,-96.40243902439025,39.268292682926834,120,4
341,-1.09912109375,0.05712890625,-0.19970703125,44.81707317073171,-95.73170731707317,39.390243902439025,120,4
342,-1.09814453125,0.0634765625,-0.18896484375,46.524390243902445,-96.28048780487806,40.304878048780495,120,4
343,-1.09619140625,0.06396484375,-0.1533203125,49.93902439024391,-100.1219512195122,40.97560975609756,120,4
344,-1.08251953125,0.07177734375,-0.1708984375,53.90243902439025,-105.1219512195122,41.707317073170735,120,4
345,-1.07666015625,0.1025390625,-0.14306640625,59.39024390243903,-108.78048780487806,42.804878048780495,120,4
346,-1.04833984375,0.11376953125,-0.10986328125,65.91463414634147,-112.8658536585366,44.69512195121952,120,4
347,-1.029296875,0.11767578125,-0.068359375,70.48780487804879,-115.91463414634147,46.34146341463415,120,4
348,-1.02490234375,0.12255859375,-0.046875,73.96341463414635,-117.8658536585366,46.707317073170735,120,4
349,-0.99365234375,0.14794921875,-0.02490234375,74.14634146341464,-118.23170731707319,47.01219512195122,120,4
350,-0.98291015625,0.17041015625,-0.00390625,73.65853658536587,-119.45121951219514,48.53658536585366,120,4
351,-0.98046875,0.17529296875,0.03125,72.8658536585366,-121.28048780487806,48.78048780487805,120,4
352,-0.97607421875,0.185546875,0.0771484375,73.47560975609757,-124.39024390243904,48.47560975609756,120,4
353,-0.97119140625,0.166015625,0.13916015625,75.2439024390244,-127.62195121951221,48.10975609756098,120,4
354,-0.95947265625,0.16748046875,0.18505859375,79.02439024390245,-131.28048780487805,47.987804878048784,120,4
355,-0.94287109375,0.17333984375,0.20263671875,80.67073170731707,-132.13414634146343,62.37804878048781,120,4
356,-0.89990234375,0.20556640625,0.1884765625,81.82926829268294,-133.78048780487805,46.463414634146346,120,4
357,-0.9990234375,0.22509765625,0.1943359375,82.37804878048782,-136.58536585365854,46.28048780487805,120,4
358,-0.8671875,0.22900390625,0.1865234375,81.09756097560977,-137.6219512195122,45.1829268292683,120,4
359,-0.8603515625,0.21826171875,0.232421875,80.3658536585366,-137.7439024390244,45.36585365853659,120,4
360,-0.8525390625,0.240234375,0.2470703125,79.39024390243902,-138.109756097561,46.21951219512196,120,4
361,-0.81787109375,0.255859375,0.2783203125,78.10975609756099,-138.109756097561,47.43902439024391,120,4
362,-0.775390625,0.26416015625,0.3076171875,76.70731707317074,-138.0487804878049,48.65853658536586,120,4
363,-0.7607421875,0.25732421875,0.31005859375,75.79268292682927,-138.59756097560978,48.963414634146346,120,4
364,-0.74072265625,0.24365234375,0.31005859375,77.01219512195122,-140.85365853658539,49.085365853658544,120,4
365,-0.7314453125,0.25244140625,0.36474609375,77.7439024390244,-141.52439024390245,48.53658536585366,120,4
366,-0.72021484375,0.25634765625,0.40625,73.35365853658537,-139.39024390243904,48.35365853658537,120,4
367,-0.72021484375,0.29150390625,0.43994140625,68.65853658536587,-137.8048780487805,49.085365853658544,120,4
368,-0.72314453125,0.29541015625,0.42919921875,65.79268292682927,-138.109756097561,50.304878048780495,120,4
369,-0.72412109375,0.27587890625,0.416015625,65.2439024390244,-137.9878048780488,50.670731707317074,120,4
370,-0.705078125,0.28759765625,0.43994140625,67.5609756097561,-139.14634146341464,51.585365853658544,120,4
371,-0.6787109375,0.2958984375,0.48681640625,68.53658536585367,-138.0487804878049,51.34146341463415,120,4
372,-0.63671875,0.326171875,0.51123046875,67.37804878048782,-136.34146341463415,51.524390243902445,120,4
373,-0.6083984375,0.32666015625,0.5224609375,65.91463414634147,-134.14634146341464,51.951219512195124,120,4
374,-0.60205078125,0.33544921875,0.51318359375,65.97560975609757,-134.32926829268294,52.43902439024391,120,4
375,-0.591796875,0.34228515625,0.4892578125,67.19512195121952,-135.1829268292683,52.86585365853659,120,4
376,-0.59716796875,0.33447265625,0.49169921875,67.5609756097561,-134.45121951219514,52.19512195121952,120,4
377,-0.5908203125,0.34423828125,0.51123046875,64.32926829268293,-132.19512195121953,52.07317073170732,120,4
378,-0.57861328125,0.365234375,0.50244140625,61.95121951219513,-130.5487804878049,53.17073170731708,120,4
379,-0.5693359375,0.37255859375,0.52587890625,59.268292682926834,-130.2439024390244,53.963414634146346,120,4
380,-0.5751953125,0.36083984375,0.5380859375,59.63414634146342,-131.64634146341464,55.243902439024396,120,4
381,-0.5654296875,0.36279296875,0.5537109375,62.25609756097562,-132.6829268292683,56.463414634146346,120,4
382,-0.53125,0.2509765625,0.56298828125,65.3048780487805,-133.65853658536585,57.987804878048784,120,4
383,-0.50927734375,0.3837890625,0.572265625,63.53658536585366,-130.4268292682927,58.23170731707317,120,4
384,-0.46923828125,0.423828125,0.58837890625,60.60975609756098,-128.41463414634148,59.87804878048781,120,4
385,-0.43701171875,0.43310546875,0.58984375,59.085365853658544,-126.89024390243904,61.82926829268293,120,4
386,-0.4287109375,0.4462890625,0.56884765625,57.43902439024391,-125.1829268292683,63.29268292682927,120,4
387,-0.40185546875,0.45703125,0.5654296875,56.951219512195124,-123.84146341463416,64.63414634146342,120,4
388,-0.37890625,0.46533203125,0.55126953125,56.40243902439025,-123.90243902439026,65.67073170731707,120,4
389,-0.349609375,0.48681640625,0.56640625,56.463414634146346,-124.81707317073172,66.34146341463415,120,4
390,-0.31787109375,0.48486328125,0.59228515625,57.37804878048781,-125.85365853658537,67.19512195121952,120,4
391,-0.31005859375,0.47705078125,0.60693359375,57.743902439024396,-125.85365853658537,67.37804878048782,120,4
392,-0.29541015625,0.5,0.74755859375,58.59756097560976,-125.1829268292683,68.10975609756098,120,4
393,-0.29296875,0.505859375,0.646484375,58.23170731707317,-123.84146341463416,68.96341463414635,120,4
394,-0.2724609375,0.50732421875,0.65625,57.560975609756106,-122.6829268292683,70.0609756097561,120,4
395,-0.2607421875,0.52587890625,0.64599609375,55.304878048780495,-120.12195121951221,70.91463414634147,120,4
396,-0.24169921875,0.54052734375,0.6435546875,55.54878048780488,-119.87804878048782,72.07317073170732,120,4
397,-0.228515625,0.54052734375,0.603515625,57.13414634146342,-120.06097560975611,73.29268292682927,120,4
398,-0.212890625,0.5673828125,0.60205078125,58.84146341463415,-120.00000000000001,74.32926829268294,120,4
399,-0.19775390625,0.57958984375,0.5927734375,58.41463414634147,-119.75609756097562,76.03658536585367,120,4
400,-0.16015625,0.6171875,0.5830078125,58.71951219512196,-120.3658536585366,77.7439024390244,120,4
401,-0.1201171875,0.6396484375,0.5830078125,58.29268292682927,-121.09756097560977,78.71951219512196,120,4
402,-0.10498046875,0.64794921875,0.58740234375,55.97560975609757,-121.34146341463416,80.54878048780489,120,4
403,-0.10400390625,0.638671875,0.61083984375,51.89024390243903,-119.39024390243904,81.46341463414635,120,4
404,-0.07958984375,0.64794921875,0.66796875,45.36585365853659,-115.60975609756099,81.82926829268294,120,4
405,-0.0546875,0.6201171875,0.69287109375,39.268292682926834,-109.81707317073172,81.82926829268294,120,4
406,-0.013671875,0.61572265625,0.6884765625,36.58536585365854,-105.3048780487805,81.76829268292684,120,4
407,0.0146484375,0.626953125,0.65966796875,38.04878048780488,-103.96341463414635,81.76829268292684,120,4
408,0.04833984375,0.638671875,0.642578125,40.91463414634147,-105.1219512195122,81.52439024390245,120,4
409,0.06787109375,0.6357421875,0.61083984375,43.65853658536586,-107.19512195121952,82.25609756097562,120,4
410,0.05908203125,0.611328125,0.5830078125,42.43902439024391,-105.54878048780489,81.15853658536587,120,4
411,0.07861328125,0.658203125,0.60205078125,40.97560975609756,-102.56097560975611,79.51219512195122,120,4
412,0.10400390625,0.6806640625,0.61328125,37.37804878048781,-99.39024390243904,79.32926829268294,120,4
413,0.14599609375,0.6943359375,0.61083984375,34.146341463414636,-96.82926829268294,80.1829268292683,120,4
414,0.1474609375,0.6728515625,0.60302734375,31.646341463414636,-95.3658536585366,80.67073170731707,120,4
415,0.16015625,0.66455078125,0.57568359375,33.23170731707317,-95.00000000000001,80.48780487804879,120,4
416,0.1875,0.6513671875,0.59375,35.91463414634147,-95.1219512195122,79.57317073170732,120,4
417,0.2099609375,0.65966796875,0.59521484375,39.51219512195122,-97.07317073170732,78.96341463414635,120,4
418,0.21044921875,0.65625,0.580078125,42.19512195121951,-95.91463414634147,77.43902439024392,120,4
419,0.23291015625,0.673828125,0.58642578125,42.987804878048784,-94.32926829268294,76.15853658536587,120,4
420,0.23876953125,0.67431640625,0.56298828125,42.01219512195122,-91.95121951219512,75.1829268292683,120,4
421,0.2412109375,0.68896484375,0.54931640625,38.84146341463415,-89.08536585365854,75.1219512195122,120,4
422,0.23486328125,0.69677734375,0.53173828125,35.0,-86.28048780487805,76.09756097560977,120,4
423,0.2265625,0.68994140625,0.52685546875,31.707317073170735,-82.50000000000001,76.64634146341464,120,4
424,0.2607421875,0.689453125,0.5341796875,30.914634146341466,-80.79268292682927,77.92682926829269,120,4
425,0.27783203125,0.6591796875,0.53173828125,32.19512195121951,-79.87804878048782,79.14634146341464,120,4
426,0.2939453125,0.62548828125,0.515625,34.69512195121951,-81.82926829268294,80.54878048780489,120,4
427,0.2958984375,0.6142578125,0.4853515625,37.43902439024391,-83.35365853658537,79.87804878048782,120,4
428,0.32421875,0.62451171875,0.490234375,38.47560975609756,-82.8658536585366,78.71951219512196,120,4
429,0.33935546875,0.64404296875,0.5185546875,32.987804878048784,-79.63414634146342,77.5,120,4
430,0.357421875,0.65478515625,0.51513671875,25.975609756097562,-75.73170731707317,76.64634146341464,120,4
431,0.380859375,0.64892578125,0.53466796875,21.28048780487805,-71.89024390243902,74.75609756097562,120,4
432,0.400390625,0.6396484375,0.53466796875,19.390243902439025,-70.0609756097561,73.59756097560977,120,4
433,0.40869140625,0.60498046875,0.6201171875,20.0,-68.84146341463415,72.5,120,4
434,0.40771484375,0.60205078125,0.47314453125,22.31707317073171,-68.59756097560977,71.34146341463415,120,4
435,0.4052734375,0.62109375,0.435546875,25.914634146341466,-68.84146341463415,70.60975609756098,120,4
436,0.42822265625,0.62646484375,0.38232421875,27.743902439024392,-68.29268292682927,69.45121951219512,120,4
437,0.44140625,0.65234375,0.376953125,27.073170731707318,-69.14634146341464,69.45121951219512,120,4
438,0.42919921875,0.669921875,0.49462890625,24.451219512195124,-68.23170731707317,68.35365853658537,120,4
439,0.435546875,0.68212890625,0.3974609375,18.84146341463415,-65.60975609756098,66.34146341463415,120,4
440,0.44384765625,0.6826171875,0.4462890625,13.109756097560977,-62.6219512195122,65.0609756097561,120,4
441,0.451171875,0.67626953125,0.451171875,10.0,-61.09756097560976,64.20731707317074,120,4
442,0.46533203125,0.6640625,0.43896484375,8.597560975609756,-61.21951219512196,63.59756097560976,120,4
443,0.45947265625,0.6201171875,0.41943359375,8.719512195121952,-61.95121951219513,63.47560975609757,120,4
444,0.45849609375,0.6162109375,0.38916015625,10.731707317073171,-63.47560975609757,63.53658536585366,120,4
445,0.4609375,0.61767578125,0.35888671875,12.01219512195122,-63.35365853658537,62.43902439024391,120,4
446,0.4599609375,0.64208984375,0.37939453125,12.134146341463415,-63.04878048780488,61.768292682926834,120,4
447,0.46533203125,0.65576171875,0.39404296875,11.52439024390244,-61.585365853658544,60.91463414634147,120,4
448,0.46875,0.65625,0.39892578125,9.085365853658537,-58.71951219512196,59.63414634146342,120,4
449,0.4853515625,0.65966796875,0.400390625,8.231707317073171,-56.646341463414636,58.35365853658537,120,4
450,0.375,0.64892578125,0.4189453125,8.536585365853659,-54.57317073170732,57.25609756097561,120,4
451,0.52099609375,0.63525390625,0.43017578125,10.0,-53.41463414634147,55.60975609756098,120,4
452,0.52783203125,0.62548828125,0.40869140625,11.646341463414634,-51.28048780487806,53.59756097560976,120,4
453,0.51953125,0.63427734375,0.49853515625,13.719512195121952,-50.670731707317074,52.6829268292683,120,4
454,0.515625,0.68896484375,0.37109375,13.963414634146343,-49.93902439024391,52.37804878048781,120,4
455,0.5322265625,0.716796875,0.498046875,11.646341463414634,-48.23170731707317,51.707317073170735,120,4
456,0.53662109375,0.73583984375,0.38232421875,8.658536585365855,-46.34146341463415,50.670731707317074,120,4
457,0.5234375,0.7333984375,0.40869140625,6.890243902439025,-45.36585365853659,49.085365853658544,120,4
458,0.53564453125,0.72509765625,0.43359375,5.731707317073171,-44.57317073170732,46.82926829268293,120,4
459,0.5380859375,0.72265625,0.45263671875,3.963414634146342,-43.59756097560976,44.207317073170735,120,4
460,0.54296875,0.7080078125,0.4365234375,3.048780487804878,-43.35365853658537,41.40243902439025,120,4
461,0.5244140625,0.70751953125,0.42138671875,2.7439024390243905,-42.50000000000001,38.23170731707317,120,4
462,0.53857421875,0.71728515625,0.43017578125,2.7439024390243905,-41.951219512195124,36.524390243902445,120,4
463,0.5478515625,0.73046875,0.443359375,1.8902439024390245,-39.207317073170735,33.59756097560976,120,4
464,0.56201171875,0.73779296875,0.46142578125,1.0365853658536586,-36.524390243902445,31.34146341463415,120,4
465,0.56884765625,0.77001953125,0.474609375,0.48780487804878053,-33.04878048780488,28.475609756097562,120,4
466,0.56787109375,0.76708984375,0.470703125,1.0975609756097562,-46.768292682926834,26.158536585365855,120,4
467,0.560546875,0.76318359375,0.46630859375,0.9146341463414634,-28.353658536585368,22.682926829268293,120,4
468,0.55419921875,0.7734375,0.4345703125,-0.30487804878048785,-25.121951219512198,19.26829268292683,120,4
469,0.5712890625,0.796875,0.43994140625,-1.2804878048780488,-22.195121951219512,16.219512195121954,120,4
470,0.576171875,0.79248046875,0.44287109375,-1.402439024390244,-19.573170731707318,13.170731707317074,120,4
471,0.5693359375,0.7607421875,0.4462890625,-0.9756097560975611,-16.890243902439025,10.365853658536587,120,4
472,0.5458984375,0.73193359375,0.453125,-1.0975609756097562,-13.597560975609758,7.073170731707318,120,4
473,0.5498046875,0.72998046875,0.44091796875,-0.7317073170731708,-10.487804878048781,4.2682926829268295,120,4
474,0.5712890625,0.71875,0.43603515625,-1.402439024390244,-6.52439024390244,1.0365853658536586,120,4
475,0.58154296875,0.69970703125,0.4228515625,-2.25609756097561,-3.048780487804878,-1.402439024390244,120,4
476,0.59619140625,0.6943359375,0.40576171875,-3.4756097560975614,0.30487804878048785,-4.390243902439025,120,4
477,0.59814453125,0.6748046875,0.39306640625,-3.4756097560975614,2.8658536585365857,-6.890243902439025,120,4
478,0.59375,0.65283203125,0.25,-2.439024390243903,3.8414634146341466,-9.451219512195122,120,4
479,0.5869140625,0.61279296875,0.34326171875,-0.48780487804878053,3.5975609756097566,-11.707317073170733,120,4
480,0.58349609375,0.5859375,0.29248046875,0.853658536585366,4.085365853658537,-14.817073170731708,120,4
481,0.5869140625,0.56494140625,0.2763671875,1.2804878048780488,4.451219512195122,-17.012195121951223,120,4
482,0.583984375,0.56494140625,0.28466796875,0.1829268292682927,5.365853658536586,-18.10975609756098,120,4
483,0.5859375,0.52685546875,0.26171875,-1.524390243902439,7.01219512195122,-18.719512195121954,120,4
484,0.55517578125,0.48681640625,0.25390625,-3.1097560975609757,9.02439024390244,-19.81707317073171,120,4
485,0.548828125,0.47314453125,0.255859375,-4.2682926829268295,10.853658536585368,-20.426829268292686,120,4
486,0.5615234375,0.4541015625,0.26171875,-5.548780487804878,11.52439024390244,-15.731707317073171,120,4
487,0.4658203125,0.48046875,0.24755859375,-5.7926829268292686,13.78048780487805,-21.03658536585366,120,4
488,0.54150390625,0.42919921875,0.12548828125,-8.048780487804878,15.30487804878049,-19.878048780487806,120,4
489,0.5400390625,0.419921875,0.2294921875,-8.719512195121952,14.329268292682928,-18.963414634146343,120,4
490,0.5693359375,0.3828125,0.16748046875,-7.134146341463415,11.341463414634147,-19.146341463414636,120,4
491,0.4921875,0.34716796875,0.1376953125,-5.914634146341464,9.085365853658537,-19.146341463414636,120,4
492,0.490234375,0.357421875,0.13671875,-4.024390243902439,4.146341463414634,-18.475609756097562,120,4
493,0.537109375,0.2509765625,0.15087890625,-5.914634146341464,4.695121951219512,-17.865853658536587,120,4
494,0.49560546875,0.35791015625,0.1484375,-10.426829268292684,5.121951219512195,-16.28048780487805,120,4
495,0.48974609375,0.365234375,0.154296875,-15.000000000000002,6.585365853658537,-15.243902439024392,120,4
496,0.4833984375,0.36279296875,0.18017578125,-17.865853658536587,6.951219512195123,-13.719512195121952,120,4
497,0.4765625,0.345703125,0.18994140625,-18.84146341463415,6.036585365853659,-12.195121951219512,120,4
498,0.466796875,0.34375,0.1806640625,-18.170731707317074,5.060975609756098,-10.792682926829269,120,4
499,0.46826171875,0.33935546875,0.18798828125,-17.621951219512198,4.085365853658537,-9.451219512195122,120,4
