,Ax,Ay,Az,Gx,Gy,Gz,distance,shot_type
0,0.77734375,-0.353515625,-0.26708984375,14.02439024390244,-2.1341463414634148,-5.2439024390243905,110,6
1,0.75439453125,-0.396484375,-0.30908203125,12.987804878048781,-1.7682926829268295,-5.121951219512195,110,6
2,0.7119140625,-0.4345703125,-0.30322265625,11.76829268292683,-1.1585365853658538,-5.426829268292684,110,6
3,0.70166015625,-0.4365234375,-0.271484375,11.219512195121952,-0.7317073170731708,-6.036585365853659,110,6
4,0.70166015625,-0.44580078125,-0.2783203125,11.158536585365855,0.3658536585365854,-6.341463414634147,110,6
5,0.68994140625,-0.4453125,-0.27099609375,11.158536585365855,1.5853658536585367,-6.585365853658537,110,6
6,0.68701171875,-0.44873046875,-0.25634765625,11.097560975609756,2.378048780487805,-7.621951219512196,110,6
7,0.69091796875,-0.435546875,-0.24951171875,12.926829268292684,2.073170731707317,-7.743902439024391,110,6
8,0.66943359375,-0.462890625,-0.23486328125,15.000000000000002,2.804878048780488,-7.073170731707318,110,6
9,0.64453125,-0.49853515625,-0.22021484375,18.29268292682927,3.231707317073171,-6.341463414634147,110,6
10,0.61962890625,-0.5625,-0.19140625,22.865853658536587,2.1951219512195124,-5.670731707317073,110,6
11,0.62109375,-0.56689453125,-0.2158203125,27.5609756097561,0.12195121951219513,-5.609756097560976,110,6
12,0.61767578125,-0.5556640625,-0.2421875,31.58536585365854,-1.1585365853658538,-3.7195121951219514,110,6
13,0.5048828125,-0.52880859375,-0.2978515625,34.57317073170732,-6.097560975609756,-3.9024390243902443,110,6
14,0.72607421875,-0.4462890625,-0.37646484375,34.08536585365854,-3.5975609756097566,-3.353658536585366,110,6
15,0.7509765625,-0.4404296875,-0.4150390625,27.134146341463417,1.6463414634146343,-4.634146341463415,110,6
16,0.763671875,-0.451171875,-0.39501953125,18.902439024390244,7.743902439024391,-5.3048780487804885,110,6
17,0.74560546875,-0.50146484375,-0.39208984375,11.341463414634147,11.890243902439025,-5.609756097560976,110,6
18,0.73681640625,-0.51611328125,-0.37158203125,6.158536585365854,14.695121951219514,-6.52439024390244,110,6
19,0.720703125,-0.55419921875,-0.32763671875,4.207317073170732,15.54878048780488,-6.2804878048780495,110,6
20,0.66015625,-0.609375,-0.2890625,2.5609756097560976,16.03658536585366,-5.548780487804878,110,6
21,0.630859375,-0.63427734375,-0.26220703125,0.426829268292683,16.951219512195124,-4.207317073170732,110,6
22,0.62646484375,-0.6201171875,-0.2431640625,0.48780487804878053,17.5609756097561,-2.804878048780488,110,6
23,0.60400390625,-0.6171875,-0.18994140625,1.2804878048780488,17.439024390243905,-0.9146341463414634,110,6
24,0.58349609375,-0.615234375,-0.173828125,4.390243902439025,31.03658536585366,0.853658536585366,110,6
25,0.5673828125,-0.60205078125,-0.166015625,13.78048780487805,9.02439024390244,2.682926829268293,110,6
26,0.587890625,-0.61767578125,-0.1767578125,22.80487804878049,2.804878048780488,4.329268292682928,110,6
27,0.5966796875,-0.6142578125,-0.201171875,16.03658536585366,-3.9024390243902443,6.707317073170732,110,6
28,0.591796875,-0.60986328125,-0.2685546875,39.390243902439025,-10.426829268292684,8.902439024390244,110,6
29,0.615234375,-0.599609375,-0.3017578125,45.60975609756098,-16.76829268292683,10.975609756097562,110,6
30,0.638671875,-0.576171875,-0.251953125,49.024390243902445,-21.28048780487805,12.195121951219512,110,6
31,0.66357421875,-0.55224609375,-0.40478515625,47.804878048780495,-22.012195121951223,12.682926829268293,110,6
32,0.677734375,-0.5302734375,-0.4306640625,42.987804878048784,-20.426829268292686,12.74390243902439,110,6
33,0.6884765625,-0.5205078125,-0.42578125,36.524390243902445,-17.25609756097561,12.256097560975611,110,6
34,0.69091796875,-0.51611328125,-0.41455078125,27.743902439024392,-12.439024390243903,11.585365853658537,110,6
35,0.6845703125,-0.4892578125,-0.37548828125,20.182926829268293,-8.475609756097562,10.731707317073171,110,6
36,0.6806640625,-0.5009765625,-0.357421875,13.536585365853659,-5.3048780487804885,10.670731707317074,110,6
37,0.6484375,-0.51806640625,-0.3603515625,9.695121951219512,-4.329268292682928,10.487804878048781,110,6
38,0.611328125,-0.53369140625,-0.35400390625,9.634146341463415,-5.3048780487804885,9.26829268292683,110,6
39,0.62744140625,-0.52734375,-0.3447265625,10.30487804878049,-6.402439024390245,8.048780487804878,110,6
40,0.6533203125,-0.50146484375,-0.337890625,10.975609756097562,-6.707317073170732,6.707317073170732,110,6
41,0.64404296875,-0.533203125,-0.33837890625,9.390243902439025,-5.487804878048781,7.25609756097561,110,6
42,0.74267578125,-0.556640625,-0.33251953125,6.52439024390244,-3.8414634146341466,7.134146341463415,110,6
43,0.6162109375,-0.54931640625,-0.33349609375,3.231707317073171,-1.9512195121951221,6.219512195121951,110,6
44,0.65625,-0.5205078125,-0.3369140625,0.12195121951219513,0.3658536585365854,5.365853658536586,110,6
45,0.67919921875,-0.50390625,-0.341796875,-3.231707317073171,2.439024390243903,4.085365853658537,110,6
46,0.67626953125,-0.4970703125,-0.35888671875,-5.609756097560976,2.804878048780488,3.1097560975609757,110,6
47,0.6982421875,-0.4833984375,-0.3740234375,-7.195121951219513,2.5,1.0365853658536586,110,6
48,0.72998046875,-0.43896484375,-0.35302734375,-8.475609756097562,0.853658536585366,-0.7317073170731708,110,6
49,0.7255859375,-0.4423828125,-0.3603515625,-5.853658536585367,-4.390243902439025,-1.0975609756097562,110,6
50,0.66357421875,-0.51171875,-0.33642578125,-0.9756097560975611,-8.963414634146343,-0.30487804878048785,110,6
51,0.6689453125,-0.55517578125,-0.3095703125,3.2926829268292686,-11.951219512195124,-0.1829268292682927,110,6
52,0.68505859375,-0.54248046875,-0.2861328125,3.4756097560975614,-11.402439024390246,15.54878048780488,110,6
53,0.69287109375,-0.50732421875,-0.2607421875,2.1951219512195124,-9.329268292682928,0.12195121951219513,110,6
54,0.6787109375,-0.38671875,-0.23095703125,1.0365853658536586,-6.646341463414635,0.9756097560975611,110,6
55,0.66015625,-0.51123046875,-0.216796875,-1.2195121951219514,-2.3170731707317076,0.7926829268292683,110,6
56,0.67333984375,-0.49755859375,-0.2099609375,-4.51219512195122,2.1341463414634148,0.6707317073170732,110,6
57,0.69677734375,-0.4638671875,-0.23291015625,-9.26829268292683,6.52439024390244,0.24390243902439027,110,6
58,0.712890625,-0.43408203125,-0.2275390625,-13.536585365853659,11.890243902439025,-15.609756097560977,110,6
59,0.71630859375,-0.4404296875,-0.17822265625,-14.939024390243905,15.000000000000002,0.24390243902439027,110,6
60,0.68798828125,-0.4765625,-0.17919921875,-13.902439024390246,14.451219512195124,-0.426829268292683,110,6
61,0.6982421875,-0.4833984375,-0.20751953125,-10.487804878048781,12.256097560975611,-0.7317073170731708,110,6
62,0.67626953125,-0.48681640625,-0.24169921875,-5.731707317073171,9.51219512195122,-0.853658536585366,110,6
63,0.6640625,-0.51513671875,-0.240234375,-0.9756097560975611,7.439024390243903,-0.5487804878048781,110,6
64,0.6630859375,-0.5556640625,-0.23828125,0.6097560975609757,7.134146341463415,-0.7926829268292683,110,6
65,0.68603515625,-0.53125,-0.24462890625,0.48780487804878053,9.146341463414634,-1.3414634146341464,110,6
66,0.68994140625,-0.52880859375,-0.2294921875,-1.829268292682927,12.317073170731708,-1.6463414634146343,110,6
67,0.69482421875,-0.5224609375,-0.2275390625,-5.975609756097562,17.804878048780488,-1.9512195121951221,110,6
68,0.72314453125,-0.4873046875,-0.2294921875,-11.890243902439025,24.085365853658537,-2.6219512195121952,110,6
69,0.73876953125,-0.4755859375,-0.21923828125,-17.5,28.170731707317074,-2.8658536585365857,110,6
70,0.71923828125,-0.49755859375,-0.1953125,-20.182926829268293,31.707317073170735,-2.25609756097561,110,6
71,0.69775390625,-0.521484375,-0.1572265625,-17.5,30.54878048780488,-2.5609756097560976,110,6
72,0.701171875,-0.52587890625,-0.13623046875,-12.195121951219512,27.073170731707318,-2.439024390243903,110,6
73,0.68505859375,-0.53564453125,-0.16259765625,-7.073170731707318,23.658536585365855,-2.378048780487805,110,6
74,0.67919921875,-0.5439453125,-0.18505859375,-2.439024390243903,20.79268292682927,-2.0121951219512195,110,6
75,0.671875,-0.5595703125,-0.1953125,-0.06097560975609757,19.573170731707318,-2.3170731707317076,110,6
76,0.69140625,-0.5546875,-0.2001953125,0.30487804878048785,20.79268292682927,-2.5,110,6
77,0.7119140625,-0.53173828125,-0.197265625,-0.3658536585365854,22.195121951219512,-2.7439024390243905,110,6
78,0.72216796875,-0.521484375,-0.21484375,-3.1097560975609757,24.26829268292683,-3.780487804878049,110,6
79,0.736328125,-0.4951171875,-0.2236328125,-5.0,26.219512195121954,-4.451219512195122,110,6
80,0.716796875,-0.51904296875,-0.23486328125,-5.7926829268292686,26.09756097560976,-3.658536585365854,110,6
81,0.66650390625,-0.57568359375,-0.20263671875,-5.121951219512195,26.951219512195124,-2.5609756097560976,110,6
82,0.50390625,-0.615234375,-0.15380859375,-2.0121951219512195,26.951219512195124,-1.8902439024390245,110,6
83,0.63623046875,-0.609375,-0.12158203125,2.0121951219512195,26.707317073170735,-0.9756097560975611,110,6
84,0.64111328125,-0.57470703125,-0.12646484375,6.585365853658537,26.09756097560976,-0.7926829268292683,110,6
85,0.66015625,-0.56005859375,-0.248046875,7.560975609756098,28.292682926829272,-0.30487804878048785,110,6
86,0.6640625,-0.54833984375,-0.115234375,6.341463414634147,32.987804878048784,0.6097560975609757,110,6
87,0.66357421875,-0.5625,-0.0634765625,3.780487804878049,38.59756097560976,1.2804878048780488,110,6
88,0.6650390625,-0.5537109375,-0.05224609375,0.7926829268292683,44.81707317073171,3.048780487804878,110,6
89,0.64892578125,-0.572265625,-0.06005859375,-4.146341463414634,51.34146341463415,4.695121951219512,110,6
90,0.65185546875,-0.5859375,-0.07666015625,-8.170731707317074,57.6219512195122,6.402439024390245,110,6
91,0.638671875,-0.59130859375,-0.07373046875,-10.914634146341465,60.54878048780488,7.560975609756098,110,6
92,0.673828125,-0.5791015625,-0.09130859375,-8.902439024390244,59.51219512195122,8.536585365853659,110,6
93,0.6875,-0.57177734375,-0.09521484375,-3.5975609756097566,57.43902439024391,9.51219512195122,110,6
94,0.70751953125,-0.56494140625,-0.0693359375,-1.2195121951219514,59.085365853658544,9.756097560975611,110,6
95,0.71728515625,-0.53662109375,-0.0849609375,-3.963414634146342,46.951219512195124,9.817073170731708,110,6
96,0.72412109375,-0.51171875,-0.09521484375,-7.926829268292684,67.6829268292683,10.121951219512196,110,6
97,0.720703125,-0.48828125,-0.0859375,-15.000000000000002,73.10975609756098,10.365853658536587,110,6
98,0.7119140625,-0.49755859375,-0.1201171875,-24.02439024390244,77.31707317073172,10.853658536585368,110,6
99,0.7275390625,-0.45703125,-0.1787109375,-28.902439024390247,80.79268292682927,10.670731707317074,110,6
100,0.7685546875,-0.41845703125,-0.2080078125,-33.23170731707317,85.79268292682927,10.548780487804878,110,6
101,0.77587890625,-0.41796875,-0.208984375,-39.32926829268293,91.15853658536587,9.878048780487806,110,6
102,0.783203125,-0.419921875,-0.19580078125,-42.37804878048781,93.59756097560977,10.365853658536587,110,6
103,0.7548828125,-0.4521484375,-0.201171875,-43.35365853658537,109.08536585365854,10.670731707317074,110,6
104,0.7119140625,-0.47216796875,-0.20947265625,-44.75609756097561,91.15853658536587,11.341463414634147,110,6
105,0.6943359375,-0.453125,-0.23974609375,-41.646341463414636,87.8658536585366,12.500000000000002,110,6
106,0.68505859375,-0.43701171875,-0.32421875,-43.65853658536586,84.57317073170732,12.378048780487806,110,6
107,0.7294921875,-0.32421875,-0.43115234375,-45.00000000000001,79.02439024390245,10.914634146341465,110,6
108,0.82177734375,-0.1826171875,-0.43798828125,-51.82926829268293,80.3048780487805,8.597560975609756,110,6
109,0.869140625,-0.16015625,-0.40283203125,-63.90243902439025,82.37804878048782,5.182926829268293,110,6
110,0.83154296875,-0.22900390625,-0.49462890625,-72.7439024390244,84.08536585365854,2.1951219512195124,110,6
111,0.787109375,-0.2744140625,-0.306640625,-74.63414634146342,81.21951219512196,0.06097560975609757,110,6
112,0.7314453125,-0.32373046875,-0.31640625,-70.0,73.04878048780489,-0.7926829268292683,110,6
113,0.671875,-0.36669921875,-0.30615234375,-60.97560975609757,63.65853658536586,-15.609756097560977,110,6
114,0.66943359375,-0.376953125,-0.34765625,-53.963414634146346,55.54878048780488,-0.7317073170731708,110,6
115,0.71533203125,-0.2724609375,-0.498046875,-50.243902439024396,51.09756097560976,-2.804878048780488,110,6
116,0.7421875,-0.232421875,-0.25732421875,-52.86585365853659,48.170731707317074,-4.146341463414634,110,6
117,0.7421875,-0.18896484375,-0.41552734375,-56.15853658536586,46.58536585365854,-7.317073170731708,110,6
118,0.87060546875,-0.19189453125,-0.4208984375,-59.57317073170732,43.84146341463415,-10.731707317073171,110,6
119,0.765625,-0.17919921875,-0.44775390625,-61.15853658536586,38.41463414634147,-13.841463414634148,110,6
120,0.75732421875,-0.173828125,-0.470703125,-61.707317073170735,34.51219512195122,-16.646341463414636,110,6
121,0.7626953125,-0.1572265625,-0.470703125,-63.84146341463415,31.402439024390247,-19.390243902439025,110,6
122,0.765625,-0.14599609375,-0.45849609375,-66.15853658536587,29.87804878048781,-21.951219512195124,110,6
123,0.76806640625,-0.13720703125,-0.4345703125,-69.45121951219512,29.39024390243903,-24.32926829268293,110,6
124,0.74072265625,-0.1611328125,-0.4150390625,-72.37804878048782,27.012195121951223,-25.121951219512198,110,6
125,0.7236328125,-0.16650390625,-0.40966796875,-73.17073170731707,23.719512195121954,-26.34146341463415,110,6
126,0.734375,-0.150390625,-0.42529296875,-74.57317073170732,20.853658536585368,-28.963414634146343,110,6
127,0.744140625,-0.1455078125,-0.451171875,-77.31707317073172,19.32926829268293,-31.76829268292683,110,6
128,0.75830078125,-0.14990234375,-0.47607421875,-80.48780487804879,18.231707317073173,-34.81707317073171,110,6
129,0.7734375,-0.14453125,-0.45556640625,-82.6829268292683,16.890243902439025,-37.743902439024396,110,6
130,0.78076171875,-0.13427734375,-0.44287109375,-85.60975609756099,15.426829268292684,-41.03658536585366,110,6
131,0.79833984375,-0.1103515625,-0.4443359375,-89.81707317073172,13.963414634146343,-44.08536585365854,110,6
132,0.79833984375,-0.1201171875,-0.45654296875,-94.93902439024392,13.475609756097562,-47.926829268292686,110,6
133,0.8134765625,-0.10693359375,-0.45751953125,-100.1219512195122,13.04878048780488,-50.97560975609756,110,6
134,0.82177734375,-0.1103515625,-0.4287109375,-104.14634146341464,11.097560975609756,-54.146341463414636,110,6
135,0.85400390625,-0.10009765625,-0.4697265625,-108.71951219512196,9.878048780487806,-57.743902439024396,110,6
136,0.85595703125,-0.10693359375,-0.4931640625,-112.6219512195122,8.536585365853659,-60.85365853658537,110,6
137,0.87060546875,-0.00048828125,-0.501953125,-115.3048780487805,7.500000000000001,-64.20731707317074,110,6
138,0.89404296875,-0.138671875,-0.47802734375,-118.65853658536587,8.109756097560977,-67.31707317073172,110,6
139,0.921875,-0.130859375,-0.48291015625,-124.32926829268294,10.121951219512196,-69.81707317073172,110,6
140,0.95654296875,-0.1083984375,-0.4951171875,-129.69512195121953,9.878048780487806,-72.5609756097561,110,6
141,0.9541015625,-0.07763671875,-0.51806640625,-134.81707317073173,9.451219512195122,-75.42682926829269,110,6
142,0.9736328125,-0.09130859375,-0.3798828125,-125.1829268292683,9.817073170731708,-77.98780487804879,110,6
143,1.00048828125,-0.09375,-0.541015625,-146.95121951219514,11.341463414634147,-81.58536585365854,110,6
144,1.021484375,-0.078125,-0.53955078125,-152.9878048780488,12.560975609756099,-85.97560975609757,110,6
145,1.03515625,-0.06982421875,-0.5263671875,-156.46341463414635,11.28048780487805,-89.93902439024392,110,6
146,1.06640625,-0.068359375,-0.61328125,-159.93902439024393,8.536585365853659,-95.60975609756099,110,6
147,1.08251953125,-0.0537109375,-0.7490234375,-163.35365853658539,8.414634146341465,-100.60975609756099,110,6
148,1.1162109375,-0.060546875,-0.6064453125,-166.03658536585368,7.987804878048781,-104.63414634146342,110,6
149,1.16162109375,-0.07421875,-0.5849609375,-168.53658536585368,8.231707317073171,-107.7439024390244,110,6
150,1.19580078125,-0.05517578125,-0.62548828125,-173.90243902439025,9.207317073170733,-110.85365853658537,110,6
151,1.20068359375,-0.04931640625,-0.646484375,-182.8658536585366,12.439024390243903,-113.96341463414635,110,6
152,1.203125,-0.07373046875,-0.6435546875,-189.39024390243904,16.097560975609756,-116.58536585365854,110,6
153,1.2275390625,-0.10546875,-0.64306640625,-192.6829268292683,19.085365853658537,-120.2439024390244,110,6
154,1.271484375,-0.095703125,-0.7060546875,-195.2439024390244,19.207317073170735,-124.14634146341464,110,6
155,1.27734375,-0.06884765625,-0.73583984375,-196.09756097560978,19.512195121951223,-128.35365853658539,110,6
156,1.2978515625,-0.07373046875,-0.751953125,-197.13414634146343,19.939024390243905,-132.9878048780488,110,6
157,1.32470703125,-0.0537109375,-0.69384765625,-198.47560975609758,21.158536585365855,-136.15853658536585,110,6
158,1.3310546875,-0.06396484375,-0.69482421875,-199.26829268292684,20.914634146341466,-139.69512195121953,110,6
159,1.3212890625,-0.06787109375,-0.7158203125,-199.57317073170734,20.54878048780488,-144.20731707317074,110,6
160,1.32568359375,-0.0537109375,-0.7080078125,-197.8658536585366,19.207317073170735,-149.08536585365854,110,6
161,1.3583984375,-0.02294921875,-0.66455078125,-195.06097560975613,17.98780487804878,-153.35365853658539,110,6
162,1.396484375,-0.00830078125,-0.6435546875,-192.01219512195124,15.731707317073171,-158.84146341463415,110,6
163,1.43310546875,0.05517578125,-0.66015625,-191.64634146341464,15.79268292682927,-164.87804878048783,110,6
164,1.4736328125,0.08935546875,-0.59033203125,-192.01219512195124,15.975609756097562,-169.08536585365854,110,6
165,1.53466796875,0.1005859375,-0.60009765625,-192.9878048780488,16.097560975609756,-174.20731707317074,110,6
166,1.55419921875,0.1005859375,-0.65283203125,-194.51219512195124,16.097560975609756,-179.81707317073173,110,6
167,1.5888671875,0.1337890625,-0.69921875,-194.08536585365854,14.634146341463415,-187.19512195121953,110,6
168,1.64453125,0.16455078125,-0.6787109375,-190.97560975609758,13.841463414634148,-194.14634146341464,110,6
169,1.7275390625,0.1650390625,-0.67333984375,-190.4268292682927,14.207317073170733,-200.3048780487805,110,6
170,1.7568359375,0.20556640625,-0.70947265625,-194.57317073170734,15.79268292682927,-206.95121951219514,110,6
171,1.71044921875,0.1904296875,-0.70947265625,-200.3658536585366,19.512195121951223,-212.9268292682927,110,6
172,1.7099609375,0.1650390625,-0.6474609375,-202.01219512195124,22.073170731707318,-217.01219512195124,110,6
173,1.68212890625,0.14697265625,-0.5107421875,-201.34146341463418,23.84146341463415,-221.21951219512198,110,6
174,1.6552734375,0.16943359375,-0.64013671875,-201.15853658536588,24.085365853658537,-225.7926829268293,110,6
175,1.65625,0.181640625,-0.6259765625,-200.5487804878049,23.475609756097562,-229.81707317073173,110,6
176,1.67724609375,0.18212890625,-0.60791015625,-197.25609756097563,21.158536585365855,-233.47560975609758,110,6
177,1.66259765625,0.15283203125,-0.50341796875,-194.39024390243904,19.695121951219512,-236.64634146341464,110,6
178,1.7080078125,0.2314453125,-0.59765625,-192.6829268292683,20.48780487804878,-241.34146341463418,110,6
179,1.71875,0.23583984375,-0.548828125,-193.2926829268293,22.378048780487806,-244.20731707317074,110,6
180,1.69580078125,0.2119140625,-0.48828125,-194.63414634146343,26.58536585365854,-247.31707317073173,110,6
181,1.67578125,0.234375,-0.470703125,-198.71951219512198,31.707317073170735,-249.08536585365854,110,6
182,1.6015625,0.2216796875,-0.4365234375,-201.82926829268294,35.670731707317074,-250.6707317073171,110,6
183,1.58837890625,0.21875,-0.48583984375,-200.06097560975613,39.57317073170732,-251.95121951219514,110,6
184,1.56982421875,0.19482421875,-0.2783203125,-196.15853658536588,41.21951219512196,-254.20731707317074,110,6
185,1.5693359375,0.15771484375,-0.2568359375,-190.85365853658539,42.50000000000001,-256.219512195122,110,6
186,1.51708984375,0.12939453125,-0.21240234375,-184.20731707317074,43.29268292682927,-257.8048780487805,110,6
187,1.47900390625,0.1572265625,-0.19677734375,-175.1829268292683,41.707317073170735,-259.69512195121956,110,6
188,1.4423828125,0.16748046875,-0.16796875,-165.6707317073171,41.15853658536586,-262.6829268292683,110,6
189,1.4296875,0.1572265625,-0.24462890625,-171.28048780487805,40.73170731707317,-263.9024390243903,110,6
190,1.3974609375,0.181640625,-0.041015625,-145.4878048780488,38.65853658536586,-264.75609756097566,110,6
191,1.3515625,0.171875,-0.05810546875,-136.95121951219514,38.04878048780488,-266.6463414634147,110,6
192,1.35693359375,0.22412109375,-0.05322265625,-129.26829268292684,38.10975609756098,-268.2926829268293,110,6
193,1.33642578125,0.28125,-0.0400390625,-124.51219512195124,39.451219512195124,-270.6707317073171,110,6
194,1.322265625,0.2724609375,-0.0791015625,-123.53658536585367,44.207317073170735,-271.82926829268297,110,6
195,1.3720703125,0.2373046875,-0.080078125,-124.39024390243904,48.71951219512196,-272.5609756097561,110,6
196,1.1826171875,0.18310546875,-0.052734375,-121.89024390243904,51.09756097560976,-272.3780487804878,110,6
197,1.10498046875,0.09814453125,-0.08251953125,-113.65853658536587,49.51219512195122,-270.0,110,6
198,1.02880859375,0.03271484375,-0.0615234375,-101.82926829268294,47.07317073170732,-266.4634146341464,110,6
199,0.95458984375,0.0009765625,-0.0791015625,-88.84146341463415,42.31707317073171,-262.5609756097561,110,6
200,0.90185546875,0.0048828125,-0.072265625,-75.60975609756098,38.23170731707317,-260.3658536585366,110,6
201,0.99853515625,0.01318359375,-0.0380859375,-67.37804878048782,34.69512195121951,-258.2926829268293,110,6
202,0.8232421875,-0.04443359375,-0.05224609375,-62.50000000000001,32.743902439024396,-255.85365853658539,110,6
203,0.802734375,-0.0341796875,-0.03564453125,-57.6219512195122,30.670731707317074,-254.39024390243904,110,6
204,0.7685546875,-0.072265625,0.02392578125,-53.963414634146346,27.134146341463417,-252.56097560975613,110,6
205,0.71484375,-0.1201171875,0.0078125,-52.6219512195122,23.963414634146343,-249.81707317073173,110,6
206,0.6044921875,-0.1328125,-0.00634765625,-50.97560975609756,22.682926829268293,-246.15853658536588,110,6
207,0.5185546875,-0.33447265625,0.03662109375,-50.73170731707317,21.34146341463415,-240.7926829268293,110,6
208,0.423828125,-0.42724609375,0.0888671875,-49.81707317073171,24.573170731707318,-234.75609756097563,110,6
209,0.251953125,-0.4296875,0.2041015625,-50.85365853658537,26.09756097560976,-227.13414634146343,110,6
210,0.35888671875,-0.50146484375,0.12744140625,-55.1829268292683,15.914634146341465,-219.32926829268294,110,6
211,0.1259765625,-0.5439453125,0.2861328125,-59.32926829268293,35.1829268292683,-211.40243902439028,110,6
212,0.03125,-0.7353515625,0.34130859375,-61.768292682926834,37.743902439024396,-201.34146341463418,110,6
213,-0.09521484375,-0.70654296875,0.2783203125,-61.34146341463415,41.09756097560976,-190.6707317073171,110,6
214,-0.21044921875,-0.77294921875,0.41357421875,-63.59756097560976,46.09756097560976,-176.70731707317074,110,6
215,-0.39306640625,-0.849609375,0.5166015625,-63.963414634146346,45.487804878048784,-162.8658536585366,110,6
216,-0.39111328125,-0.7685546875,0.578125,-61.463414634146346,62.25609756097562,-147.13414634146343,110,6
217,-0.61865234375,-0.96240234375,0.58203125,-56.40243902439025,48.78048780487805,-131.82926829268294,110,6
218,-0.6748046875,-0.990234375,0.64990234375,-54.451219512195124,43.47560975609756,-116.95121951219514,110,6
219,-0.68505859375,-1.04541015625,0.71630859375,-49.63414634146342,45.36585365853659,-102.13414634146342,110,6
220,-0.740234375,-1.0732421875,0.6787109375,-43.10975609756098,45.304878048780495,-85.00000000000001,110,6
221,-0.6513671875,-1.15185546875,0.69873046875,-34.08536585365854,41.707317073170735,-68.29268292682927,110,6
222,-0.7431640625,-1.16943359375,0.70703125,-22.25609756097561,39.146341463414636,-51.82926829268293,110,6
223,-0.59619140625,-1.2138671875,0.634765625,-11.402439024390246,39.32926829268293,-34.81707317073171,110,6
224,-0.515625,-1.13330078125,0.537109375,-4.695121951219512,44.207317073170735,-15.670731707317074,110,6
225,-0.57421875,-1.32568359375,0.4814453125,-4.75609756097561,46.09756097560976,4.75609756097561,110,6
226,-0.59326171875,-1.25732421875,0.482421875,-3.9024390243902443,49.87804878048781,26.89024390243903,110,6
227,-0.61669921875,-1.44189453125,0.4921875,-0.3658536585365854,50.487804878048784,52.25609756097561,110,6
228,-0.6572265625,-1.5654296875,0.4033203125,3.7195121951219514,50.670731707317074,77.5,110,6
229,-0.66455078125,-1.6630859375,0.337890625,7.987804878048781,49.268292682926834,102.25609756097562,110,6
230,-0.73974609375,-1.72509765625,0.30322265625,14.573170731707318,46.09756097560976,124.20731707317074,110,6
231,-0.52099609375,-1.763671875,0.36083984375,26.89024390243903,42.86585365853659,143.78048780487805,110,6
232,-0.34814453125,-1.78173828125,0.3701171875,37.6829268292683,41.09756097560976,163.41463414634148,110,6
233,-0.2529296875,-1.82958984375,0.2548828125,41.890243902439025,40.487804878048784,182.43902439024393,110,6
234,-0.16259765625,-1.75830078125,0.1787109375,49.207317073170735,37.86585365853659,187.37804878048783,110,6
235,-0.05078125,-1.912109375,0.18310546875,59.93902439024391,35.426829268292686,223.109756097561,110,6
236,0.013671875,-1.94775390625,0.15771484375,66.70731707317074,32.926829268292686,245.7317073170732,110,6
237,0.28173828125,-2.07373046875,0.0654296875,71.40243902439025,30.182926829268297,271.0975609756098,110,6
238,0.45849609375,-2.1611328125,0.0009765625,80.2439024390244,24.573170731707318,296.4024390243903,110,6
239,0.72314453125,-2.197265625,-0.0107421875,89.81707317073172,18.170731707317074,322.5609756097561,110,6
240,0.8955078125,-2.24462890625,-0.0517578125,95.3658536585366,16.52439024390244,352.37804878048786,110,6
241,1.28662109375,-2.35595703125,-0.13427734375,94.63414634146342,17.378048780487806,388.4756097560976,110,6
242,1.408203125,-2.54443359375,-0.24658203125,90.85365853658537,18.231707317073173,429.69512195121956,110,6
243,1.46875,-2.78759765625,-0.26220703125,89.32926829268294,15.79268292682927,473.719512195122,110,6
244,1.61083984375,-2.9765625,-0.560546875,90.73170731707317,8.475609756097562,514.8170731707318,110,6
245,1.763671875,-3.1904296875,-0.736328125,88.84146341463415,-6.463414634146342,553.048780487805,110,6
246,2.36083984375,-3.361328125,-0.9306640625,87.92682926829269,-20.975609756097562,588.4756097560976,110,6
247,2.96923828125,-3.52880859375,-1.13818359375,93.35365853658537,-35.1829268292683,622.6829268292684,110,6
248,3.53857421875,-3.642578125,-1.2705078125,113.84146341463416,-58.29268292682927,659.0853658536586,110,6
249,4.23681640625,-3.98828125,-1.4453125,168.1707317073171,-85.79268292682927,691.829268292683,110,6
250,4.9580078125,-4.05419921875,-1.576171875,244.26829268292684,-105.48780487804879,711.9512195121952,110,6
251,5.833984375,-3.9775390625,-1.6435546875,325.4268292682927,-115.12195121951221,731.6463414634147,110,6
252,6.474609375,-4.0673828125,-1.9833984375,408.9634146341464,-96.40243902439025,749.939024390244,110,6
253,6.9853515625,-4.16259765625,-2.22314453125,514.7560975609756,-76.95121951219512,762.3780487804879,110,6
254,7.55859375,-4.06982421875,-2.5224609375,576.0975609756098,-39.93902439024391,795.0000000000001,110,6
255,8.09716796875,-4.24853515625,-2.97216796875,621.6463414634147,-38.84146341463415,818.1707317073171,110,6
256,8.33837890625,-4.0703125,-3.720703125,652.1951219512196,-50.91463414634147,837.0731707317074,110,6
257,8.787109375,-4.03369140625,-4.0537109375,693.2926829268293,-58.29268292682927,857.1951219512196,110,6
258,9.1943359375,-3.5654296875,-4.14453125,739.7560975609757,-102.43902439024392,877.0731707317074,110,6
259,9.22607421875,-3.56396484375,-4.611328125,807.3170731707318,-141.82926829268294,894.6341463414635,110,6
260,9.2177734375,-3.31298828125,-5.65625,877.0731707317074,-190.4268292682927,881.7073170731708,110,6
261,9.0654296875,-2.90380859375,-7.240234375,1013.2926829268293,-237.07317073170734,801.7073170731708,110,6
262,9.1103515625,-2.25048828125,-7.0615234375,1070.0609756097563,-317.8658536585366,711.0975609756098,110,6
263,8.13916015625,-2.1884765625,-6.7158203125,1193.5365853658539,-449.69512195121956,559.7560975609756,110,6
264,7.31689453125,-1.880859375,-5.2099609375,1334.0243902439026,-523.8414634146342,219.20731707317074,110,6
265,5.52001953125,-3.888671875,8.587890625,870.6097560975611,-18.84146341463415,98.41463414634147,110,6
266,-7.70947265625,-4.57080078125,-8.1064453125,1225.0609756097563,-393.109756097561,126.70731707317074,110,6
267,14.13037109375,2.48779296875,-8.49267578125,1121.5243902439026,-571.4634146341464,-115.54878048780489,110,6
268,9.78515625,4.75048828125,-0.4638671875,970.8536585365855,-224.32926829268294,-196.34146341463418,110,6
269,1.5087890625,-1.8310546875,-2.20556640625,1021.0975609756099,-260.1829268292683,-250.12195121951223,110,6
270,4.44189453125,0.7412109375,-0.07568359375,836.5243902439025,-198.84146341463418,-389.93902439024396,110,6
271,3.9736328125,0.5234375,0.99853515625,715.0609756097562,-25.54878048780488,-308.0487804878049,110,6
272,1.79736328125,-2.578125,0.21044921875,700.8536585365854,8.597560975609756,-353.719512195122,110,6
273,3.1591796875,-3.38427734375,0.4638671875,626.1585365853659,6.7682926829268295,-404.1463414634147,110,6
274,2.85546875,-3.8544921875,-0.15771484375,606.3414634146342,-4.085365853658537,-468.719512195122,110,6
275,3.28125,-3.51416015625,-0.96826171875,559.0853658536586,-11.829268292682928,-571.4634146341464,110,6
276,3.9599609375,-2.5126953125,-1.82666015625,460.24390243902445,-11.76829268292683,-636.4024390243903,110,6
277,4.12939453125,-1.833984375,-2.12548828125,318.719512195122,71.15853658536587,-651.6463414634147,110,6
278,3.89990234375,-1.73486328125,-1.86474609375,219.51219512195124,142.01219512195124,-647.8048780487806,110,6
279,3.3525390625,-2.32373046875,-1.3125,155.3048780487805,221.64634146341464,-625.9756097560976,110,6
280,2.693359375,-2.55322265625,-1.376953125,84.20731707317074,277.7439024390244,-598.7804878048781,110,6
281,1.99267578125,-2.603515625,-1.748046875,60.1219512195122,294.69512195121956,-568.048780487805,110,6
282,1.4326171875,-2.48779296875,-1.4072265625,54.268292682926834,297.6219512195122,-537.8658536585366,110,6
283,1.2392578125,-2.18359375,-1.06298828125,57.743902439024396,305.2439024390244,-504.32926829268297,110,6
284,1.0283203125,-1.9326171875,-0.73046875,60.79268292682927,318.7804878048781,-469.93902439024396,110,6
285,0.9755859375,-1.75341796875,-0.89306640625,43.10975609756098,333.4756097560976,-430.9756097560976,110,6
286,0.8310546875,-1.7431640625,-1.287109375,30.975609756097565,343.0487804878049,-403.2317073170732,110,6
287,0.46826171875,-1.71630859375,-1.16015625,-5.670731707317073,341.70731707317077,-345.2439024390244,110,6
288,0.09912109375,-1.673828125,-0.9814453125,-19.939024390243905,344.63414634146346,-309.0243902439025,110,6
289,-0.07373046875,-1.41552734375,-0.75341796875,-29.451219512195124,345.9146341463415,-284.0853658536586,110,6
290,0.16552734375,-1.0810546875,-0.79052734375,-34.57317073170732,344.26829268292687,-280.4268292682927,110,6
291,0.49365234375,-0.80322265625,-0.7978515625,-42.07317073170732,340.1219512195122,-265.2439024390244,110,6
292,0.59814453125,-0.68701171875,-0.70166015625,-49.451219512195124,336.0975609756098,-238.47560975609758,110,6
293,0.61572265625,-0.603515625,-0.72900390625,-60.54878048780488,328.109756097561,-227.9268292682927,110,6
294,0.56494140625,-0.56689453125,-1.0673828125,-69.39024390243902,314.87804878048786,-233.78048780487808,110,6
295,0.68408203125,-0.39208984375,-1.4638671875,-76.28048780487805,302.25609756097566,-207.8658536585366,110,6
296,0.7861328125,-0.20458984375,-1.41015625,-83.35365853658537,290.8536585365854,-198.35365853658539,110,6
297,0.609375,-0.1376953125,-1.23291015625,-87.6219512195122,283.4146341463415,-190.609756097561,110,6
298,0.3134765625,-0.2119140625,-1.02490234375,-90.2439024390244,276.89024390243907,-183.84146341463415,110,6
299,0.1005859375,-0.2900390625,-0.93798828125,-88.47560975609757,270.3658536585366,-180.06097560975613,110,6
300,-0.0791015625,-0.28955078125,-0.9599609375,-86.34146341463415,258.2317073170732,-176.15853658536588,110,6
301,-0.14404296875,-0.2109375,-0.97509765625,-93.47560975609757,242.8048780487805,-168.96341463414635,110,6
302,-0.18017578125,-0.2060546875,-0.96044921875,-65.79268292682927,227.8658536585366,-162.5,110,6
303,-0.22802734375,-0.15625,-0.76806640625,-58.23170731707317,215.4268292682927,-152.8048780487805,110,6
304,-0.30322265625,-0.17626953125,-0.78466796875,-58.59756097560976,203.71951219512198,-143.1707317073171,110,6
305,-0.34375,-0.15283203125,-0.81298828125,-61.89024390243903,195.85365853658539,-135.91463414634148,110,6
306,-0.30859375,-0.0048828125,-0.87255859375,-59.451219512195124,189.81707317073173,-139.9390243902439,110,6
307,-0.35498046875,0.02685546875,-0.5732421875,-56.951219512195124,182.6219512195122,-110.3658536585366,110,6
308,-0.55322265625,0.10986328125,-0.453125,-47.25609756097561,182.19512195121953,-100.3048780487805,110,6
309,-0.6396484375,0.0224609375,-0.47998046875,-69.08536585365854,180.85365853658539,-92.6219512195122,110,6
310,-0.61474609375,0.11767578125,-0.4404296875,-67.6219512195122,178.2926829268293,-87.6829268292683,110,6
311,-0.52392578125,0.19384765625,-0.2978515625,-68.53658536585367,174.45121951219514,-83.53658536585367,110,6
312,-0.53125,0.203125,-0.2509765625,-62.6219512195122,161.89024390243904,-82.19512195121952,110,6
313,-0.57666015625,0.18701171875,-0.31591796875,-51.40243902439025,147.8048780487805,-80.54878048780489,110,6
314,-0.57421875,0.18310546875,-0.349609375,-42.01219512195122,136.21951219512195,-78.29268292682927,110,6
315,-0.60107421875,0.20263671875,-0.3173828125,-37.6829268292683,126.82926829268294,-74.14634146341464,110,6
316,-0.6630859375,0.22314453125,-0.26416015625,-35.670731707317074,120.79268292682927,-68.78048780487805,110,6
317,-0.6318359375,0.22705078125,-0.21484375,-35.85365853658537,116.15853658536587,-62.50000000000001,110,6
318,-0.85400390625,0.2255859375,-0.216796875,-36.21951219512196,111.46341463414635,-58.90243902439025,110,6
319,-0.8564453125,0.265625,-0.2822265625,-36.890243902439025,108.71951219512196,-55.60975609756098,110,6
320,-0.8408203125,0.33544921875,-0.28857421875,-36.21951219512196,103.04878048780489,-51.768292682926834,110,6
321,-0.80908203125,0.3779296875,-0.267578125,-35.1219512195122,96.70731707317074,-48.59756097560976,110,6
322,-0.806640625,0.25439453125,-0.2890625,-36.40243902439025,90.2439024390244,-44.93902439024391,110,6
323,-0.8291015625,0.34619140625,-0.314453125,-35.85365853658537,80.97560975609757,-41.82926829268293,110,6
324,-0.84375,0.314453125,-0.24267578125,-46.82926829268293,70.42682926829269,-37.19512195121951,110,6
325,-0.95068359375,0.26318359375,-0.1884765625,-28.658536585365855,61.463414634146346,-33.29268292682927,110,6
326,-1.037109375,0.232421875,-0.1552734375,-27.195121951219516,53.963414634146346,-30.000000000000004,110,6
327,-1.08935546875,0.1416015625,-0.15087890625,-25.792682926829272,46.09756097560976,-25.975609756097562,110,6
328,-1.1181640625,0.3017578125,-0.16796875,-23.719512195121954,37.80487804878049,-21.951219512195124,110,6
329,-1.08740234375,0.30126953125,-0.19580078125,-21.707317073170735,30.792682926829272,-17.378048780487806,110,6
330,-1.046875,0.3212890625,-0.17578125,-22.134146341463417,27.073170731707318,-12.439024390243903,110,6
331,-1.04736328125,0.33154296875,-0.1484375,-23.84146341463415,22.25609756097561,-7.073170731707318,110,6
332,-1.0546875,0.33251953125,-0.18798828125,-25.182926829268293,30.975609756097565,-0.6707317073170732,110,6
333,-1.05859375,0.3173828125,-0.17919921875,-23.353658536585368,6.890243902439025,3.9024390243902443,110,6
334,-1.05810546875,0.3251953125,-0.10302734375,-20.731707317073173,-1.524390243902439,8.353658536585366,110,6
335,-1.0517578125,0.341796875,-0.06982421875,-21.707317073170735,-7.073170731707318,13.353658536585368,110,6
336,-1.01806640625,0.3505859375,-0.0693359375,-23.29268292682927,-11.585365853658537,16.34146341463415,110,6
337,-0.99560546875,0.3681640625,-0.09814453125,-23.719512195121954,-17.31707317073171,18.10975609756098,110,6
338,-0.95263671875,0.41943359375,-0.111328125,-20.30487804878049,-25.000000000000004,18.78048780487805,110,6
339,-0.88916015625,0.431640625,-0.09228515625,-16.219512195121954,-31.646341463414636,18.719512195121954,110,6
340,-0.82568359375,0.46142578125,-0.06982421875,-12.195121951219512,-38.04878048780488,18.170731707317074,110,6
341,-0.7822265625,0.46337890625,-0.03759765625,-7.195121951219513,-45.91463414634147,16.890243902439025,110,6
342,-0.7568359375,0.4814453125,-0.02783203125,-2.682926829268293,-52.743902439024396,15.30487804878049,110,6
343,-0.7451171875,0.48193359375,0.02001953125,-1.4634146341463417,-56.707317073170735,13.597560975609758,110,6
344,-0.74609375,0.48046875,0.07470703125,-1.0365853658536586,-60.67073170731708,12.682926829268293,110,6
345,-0.7763671875,0.44921875,0.1337890625,-0.48780487804878053,-63.47560975609757,11.036585365853659,110,6
346,-0.80517578125,0.42333984375,0.1630859375,-1.707317073170732,-65.0,9.695121951219512,110,6
347,-0.8134765625,0.416015625,0.18701171875,-1.2195121951219514,-68.53658536585367,8.719512195121952,110,6
348,-0.79345703125,0.41357421875,0.18603515625,1.5853658536585367,-75.0,8.78048780487805,110,6
349,-0.80859375,0.396484375,0.1630859375,4.085365853658537,-80.0609756097561,8.841463414634147,110,6
350,-0.79150390625,0.40234375,0.17236328125,7.682926829268293,-84.20731707317074,10.30487804878049,110,6
351,-0.77685546875,0.41015625,0.1962890625,9.26829268292683,-85.42682926829269,12.560975609756099,110,6
352,-0.7529296875,0.416015625,0.1982421875,8.719512195121952,-86.40243902439025,14.390243902439027,110,6
353,-0.7294921875,0.44580078125,0.201171875,8.170731707317074,-87.43902439024392,17.31707317073171,110,6
354,-0.7373046875,0.4228515625,0.19921875,7.743902439024391,-90.91463414634147,19.573170731707318,110,6
355,-0.7236328125,0.42138671875,0.20556640625,9.329268292682928,-95.00000000000001,21.402439024390247,110,6
356,-0.70947265625,0.40673828125,0.265625,11.52439024390244,-98.78048780487806,23.719512195121954,110,6
357,-0.7060546875,0.3955078125,0.3056640625,13.719512195121952,-103.10975609756099,25.975609756097562,110,6
358,-0.7109375,0.390625,0.31494140625,15.79268292682927,-107.7439024390244,27.682926829268297,110,6
359,-0.705078125,0.384765625,0.353515625,18.353658536585368,-111.58536585365854,28.53658536585366,110,6
360,-0.66650390625,0.3955078125,0.3681640625,21.158536585365855,-115.97560975609757,30.54878048780488,110,6
361,-0.64599609375,0.39453125,0.36181640625,23.475609756097562,-120.1829268292683,32.80487804878049,110,6
362,-0.634765625,0.38720703125,0.35595703125,25.670731707317074,-122.98780487804879,34.390243902439025,110,6
363,-0.6044921875,0.396484375,0.37890625,26.951219512195124,-124.45121951219514,36.40243902439025,110,6
364,-0.580078125,0.4140625,0.3935546875,26.58536585365854,-125.3048780487805,38.170731707317074,110,6
365,-0.544921875,0.4599609375,0.404296875,24.32926829268293,-124.20731707317074,40.60975609756098,110,6
366,-0.541015625,0.44482421875,0.4267578125,19.32926829268293,-122.50000000000001,44.024390243902445,110,6
367,-0.5546875,0.4306640625,0.46044921875,15.975609756097562,-121.09756097560977,46.09756097560976,110,6
368,-0.54736328125,0.42138671875,0.4951171875,16.463414634146343,-122.01219512195124,48.65853658536586,110,6
369,-0.51513671875,0.42333984375,0.5341796875,19.573170731707318,-123.59756097560977,51.21951219512196,110,6
370,-0.48095703125,0.41259765625,0.55029296875,23.231707317073173,-126.15853658536587,53.71951219512196,110,6
371,-0.45751953125,0.4013671875,0.54833984375,27.865853658536587,-128.84146341463415,56.646341463414636,110,6
372,-0.4189453125,0.4111328125,0.5517578125,32.6219512195122,-131.03658536585368,59.207317073170735,110,6
373,-0.37548828125,0.42333984375,0.5556640625,36.40243902439025,-132.01219512195124,61.585365853658544,110,6
374,-0.33447265625,0.4345703125,0.57080078125,37.5609756097561,-130.4268292682927,62.6219512195122,110,6
375,-0.2900390625,0.47021484375,0.578125,34.207317073170735,-125.91463414634147,64.14634146341464,110,6
376,-0.23583984375,0.4853515625,0.59326171875,29.08536585365854,-120.60975609756099,65.54878048780489,110,6
377,-0.2177734375,0.5068359375,0.5947265625,24.75609756097561,-117.6829268292683,65.85365853658537,110,6
378,-0.20263671875,0.501953125,0.58984375,22.743902439024392,-116.21951219512196,65.91463414634147,110,6
379,-0.197265625,0.5029296875,0.5869140625,23.53658536585366,-117.43902439024392,66.40243902439025,110,6
380,-0.19091796875,0.4951171875,0.61181640625,26.03658536585366,-118.29268292682927,66.70731707317074,110,6
381,-0.16845703125,0.50439453125,0.64208984375,29.08536585365854,-119.69512195121952,66.28048780487805,110,6
382,-0.15234375,0.50732421875,0.67236328125,31.402439024390247,-120.12195121951221,66.40243902439025,110,6
383,-0.1328125,0.5263671875,0.6787109375,32.926829268292686,-119.45121951219514,66.21951219512195,110,6
384,-0.12060546875,0.544921875,0.68701171875,31.219512195121954,-116.28048780487806,65.48780487804879,110,6
385,-0.09033203125,0.5810546875,0.66455078125,27.378048780487806,-112.8658536585366,64.51219512195122,110,6
386,-0.06005859375,0.5927734375,0.642578125,22.98780487804878,-111.15853658536587,63.84146341463415,110,6
387,-0.072265625,0.56689453125,0.6572265625,21.28048780487805,-110.79268292682927,62.865853658536594,110,6
388,-0.07421875,0.548828125,0.671875,23.719512195121954,-111.15853658536587,61.95121951219513,110,6
389,-0.06201171875,0.53369140625,0.67529296875,27.5609756097561,-111.52439024390245,60.79268292682927,110,6
390,-0.037109375,0.53955078125,0.6533203125,31.89024390243903,-112.43902439024392,60.060975609756106,110,6
391,-0.02099609375,0.54833984375,0.6298828125,35.79268292682927,-114.14634146341464,59.63414634146342,110,6
392,-0.0029296875,0.548828125,0.61083984375,38.59756097560976,-114.39024390243904,59.57317073170732,110,6
393,0.00390625,0.52880859375,0.57763671875,34.63414634146342,-110.1219512195122,58.90243902439025,110,6
394,0.03466796875,0.55908203125,0.576171875,28.170731707317074,-104.20731707317074,57.926829268292686,110,6
395,0.072265625,0.5986328125,0.59033203125,22.012195121951223,-98.59756097560977,57.43902439024391,110,6
396,0.0859375,0.6162109375,0.640625,18.414634146341466,-94.87804878048782,56.768292682926834,110,6
397,0.09228515625,0.61474609375,0.65771484375,18.04878048780488,-93.96341463414635,56.951219512195124,110,6
398,0.0712890625,0.5830078125,0.658203125,18.963414634146343,-94.26829268292684,57.6219512195122,110,6
399,0.029296875,0.56591796875,0.6552734375,22.621951219512198,-94.51219512195122,57.6219512195122,110,6
400,0.0126953125,0.578125,0.6416015625,27.073170731707318,-95.79268292682927,58.59756097560976,110,6
401,0.029296875,0.6005859375,0.6142578125,31.76829268292683,-96.15853658536587,59.69512195121952,110,6
402,0.0498046875,0.6015625,0.58837890625,33.29268292682927,-94.69512195121952,60.85365853658537,110,6
403,0.0634765625,0.5703125,0.53759765625,28.475609756097562,-91.21951219512196,62.743902439024396,110,6
404,0.068359375,0.5908203125,0.533203125,19.207317073170735,-85.54878048780489,63.47560975609757,110,6
405,0.083984375,0.61181640625,0.5537109375,13.414634146341465,-81.34146341463415,64.32926829268293,110,6
406,0.09912109375,0.61767578125,0.5849609375,11.036585365853659,-79.51219512195122,65.60975609756098,110,6
407,0.00048828125,0.6181640625,0.5810546875,10.365853658536587,-78.47560975609757,67.98780487804879,110,6
408,0.1064453125,0.5693359375,0.6171875,10.426829268292684,-77.19512195121952,70.1219512195122,110,6
409,0.1083984375,0.53515625,0.6396484375,14.26829268292683,-77.92682926829269,71.76829268292684,110,6
410,0.00390625,0.5361328125,0.57958984375,17.98780487804878,-79.45121951219512,72.01219512195122,110,6
411,0.17529296875,0.548828125,0.57275390625,23.719512195121954,-82.25609756097562,73.96341463414635,110,6
412,0.14501953125,0.53125,0.59033203125,24.939024390243905,-80.0,73.65853658536587,110,6
413,0.1708984375,0.5625,0.5458984375,21.219512195121954,-75.73170731707317,73.90243902439025,110,6
414,0.2333984375,0.501953125,0.58154296875,16.951219512195124,-71.28048780487805,73.35365853658537,110,6
415,0.263671875,0.64794921875,0.57958984375,12.865853658536587,-67.6219512195122,73.90243902439025,110,6
416,0.28271484375,0.650390625,0.56494140625,9.878048780487806,-65.1219512195122,74.51219512195122,110,6
417,0.29833984375,0.6396484375,0.53759765625,7.8048780487804885,-64.20731707317074,75.42682926829269,110,6
418,0.294921875,0.60205078125,0.49365234375,6.2804878048780495,-65.3048780487805,75.73170731707317,110,6
419,0.31103515625,0.58447265625,0.4599609375,6.219512195121951,-68.84146341463415,76.28048780487805,110,6
420,0.30810546875,0.55810546875,0.439453125,8.719512195121952,-74.45121951219512,76.95121951219512,110,6
421,0.302734375,0.5146484375,0.4697265625,11.951219512195124,-78.23170731707317,77.31707317073172,110,6
422,0.30419921875,0.48291015625,0.46142578125,12.74390243902439,-78.10975609756099,76.58536585365854,110,6
423,0.34716796875,0.4833984375,0.45849609375,11.646341463414634,-76.03658536585367,76.34146341463415,110,6
424,0.39111328125,0.50244140625,0.5185546875,8.658536585365855,-72.92682926829269,77.31707317073172,110,6
425,0.40087890625,0.501953125,0.50244140625,5.0,-69.08536585365854,78.10975609756099,110,6
426,0.42724609375,0.513671875,0.52099609375,2.6219512195121952,-66.03658536585367,78.47560975609757,110,6
427,0.4267578125,0.5400390625,0.54638671875,2.8658536585365857,-65.60975609756098,78.78048780487805,110,6
428,0.4462890625,0.58203125,0.54296875,5.609756097560976,-68.90243902439025,80.2439024390244,110,6
429,0.453125,0.56884765625,0.61865234375,8.475609756097562,-73.96341463414635,81.28048780487805,110,6
430,0.41064453125,0.5263671875,0.43359375,11.097560975609756,-79.02439024390245,82.37804878048782,110,6
431,0.40478515625,0.51025390625,0.4140625,13.658536585365855,-83.04878048780489,82.37804878048782,110,6
432,0.4404296875,0.52392578125,0.4033203125,12.80487804878049,-81.89024390243902,81.52439024390245,110,6
433,0.47802734375,0.54296875,0.40283203125,7.621951219512196,-76.82926829268294,80.67073170731707,110,6
434,0.50732421875,0.5458984375,0.443359375,15.30487804878049,-69.57317073170732,80.0609756097561,110,6
435,0.50439453125,0.53759765625,0.439453125,-5.670731707317073,-63.90243902439025,80.3658536585366,110,6
436,0.48583984375,0.50537109375,0.40771484375,-7.01219512195122,-62.926829268292686,81.15853658536587,110,6
437,0.466796875,0.44921875,0.32958984375,-4.451219512195122,-64.02439024390245,80.54878048780489,110,6
438,0.4814453125,0.4423828125,0.29541015625,1.1585365853658538,-66.15853658536587,78.04878048780489,110,6
439,0.55224609375,0.466796875,0.2685546875,5.365853658536586,-69.45121951219512,75.85365853658537,110,6
440,0.60009765625,0.6201171875,0.25146484375,5.914634146341464,-70.97560975609757,75.2439024390244,110,6
441,0.59326171875,0.501953125,0.24755859375,2.8658536585365857,-70.79268292682927,73.90243902439025,110,6
442,0.59912109375,0.529296875,0.2724609375,-0.7926829268292683,-70.97560975609757,72.19512195121952,110,6
443,0.59765625,0.5283203125,0.31591796875,-3.414634146341464,-71.09756097560977,71.40243902439025,110,6
444,0.5703125,0.4970703125,0.34033203125,-4.451219512195122,-71.03658536585367,71.58536585365854,110,6
445,0.54150390625,0.4619140625,0.361328125,-3.231707317073171,-72.8048780487805,72.37804878048782,110,6
446,0.52490234375,0.4287109375,0.34375,1.0975609756097562,-75.54878048780489,72.37804878048782,110,6
447,0.54443359375,0.41845703125,0.328125,6.585365853658537,-79.93902439024392,72.19512195121952,110,6
448,0.59521484375,0.4189453125,0.30810546875,11.463414634146343,-84.08536585365854,71.89024390243902,110,6
449,0.6171875,0.41943359375,0.29541015625,12.865853658536587,-85.1829268292683,70.97560975609757,110,6
450,0.65673828125,0.46240234375,0.3193359375,11.890243902439025,-84.63414634146342,70.0,110,6
451,0.6640625,0.46826171875,0.3134765625,8.841463414634147,-81.89024390243902,69.63414634146342,110,6
452,0.68505859375,0.46826171875,0.3310546875,5.7926829268292686,-78.84146341463415,68.96341463414635,110,6
453,0.6689453125,0.4462890625,0.328125,3.963414634146342,-76.58536585365854,68.17073170731707,110,6
454,0.673828125,0.4228515625,0.3125,3.536585365853659,-76.21951219512196,67.6219512195122,110,6
455,0.66943359375,0.40087890625,0.279296875,3.5975609756097566,-76.09756097560977,67.01219512195122,110,6
456,0.671875,0.49755859375,0.25830078125,3.353658536585366,-75.97560975609757,66.21951219512195,110,6
457,0.6943359375,0.37255859375,0.234375,3.4756097560975614,-77.5,66.40243902439025,110,6
458,0.69482421875,0.341796875,0.21337890625,4.573170731707317,-78.29268292682927,66.28048780487805,110,6
459,0.7177734375,0.3505859375,0.23095703125,7.073170731707318,-78.84146341463415,65.42682926829269,110,6
460,0.625,0.353515625,0.23779296875,9.02439024390244,-78.17073170731707,63.90243902439025,110,6
461,0.76904296875,0.37890625,0.2392578125,10.182926829268293,-77.5,62.987804878048784,110,6
462,0.7724609375,0.3857421875,0.21484375,11.036585365853659,-77.25609756097562,77.8658536585366,110,6
463,0.77490234375,0.3681640625,0.1875,12.621951219512196,-77.5609756097561,60.91463414634147,110,6
464,0.7666015625,0.34228515625,0.1689453125,11.097560975609756,-75.3658536585366,58.47560975609757,110,6
465,0.7724609375,0.326171875,0.1337890625,7.865853658536586,-73.17073170731707,56.40243902439025,110,6
466,0.7841796875,0.314453125,0.13671875,4.75609756097561,-71.46341463414635,54.87804878048781,110,6
467,0.77490234375,0.31201171875,0.1455078125,2.987804878048781,-70.67073170731707,54.451219512195124,110,6
468,0.73876953125,0.2734375,0.1435546875,2.0121951219512195,-70.0,54.75609756097561,110,6
469,0.73583984375,0.23388671875,0.16015625,3.1707317073170733,-70.0609756097561,53.53658536585366,110,6
470,0.763671875,0.228515625,0.16455078125,6.341463414634147,-71.76829268292684,52.19512195121952,110,6
471,0.76171875,0.2431640625,0.1630859375,11.646341463414634,-74.63414634146342,51.463414634146346,110,6
472,0.75048828125,0.25244140625,0.158203125,17.378048780487806,-75.3048780487805,50.54878048780488,110,6
473,0.77197265625,0.26318359375,0.12109375,18.597560975609756,-72.8658536585366,49.085365853658544,110,6
474,0.8095703125,0.30224609375,0.11572265625,15.914634146341465,-67.43902439024392,47.6829268292683,110,6
475,0.8310546875,0.33984375,0.099609375,10.548780487804878,-60.67073170731708,45.97560975609756,110,6
476,0.85009765625,0.35302734375,0.1015625,4.695121951219512,-54.57317073170732,44.451219512195124,110,6
477,0.8359375,0.32470703125,0.0810546875,2.378048780487805,-51.768292682926834,42.6219512195122,110,6
478,0.80615234375,0.27685546875,0.10302734375,3.780487804878049,-50.00000000000001,40.0609756097561,110,6
479,0.79443359375,0.2626953125,0.12060546875,7.134146341463415,-48.65853658536586,38.170731707317074,110,6
480,0.79736328125,0.28369140625,0.115234375,10.853658536585368,-47.987804878048784,36.890243902439025,110,6
481,0.80322265625,0.29736328125,0.11376953125,13.353658536585368,-62.31707317073171,35.609756097560975,110,6
482,0.7998046875,0.30712890625,0.10400390625,13.719512195121952,-44.51219512195122,34.268292682926834,110,6
483,0.8056640625,0.326171875,0.08837890625,12.560975609756099,-41.646341463414636,32.86585365853659,110,6
484,0.81494140625,0.34375,0.10009765625,11.341463414634147,-39.207317073170735,32.19512195121951,110,6
485,0.8125,0.3486328125,0.09619140625,9.878048780487806,-36.28048780487805,31.158536585365855,110,6
486,0.81298828125,0.33349609375,0.09716796875,7.073170731707318,-33.04878048780488,30.000000000000004,110,6
487,0.8134765625,0.33203125,0.10107421875,4.817073170731708,-30.000000000000004,28.292682926829272,110,6
488,0.8310546875,0.34033203125,0.11669921875,3.4756097560975614,-27.682926829268297,26.89024390243903,110,6
489,0.81884765625,0.33837890625,0.1220703125,2.8658536585365857,-25.426829268292686,25.30487804878049,110,6
490,0.81494140625,0.32177734375,0.1171875,2.073170731707317,-23.231707317073173,23.414634146341466,110,6
491,0.81787109375,0.31982421875,0.24072265625,2.5,-22.073170731707318,21.28048780487805,110,6
492,0.83349609375,0.31787109375,0.109375,3.4756097560975614,-21.28048780487805,19.390243902439025,110,6
493,0.837890625,0.32666015625,0.095703125,4.634146341463415,-20.121951219512198,17.865853658536587,110,6
494,0.8486328125,0.32373046875,0.068359375,3.963414634146342,-18.10975609756098,15.853658536585368,110,6
495,0.857421875,0.328125,0.06982421875,3.231707317073171,-16.03658536585366,13.78048780487805,110,6
496,0.861328125,0.3251953125,0.064453125,2.378048780487805,-14.085365853658537,11.52439024390244,110,6
497,0.85400390625,0.31787109375,0.056640625,1.2195121951219514,-11.76829268292683,9.207317073170733,110,6
498,0.8525390625,0.3095703125,0.05224609375,-0.3658536585365854,-8.902439024390244,6.097560975609756,110,6
499,0.8603515625,0.3037109375,0.0546875,-2.073170731707317,-7.01219512195122,3.536585365853659,110,6
