,Ax,Ay,Az,Gx,Gy,Gz,distance,shot_type
0,0.73779296875,-0.41357421875,-0.3447265625,-35.1829268292683,19.207317073170735,-3.7195121951219514,110,6
1,0.69580078125,-0.453125,-0.29296875,-29.87804878048781,15.670731707317074,-3.8414634146341466,110,6
2,0.64990234375,-0.51513671875,-0.251953125,-18.414634146341466,8.414634146341465,-4.024390243902439,110,6
3,0.6484375,-0.5263671875,-0.240234375,-6.585365853658537,1.7682926829268295,-4.695121951219512,110,6
4,0.68115234375,-0.45751953125,-0.22314453125,1.0975609756097562,-1.4634146341463417,-5.487804878048781,110,6
5,0.69482421875,-0.43994140625,-0.2197265625,3.963414634146342,-1.6463414634146343,-5.2439024390243905,110,6
6,0.68310546875,-0.45068359375,-0.2236328125,5.060975609756098,-0.853658536585366,-6.036585365853659,110,6
7,0.70068359375,-0.41357421875,-0.21484375,6.951219512195123,-0.24390243902439027,-7.378048780487806,110,6
8,0.70703125,-0.4013671875,-0.21044921875,6.341463414634147,1.7682926829268295,-7.682926829268293,110,6
9,0.7080078125,-0.4033203125,-0.216796875,4.085365853658537,4.51219512195122,-7.743902439024391,110,6
10,0.71484375,-0.4091796875,-0.23583984375,0.9146341463414634,7.621951219512196,-7.987804878048781,110,6
11,0.73095703125,-0.41552734375,-0.24072265625,-0.7317073170731708,8.414634146341465,-8.353658536585366,110,6
12,0.724609375,-0.439453125,-0.2236328125,-15.609756097560977,8.048780487804878,-8.353658536585366,110,6
13,0.70263671875,-0.47607421875,-0.22021484375,1.5853658536585367,7.073170731707318,-8.292682926829269,110,6
14,0.7001953125,-0.4736328125,-0.2314453125,3.048780487804878,6.036585365853659,-8.292682926829269,110,6
15,0.68359375,-0.47802734375,-0.24365234375,4.390243902439025,5.426829268292684,-7.378048780487806,110,6
16,0.69140625,-0.4951171875,-0.1259765625,4.75609756097561,5.7926829268292686,-7.378048780487806,110,6
17,0.71044921875,-0.6201171875,-0.25244140625,4.451219512195122,7.25609756097561,-7.8048780487804885,110,6
18,0.71240234375,-0.50244140625,-0.25146484375,3.353658536585366,8.597560975609756,-8.475609756097562,110,6
19,0.71728515625,-0.38427734375,-0.26611328125,2.5,9.878048780487806,-9.26829268292683,110,6
20,0.72705078125,-0.52294921875,-0.314453125,0.6707317073170732,11.951219512195124,-9.329268292682928,110,6
21,0.70458984375,-0.5537109375,-0.32080078125,-1.5853658536585367,13.109756097560977,-9.390243902439025,110,6
22,0.69140625,-0.56298828125,-0.30859375,-2.8658536585365857,13.719512195121952,-9.329268292682928,110,6
23,0.67138671875,-0.580078125,-0.294921875,-4.146341463414634,14.207317073170733,-8.78048780487805,110,6
24,0.66162109375,-0.58154296875,-0.29443359375,-4.085365853658537,14.939024390243905,-7.8048780487804885,110,6
25,0.646484375,-0.59814453125,-0.30615234375,-3.536585365853659,14.146341463414636,-6.219512195121951,110,6
26,0.63720703125,-0.61474609375,-0.31201171875,-2.378048780487805,12.80487804878049,-4.817073170731708,110,6
27,0.61572265625,-0.50390625,-0.31591796875,0.30487804878048785,11.28048780487805,-2.5,110,6
28,0.6171875,-0.62890625,-0.34619140625,2.25609756097561,9.207317073170733,-1.8902439024390245,110,6
29,0.65478515625,-0.59716796875,-0.36474609375,2.9268292682926833,9.146341463414634,-1.3414634146341464,110,6
30,0.64794921875,-0.59814453125,-0.38134765625,0.5487804878048781,10.426829268292684,-0.30487804878048785,110,6
31,0.6318359375,-0.595703125,-0.39990234375,-2.1341463414634148,11.158536585365855,0.06097560975609757,110,6
32,0.619140625,-0.61083984375,-0.39013671875,-2.1951219512195124,10.548780487804878,1.3414634146341464,110,6
33,0.59033203125,-0.6240234375,-0.49755859375,-2.5,10.609756097560977,1.707317073170732,110,6
34,0.6044921875,-0.5859375,-0.3486328125,-4.207317073170732,12.256097560975611,1.9512195121951221,110,6
35,0.60986328125,-0.5546875,-0.328125,-4.817073170731708,12.195121951219512,2.25609756097561,110,6
36,0.6083984375,-0.55029296875,-0.291015625,-3.7195121951219514,11.097560975609756,2.8658536585365857,110,6
37,0.6015625,-0.5712890625,-0.28662109375,-1.7682926829268295,9.390243902439025,4.451219512195122,110,6
38,0.5810546875,-0.5791015625,-0.28857421875,0.5487804878048781,6.890243902439025,5.365853658536586,110,6
39,0.5869140625,-0.57177734375,-0.2939453125,3.353658536585366,4.329268292682928,6.158536585365854,110,6
40,0.5986328125,-0.56396484375,-0.3037109375,4.329268292682928,3.048780487804878,7.500000000000001,110,6
41,0.60791015625,-0.5625,-0.3291015625,5.060975609756098,1.9512195121951221,8.109756097560977,110,6
42,0.6103515625,-0.560546875,-0.32666015625,5.2439024390243905,2.0121951219512195,7.865853658536586,110,6
43,0.501953125,-0.55517578125,-0.31591796875,3.353658536585366,2.987804878048781,7.8048780487804885,110,6
44,0.64208984375,-0.52392578125,-0.32666015625,1.0975609756097562,4.207317073170732,7.439024390243903,110,6
45,0.65283203125,-0.5029296875,-0.31982421875,0.1829268292682927,5.853658536585367,7.01219512195122,110,6
46,0.6611328125,-0.49462890625,-0.28759765625,-1.2804878048780488,6.7682926829268295,6.036585365853659,110,6
47,0.6572265625,-0.48681640625,-0.26123046875,-1.7682926829268295,7.195121951219513,5.0,110,6
48,0.66650390625,-0.4765625,-0.2587890625,-0.1829268292682927,5.670731707317073,4.939024390243903,110,6
49,0.658203125,-0.49609375,-0.2275390625,3.7195121951219514,3.1097560975609757,4.817073170731708,110,6
50,0.65283203125,-0.4931640625,-0.22998046875,7.926829268292684,0.6097560975609757,5.3048780487804885,110,6
51,0.64404296875,-0.48681640625,-0.23193359375,10.731707317073171,-0.3658536585365854,5.487804878048781,110,6
52,0.673828125,-0.46875,-0.2353515625,11.951219512195124,-0.3658536585365854,4.695121951219512,110,6
53,0.7119140625,-0.42138671875,-0.22802734375,12.74390243902439,0.9146341463414634,3.658536585365854,110,6
54,0.74560546875,-0.40673828125,-0.23681640625,11.76829268292683,1.8902439024390245,2.1951219512195124,110,6
55,0.75830078125,-0.38525390625,-0.26904296875,10.731707317073171,3.048780487804878,1.1585365853658538,110,6
56,0.87255859375,-0.380859375,-0.28515625,7.987804878048781,5.3048780487804885,0.5487804878048781,110,6
57,0.62548828125,-0.390625,-0.2978515625,4.573170731707317,7.621951219512196,15.54878048780488,110,6
58,0.74658203125,-0.39990234375,-0.2939453125,1.2804878048780488,10.487804878048781,-0.30487804878048785,110,6
59,0.744140625,-0.42431640625,-0.29150390625,-3.5975609756097566,13.841463414634148,0.30487804878048785,110,6
60,0.732421875,-0.451171875,-0.2578125,-8.414634146341465,18.414634146341466,0.7317073170731708,110,6
61,0.7216796875,-0.474609375,-0.2333984375,-12.317073170731708,21.03658536585366,0.9756097560975611,110,6
62,0.69873046875,-0.498046875,-0.21435546875,-11.585365853658537,21.03658536585366,1.3414634146341464,110,6
63,0.6796875,-0.533203125,-0.17041015625,-6.646341463414635,19.085365853658537,0.9146341463414634,110,6
64,0.673828125,-0.56005859375,-0.1484375,-1.707317073170732,17.134146341463417,1.0975609756097562,110,6
65,0.66259765625,-0.5625,-0.166015625,1.707317073170732,15.731707317073171,1.4634146341463417,110,6
66,0.66748046875,-0.5634765625,-0.16845703125,3.5975609756097566,15.670731707317074,1.402439024390244,110,6
67,0.671875,-0.5615234375,-0.1572265625,4.817073170731708,16.402439024390244,1.3414634146341464,110,6
68,0.681640625,-0.56103515625,-0.1376953125,5.2439024390243905,16.82926829268293,1.3414634146341464,110,6
69,0.681640625,-0.5556640625,-0.1376953125,5.609756097560976,18.170731707317074,0.9756097560975611,110,6
70,0.68408203125,-0.568359375,-0.13330078125,4.878048780487806,20.182926829268293,0.7317073170731708,110,6
71,0.6875,-0.568359375,-0.11865234375,2.7439024390243905,23.902439024390247,0.7926829268292683,110,6
72,0.69287109375,-0.56640625,-0.09765625,0.9146341463414634,26.951219512195124,0.12195121951219513,110,6
73,0.69677734375,-0.5546875,-0.0830078125,0.6707317073170732,29.451219512195124,0.30487804878048785,110,6
74,0.69580078125,-0.56640625,-0.07373046875,1.3414634146341464,32.13414634146342,0.24390243902439027,110,6
75,0.6923828125,-0.5859375,-0.06982421875,2.1341463414634148,33.963414634146346,0.7317073170731708,110,6
76,0.677734375,-0.5791015625,-0.0703125,2.25609756097561,35.97560975609756,0.9146341463414634,110,6
77,0.6748046875,-0.5830078125,-0.06298828125,3.353658536585366,37.13414634146342,1.829268292682927,110,6
78,0.66064453125,-0.6162109375,-0.037109375,6.585365853658537,37.19512195121951,3.353658536585366,110,6
79,0.650390625,-0.63330078125,-0.06396484375,10.609756097560977,34.390243902439025,5.060975609756098,110,6
80,0.66796875,-0.626953125,-0.087890625,14.878048780487806,34.63414634146342,6.829268292682928,110,6
81,0.68408203125,-0.6015625,-0.10546875,15.000000000000002,37.25609756097561,7.25609756097561,110,6
82,0.689453125,-0.5673828125,-0.0888671875,11.585365853658537,42.86585365853659,7.682926829268293,110,6
83,0.7001953125,-0.54638671875,-0.0869140625,6.829268292682928,49.268292682926834,7.987804878048781,110,6
84,0.701171875,-0.52392578125,-0.06640625,1.5853658536585367,56.89024390243903,8.170731707317074,110,6
85,0.689453125,-0.5263671875,-0.06689453125,-3.414634146341464,63.41463414634147,8.414634146341465,110,6
86,0.67822265625,-0.51806640625,-0.06787109375,-8.231707317073171,68.90243902439025,8.963414634146343,110,6
87,0.67626953125,-0.5185546875,-0.04833984375,-9.51219512195122,70.91463414634147,9.695121951219512,110,6
88,0.67626953125,-0.52294921875,-0.044921875,-8.536585365853659,70.85365853658537,11.463414634146343,110,6
89,0.671875,-0.53759765625,-0.05810546875,-4.878048780487806,67.7439024390244,13.109756097560977,110,6
90,0.6796875,-0.5322265625,-0.0458984375,0.6707317073170732,64.32926829268293,14.51219512195122,110,6
91,0.67578125,-0.53955078125,-0.06884765625,5.731707317073171,59.39024390243903,0.1829268292682927,110,6
92,0.6904296875,-0.5234375,-0.09033203125,8.841463414634147,56.951219512195124,16.34146341463415,110,6
93,0.69580078125,-0.50048828125,-0.1220703125,8.902439024390244,57.25609756097561,31.158536585365855,110,6
94,0.70849609375,-0.478515625,-0.1357421875,5.3048780487804885,58.41463414634147,15.121951219512196,110,6
95,0.697265625,-0.4716796875,-0.17138671875,-5.7926829268292686,47.19512195121952,13.353658536585368,110,6
96,0.73876953125,-0.42529296875,-0.2314453125,-16.82926829268293,70.48780487804879,11.28048780487805,110,6
97,0.7626953125,-0.3876953125,-0.24267578125,-27.134146341463417,62.50000000000001,9.390243902439025,110,6
98,0.80712890625,-0.35546875,-0.26123046875,-34.81707317073171,81.46341463414635,9.451219512195122,110,6
99,0.7998046875,-0.38134765625,-0.2353515625,-36.463414634146346,79.14634146341464,9.451219512195122,110,6
100,0.76708984375,-0.44873046875,-0.20556640625,-36.09756097560976,76.52439024390245,10.609756097560977,110,6
101,0.7294921875,-0.49560546875,-0.19970703125,-33.963414634146346,73.23170731707317,12.01219512195122,110,6
102,0.7099609375,-0.490234375,-0.1875,-33.47560975609756,72.01219512195122,12.560975609756099,110,6
103,0.72607421875,-0.46044921875,-0.21923828125,-37.13414634146342,72.98780487804879,11.76829268292683,110,6
104,0.736328125,-0.392578125,-0.23876953125,-42.19512195121951,75.3048780487805,10.365853658536587,110,6
105,0.75537109375,-0.35107421875,-0.27587890625,-47.6219512195122,77.01219512195122,8.170731707317074,110,6
106,0.759765625,-0.3583984375,-0.27734375,-51.585365853658544,77.43902439024392,7.317073170731708,110,6
107,0.75146484375,-0.3984375,-0.26904296875,-52.6219512195122,75.3658536585366,6.707317073170732,110,6
108,0.724609375,-0.42138671875,-0.22705078125,-49.207317073170735,71.28048780487805,6.219512195121951,110,6
109,0.69189453125,-0.4453125,-0.22119140625,-43.84146341463415,64.63414634146342,6.036585365853659,110,6
110,0.677734375,-0.4306640625,-0.21142578125,-37.13414634146342,58.23170731707317,5.3048780487804885,110,6
111,0.68408203125,-0.39404296875,-0.2041015625,-33.78048780487805,52.987804878048784,4.451219512195122,110,6
112,0.69140625,-0.35888671875,-0.203125,-33.29268292682927,49.87804878048781,3.536585365853659,110,6
113,0.69140625,-0.32763671875,-0.24560546875,-35.487804878048784,47.5609756097561,3.048780487804878,110,6
114,0.7041015625,-0.296875,-0.24365234375,-38.59756097560976,45.54878048780488,1.707317073170732,110,6
115,0.712890625,-0.296875,-0.23388671875,-41.890243902439025,43.10975609756098,-0.30487804878048785,110,6
116,0.71484375,-0.30859375,-0.25439453125,-44.69512195121952,40.60975609756098,-2.682926829268293,110,6
117,0.7138671875,-0.3154296875,-0.2666015625,-44.69512195121952,37.25609756097561,-4.878048780487806,110,6
118,0.712890625,-0.31005859375,-0.265625,-44.024390243902445,34.93902439024391,-7.378048780487806,110,6
119,0.7197265625,-0.30859375,-0.27001953125,-45.54878048780488,33.65853658536586,-9.878048780487806,110,6
120,0.7216796875,-0.29638671875,-0.27734375,-48.963414634146346,34.024390243902445,-12.317073170731708,110,6
121,0.72900390625,-0.2763671875,-0.27685546875,-53.47560975609757,34.51219512195122,-14.634146341463415,110,6
122,0.73388671875,-0.2841796875,-0.2607421875,-57.6219512195122,34.451219512195124,-16.28048780487805,110,6
123,0.73046875,-0.298828125,-0.28125,-61.40243902439025,34.75609756097561,-17.31707317073171,110,6
124,0.72509765625,-0.2978515625,-0.2890625,-66.03658536585367,35.243902439024396,-18.53658536585366,110,6
125,0.73046875,-0.27490234375,-0.29833984375,-69.81707317073172,35.30487804878049,-20.48780487804878,110,6
126,0.755859375,-0.263671875,-0.31298828125,-73.53658536585367,34.69512195121951,-22.195121951219512,110,6
127,0.77001953125,-0.24658203125,-0.306640625,-77.8658536585366,34.451219512195124,-24.085365853658537,110,6
128,0.75048828125,-0.2783203125,-0.3095703125,-81.52439024390245,34.024390243902445,-25.853658536585368,110,6
129,0.736328125,-0.28173828125,-0.2900390625,-82.5609756097561,33.170731707317074,-27.439024390243905,110,6
130,0.74755859375,-0.26806640625,-0.251953125,-84.26829268292684,31.58536585365854,-28.780487804878053,110,6
131,0.75634765625,-0.2509765625,-0.28662109375,-87.5609756097561,30.853658536585368,-30.853658536585368,110,6
132,0.767578125,-0.236328125,-0.2998046875,-92.31707317073172,31.158536585365855,-32.926829268292686,110,6
133,0.75634765625,-0.24365234375,-0.294921875,-96.64634146341464,31.52439024390244,-35.73170731707317,110,6
134,0.78515625,-0.2392578125,-0.3017578125,-100.06097560975611,31.707317073170735,-38.65853658536586,110,6
135,0.794921875,-0.244140625,-0.29248046875,-101.70731707317074,30.182926829268297,-41.28048780487805,110,6
136,0.7861328125,-0.1279296875,-0.29150390625,-102.8658536585366,28.963414634146343,-43.47560975609756,110,6
137,0.796875,-0.26171875,-0.3056640625,-103.90243902439025,27.5609756097561,-45.670731707317074,110,6
138,0.7978515625,-0.25341796875,-0.30712890625,-104.63414634146342,25.975609756097562,-48.04878048780488,110,6
139,0.796875,-0.24658203125,-0.28857421875,-105.67073170731709,25.121951219512198,-50.243902439024396,110,6
140,0.8046875,-0.25244140625,-0.28857421875,-106.09756097560977,24.02439024390244,-52.01219512195122,110,6
141,0.81396484375,-0.2421875,-0.3154296875,-107.56097560975611,23.29268292682927,-55.00000000000001,110,6
142,0.8505859375,-0.1962890625,-0.3369140625,-110.42682926829269,22.500000000000004,-57.865853658536594,110,6
143,0.86962890625,-0.173828125,-0.326171875,-114.51219512195122,22.682926829268293,-61.40243902439025,110,6
144,0.90869140625,-0.1630859375,-0.330078125,-118.71951219512196,24.02439024390244,-65.60975609756098,110,6
145,0.92626953125,-0.1552734375,-0.33984375,-123.29268292682927,25.0609756097561,-68.35365853658537,110,6
146,0.90087890625,-0.19775390625,-0.3447265625,-126.46341463414635,24.634146341463417,-70.60975609756098,110,6
147,0.8798828125,-0.23046875,-0.32373046875,-125.67073170731709,23.59756097560976,-72.7439024390244,110,6
148,0.912109375,-0.234375,-0.32080078125,-124.45121951219514,21.219512195121954,-74.63414634146342,110,6
149,0.9169921875,-0.203125,-0.34521484375,-109.32926829268294,20.914634146341466,-77.5,110,6
150,0.9375,-0.1923828125,-0.357421875,-126.46341463414635,21.76829268292683,-80.67073170731707,110,6
151,0.9609375,-0.15966796875,-0.36376953125,-129.57317073170734,23.53658536585366,-83.90243902439025,110,6
152,0.984375,-0.1435546875,-0.38037109375,-132.9878048780488,24.02439024390244,-87.19512195121952,110,6
153,1.0146484375,-0.11328125,-0.4091796875,-136.34146341463415,23.84146341463415,-90.3048780487805,110,6
154,1.033203125,-0.0830078125,-0.41796875,-141.52439024390245,25.54878048780488,-95.3048780487805,110,6
155,1.044921875,-0.078125,-0.43408203125,-148.78048780487805,27.621951219512198,-99.51219512195122,110,6
156,1.044921875,-0.09912109375,-0.455078125,-154.75609756097563,29.695121951219516,-103.47560975609757,110,6
157,1.0546875,-0.09130859375,-0.4599609375,-159.14634146341464,30.792682926829272,-108.47560975609757,110,6
158,1.07470703125,-0.07666015625,-0.43798828125,-162.25609756097563,30.914634146341466,-112.92682926829269,110,6
159,1.0888671875,-0.0654296875,-0.39990234375,-165.1829268292683,31.158536585365855,-115.85365853658537,110,6
160,1.0859375,-0.11181640625,-0.41650390625,-166.89024390243904,31.03658536585366,-118.53658536585367,110,6
161,1.09130859375,-0.111328125,-0.4296875,-166.15853658536588,30.853658536585368,-120.85365853658537,110,6
162,1.12158203125,-0.0869140625,-0.40771484375,-163.41463414634148,29.26829268292683,-123.35365853658537,110,6
163,1.19189453125,-0.0234375,-0.419921875,-162.37804878048783,29.75609756097561,-126.70731707317074,110,6
164,1.12744140625,0.00537109375,-0.43994140625,-165.3658536585366,31.646341463414636,-130.7317073170732,110,6
165,1.26953125,0.03662109375,-0.44775390625,-168.59756097560978,32.37804878048781,-135.4268292682927,110,6
166,1.2890625,0.06298828125,-0.4150390625,-171.40243902439025,33.41463414634146,-140.3658536585366,110,6
167,1.30859375,0.0625,-0.41650390625,-172.6219512195122,34.08536585365854,-145.91463414634148,110,6
168,1.341796875,0.10107421875,-0.3857421875,-174.20731707317074,35.97560975609756,-151.64634146341464,110,6
169,1.3671875,0.09228515625,-0.380859375,-177.31707317073173,38.41463414634147,-155.2439024390244,110,6
170,1.25,0.07080078125,-0.38037109375,-176.95121951219514,39.207317073170735,-160.4878048780488,110,6
171,1.37548828125,0.07958984375,-0.34228515625,-173.96341463414635,39.268292682926834,-166.21951219512198,110,6
172,1.40771484375,0.0810546875,-0.33984375,-173.109756097561,39.08536585365854,-169.93902439024393,110,6
173,1.4091796875,0.08154296875,-0.31640625,-171.40243902439025,40.85365853658537,-175.5487804878049,110,6
174,1.4482421875,0.13916015625,-0.30224609375,-171.03658536585368,43.170731707317074,-179.39024390243904,110,6
175,1.47802734375,0.16552734375,-0.3115234375,-169.57317073170734,44.146341463414636,-182.8658536585366,110,6
176,1.37646484375,0.177734375,-0.31640625,-168.90243902439025,44.69512195121952,-186.52439024390245,110,6
177,1.517578125,0.19287109375,-0.26513671875,-166.15853658536588,45.1829268292683,-192.07317073170734,110,6
178,1.568359375,0.2568359375,-0.2197265625,-162.31707317073173,46.09756097560976,-196.64634146341464,110,6
179,1.61083984375,0.259765625,-0.2099609375,-158.96341463414635,47.25609756097561,-201.58536585365854,110,6
180,1.61669921875,0.23291015625,-0.21435546875,-155.0609756097561,45.85365853658537,-206.28048780487808,110,6
181,1.64794921875,0.24365234375,-0.2021484375,-148.90243902439025,43.47560975609756,-211.15853658536588,110,6
182,1.68896484375,0.271484375,-0.18896484375,-140.85365853658539,40.426829268292686,-215.3048780487805,110,6
183,1.7236328125,0.26904296875,-0.21435546875,-134.26829268292684,36.951219512195124,-218.78048780487808,110,6
184,1.7265625,0.26513671875,-0.23046875,-130.0609756097561,34.75609756097561,-221.70731707317074,110,6
185,1.681640625,0.27001953125,-0.2578125,-127.13414634146342,31.82926829268293,-224.87804878048783,110,6
186,1.6494140625,0.25146484375,-0.22314453125,-125.67073170731709,29.26829268292683,-228.78048780487808,110,6
187,1.6328125,0.46337890625,-0.1943359375,-126.82926829268294,29.26829268292683,-233.96341463414637,110,6
188,1.6083984375,0.4755859375,-0.16357421875,-128.96341463414635,30.975609756097565,-240.18292682926833,110,6
189,1.6416015625,0.5244140625,-0.18212890625,-130.5487804878049,32.86585365853659,-245.3658536585366,110,6
190,1.65380859375,0.50390625,-0.17138671875,-131.21951219512195,36.646341463414636,-248.90243902439028,110,6
191,1.69580078125,0.458984375,-0.1357421875,-130.4268292682927,40.304878048780495,-252.31707317073173,110,6
192,1.7646484375,0.43994140625,-0.11328125,-127.56097560975611,45.54878048780488,-255.24390243902442,110,6
193,1.78369140625,0.38427734375,-0.13134765625,-126.89024390243904,50.0609756097561,-257.5,110,6
194,1.81396484375,0.3798828125,-0.140625,-126.15853658536587,54.32926829268293,-260.1829268292683,110,6
195,1.8330078125,0.3486328125,-0.125,-128.1707317073171,59.51219512195122,-264.0853658536586,110,6
196,1.89501953125,0.3369140625,-0.11279296875,-127.6829268292683,64.45121951219512,-268.109756097561,110,6
197,1.86572265625,0.26416015625,-0.06494140625,-126.70731707317074,68.84146341463415,-271.5853658536586,110,6
198,1.87158203125,0.1318359375,-0.0615234375,-122.31707317073172,70.91463414634147,-273.719512195122,110,6
199,1.63671875,0.05078125,-0.01806640625,-112.13414634146342,69.20731707317074,-273.719512195122,110,6
200,1.52880859375,0.02099609375,-0.0107421875,-102.43902439024392,67.6829268292683,-273.109756097561,110,6
201,1.39013671875,-0.0263671875,-0.0234375,-96.21951219512196,68.29268292682927,-272.9878048780488,110,6
202,1.32177734375,-0.00830078125,-0.0390625,-92.98780487804879,68.78048780487805,-272.25609756097566,110,6
203,1.23095703125,-0.02392578125,-0.01123046875,-91.95121951219512,71.28048780487805,-271.5243902439025,110,6
204,1.12548828125,-0.068359375,0.00537109375,-91.34146341463415,74.39024390243902,-270.9146341463415,110,6
205,1.046875,-0.095703125,-0.03955078125,-89.57317073170732,75.3658536585366,-269.8780487804878,110,6
206,0.96240234375,-0.15576171875,-0.01513671875,-84.39024390243902,74.63414634146342,-266.3414634146342,110,6
207,0.99658203125,-0.23486328125,-0.01123046875,-93.23170731707317,72.01219512195122,-262.3170731707317,110,6
208,0.79736328125,-0.302734375,0.00830078125,-67.5,69.02439024390245,-257.5609756097561,110,6
209,0.72021484375,-0.30078125,0.076171875,-57.926829268292686,64.39024390243902,-250.4268292682927,110,6
210,0.62548828125,-0.3203125,0.17041015625,-48.170731707317074,61.82926829268293,-242.9268292682927,110,6
211,0.625,-0.31201171875,0.21728515625,-43.53658536585366,61.95121951219513,-236.82926829268294,110,6
212,0.5791015625,-0.33056640625,0.18896484375,-44.451219512195124,60.243902439024396,-228.47560975609758,110,6
213,0.44580078125,-0.453125,0.1220703125,-42.5609756097561,56.89024390243903,-219.57317073170734,110,6
214,0.36181640625,-0.52978515625,0.06396484375,-33.963414634146346,50.1219512195122,-210.5487804878049,110,6
215,0.3037109375,-0.56103515625,0.08447265625,-22.378048780487806,43.35365853658537,-201.34146341463418,110,6
216,0.1962890625,-0.59765625,0.05712890625,-15.975609756097562,38.170731707317074,-192.37804878048783,110,6
217,0.087890625,-0.6025390625,0.08544921875,-9.878048780487806,36.463414634146346,-181.82926829268294,110,6
218,0.001953125,-0.56591796875,0.20556640625,-7.500000000000001,34.87804878048781,-187.07317073170734,110,6
219,-0.103515625,-0.59375,0.267578125,-11.76829268292683,37.743902439024396,-160.0,110,6
220,-0.162109375,-0.63818359375,0.3544921875,-18.84146341463415,41.524390243902445,-149.20731707317074,110,6
221,-0.12744140625,-0.72607421875,0.27734375,-24.02439024390244,43.84146341463415,-135.6707317073171,110,6
222,-0.271484375,-0.83642578125,0.47509765625,-23.84146341463415,44.69512195121952,-119.63414634146342,110,6
223,-0.49853515625,-0.96240234375,0.50146484375,-20.914634146341466,62.31707317073171,-101.95121951219512,110,6
224,-0.52978515625,-1.0947265625,0.4287109375,-18.29268292682927,44.451219512195124,-83.23170731707317,110,6
225,-0.7314453125,-1.18994140625,0.408203125,-14.207317073170733,39.51219512195122,-60.00000000000001,110,6
226,-0.6943359375,-1.3125,0.431640625,-6.585365853658537,37.07317073170732,-38.90243902439025,110,6
227,-0.59619140625,-1.3779296875,0.46240234375,3.353658536585366,34.87804878048781,-16.158536585365855,110,6
228,-0.5673828125,-1.47265625,0.51953125,9.878048780487806,35.487804878048784,3.658536585365854,110,6
229,-0.52783203125,-1.5576171875,0.5458984375,17.682926829268293,35.97560975609756,23.53658536585366,110,6
230,-0.5009765625,-1.6201171875,0.5390625,22.012195121951223,38.170731707317074,42.25609756097561,110,6
231,-0.49072265625,-1.69091796875,0.609375,24.390243902439025,41.951219512195124,47.86585365853659,110,6
232,-0.44775390625,-1.837890625,0.4482421875,29.939024390243905,42.5609756097561,84.69512195121952,110,6
233,-0.32470703125,-1.97119140625,0.3779296875,40.54878048780488,42.07317073170732,107.01219512195122,110,6
234,-0.2626953125,-2.15771484375,0.359375,52.5609756097561,43.35365853658537,130.4268292682927,110,6
235,-0.2177734375,-2.330078125,0.32470703125,67.6829268292683,42.13414634146342,140.4878048780488,110,6
236,-0.2060546875,-2.564453125,0.37353515625,81.40243902439025,39.69512195121951,183.2317073170732,110,6
237,-0.181640625,-2.74609375,0.27197265625,93.04878048780489,37.6829268292683,213.47560975609758,110,6
238,-0.14013671875,-2.94677734375,0.20947265625,100.73170731707317,36.646341463414636,247.8658536585366,110,6
239,-0.1298828125,-3.19384765625,0.09716796875,93.84146341463415,36.951219512195124,286.0975609756098,110,6
240,-0.05322265625,-3.4228515625,0.0546875,121.82926829268294,35.0,324.69512195121956,110,6
241,0.09326171875,-3.716796875,0.01611328125,140.4268292682927,46.58536585365854,365.6707317073171,110,6
242,0.3203125,-3.99462890625,-0.1240234375,157.6829268292683,27.682926829268297,391.5853658536586,110,6
243,0.69580078125,-4.24951171875,-0.29150390625,176.28048780487808,23.170731707317074,446.95121951219517,110,6
244,1.15185546875,-4.4951171875,-0.4560546875,195.7317073170732,16.52439024390244,468.6585365853659,110,6
245,1.8466796875,-4.68359375,-0.6943359375,217.07317073170734,1.6463414634146343,524.6341463414634,110,6
246,2.42626953125,-4.91845703125,-0.7509765625,245.12195121951223,5.548780487804878,553.7804878048781,110,6
247,3.13671875,-5.13037109375,-0.8642578125,263.109756097561,8.841463414634147,580.1829268292684,110,6
248,3.935546875,-5.56689453125,-0.7734375,288.2317073170732,12.378048780487806,614.8170731707318,110,6
249,4.994140625,-5.8203125,-0.97900390625,317.13414634146346,28.658536585365855,669.8170731707318,110,6
250,6.14697265625,-5.9384765625,-1.529296875,339.57317073170736,51.951219512195124,728.6585365853659,110,6
251,7.1943359375,-5.8095703125,-2.06396484375,357.25609756097566,64.02439024390245,776.7682926829269,110,6
252,8.2216796875,-5.14404296875,-2.50390625,399.57317073170736,117.8048780487805,806.219512195122,110,6
253,9.67236328125,-4.09130859375,-2.80615234375,436.2804878048781,129.02439024390245,853.8414634146342,110,6
254,10.62353515625,-3.38525390625,-3.513671875,462.31707317073176,102.56097560975611,896.0365853658537,110,6
255,10.791015625,-3.11083984375,-4.47705078125,463.9024390243903,67.7439024390244,906.829268292683,110,6
256,11.04345703125,-2.50244140625,-5.53955078125,487.37804878048786,17.378048780487806,941.4634146341464,110,6
257,11.6669921875,-2.14794921875,-6.5078125,538.5975609756098,-32.5,939.5121951219513,110,6
258,10.9873046875,-1.96435546875,-7.21630859375,617.6219512195122,-174.69512195121953,920.2439024390245,110,6
259,9.4873046875,-2.6669921875,-6.95361328125,785.548780487805,-351.89024390243907,886.829268292683,110,6
260,8.10986328125,-3.66748046875,-7.685546875,992.2560975609757,-535.548780487805,799.8170731707318,110,6
261,6.9775390625,-4.611328125,-8.98681640625,1279.4512195121952,-784.7560975609757,706.7682926829269,110,6
262,6.25,-4.68212890625,-10.51171875,1559.8170731707319,-978.4756097560977,481.4634146341464,110,6
263,6.73095703125,-3.982421875,-8.7705078125,1997.987804878049,-1264.878048780488,475.12195121951225,110,6
264,-5.6767578125,-16.0,-10.17138671875,171.09756097560978,532.5609756097562,-886.7682926829269,110,6
265,15.99951171875,15.99951171875,-2.259765625,1130.0,53.23170731707317,232.9268292682927,110,6
266,-12.12841796875,-15.53125,2.3427734375,1502.5000000000002,-547.3170731707318,-154.02439024390245,110,6
267,6.08935546875,0.15234375,1.39013671875,1076.7073170731708,-389.57317073170736,-354.0853658536586,110,6
268,3.5732421875,2.26513671875,-3.69189453125,1013.8414634146343,-92.92682926829269,-433.2926829268293,110,6
269,3.5966796875,2.66796875,1.4228515625,753.3536585365854,-54.63414634146342,-431.4634146341464,110,6
270,5.56494140625,0.701171875,-0.06494140625,889.7560975609757,-157.5,-485.609756097561,110,6
271,3.77734375,-4.44091796875,-0.69287109375,728.1707317073171,-189.75609756097563,-610.7317073170732,110,6
272,4.23486328125,-2.17529296875,-1.6123046875,599.2682926829269,-150.7926829268293,-673.7804878048781,110,6
273,3.609375,-2.93359375,-2.6875,507.74390243902445,-132.31707317073173,-736.4634146341464,110,6
274,3.0625,-2.869140625,-3.03125,363.8414634146342,-82.31707317073172,-778.109756097561,110,6
275,2.7197265625,-2.55419921875,-2.85546875,266.4634146341464,-41.524390243902445,-797.0731707317074,110,6
276,2.0810546875,-2.0166015625,-2.1806640625,200.12195121951223,17.378048780487806,-831.219512195122,110,6
277,2.17431640625,-1.55517578125,-1.4111328125,129.63414634146343,79.14634146341464,-839.6951219512196,110,6
278,2.0537109375,-1.322265625,-0.98095703125,96.70731707317074,157.31707317073173,-822.7439024390245,110,6
279,2.015625,-1.4228515625,-0.78271484375,57.865853658536594,219.32926829268294,-801.9512195121952,110,6
280,2.2822265625,-1.7109375,-1.1806640625,46.03658536585366,276.5243902439025,-773.3536585365854,110,6
281,2.57861328125,-1.58740234375,-1.2626953125,15.914634146341465,292.13414634146346,-745.7317073170732,110,6
282,2.76904296875,-1.42724609375,-1.583984375,-8.475609756097562,298.4146341463415,-714.5121951219513,110,6
283,2.77197265625,-1.2841796875,-1.65869140625,-42.926829268292686,297.31707317073176,-677.8658536585366,110,6
284,2.56884765625,-1.31396484375,-1.57958984375,-92.7439024390244,298.9634146341464,-654.0243902439025,110,6
285,2.30419921875,-1.31591796875,-1.4365234375,-139.75609756097563,301.6463414634147,-598.6585365853659,110,6
286,1.9560546875,-1.36083984375,-1.1611328125,-180.97560975609758,303.9024390243903,-577.3780487804878,110,6
287,1.41943359375,-1.392578125,-1.056640625,-206.58536585365854,307.31707317073176,-531.3414634146342,110,6
288,1.1416015625,-1.2978515625,-0.93798828125,-227.8048780487805,307.07317073170736,-507.56097560975616,110,6
289,1.0693359375,-1.2421875,-0.8984375,-231.70731707317074,308.9024390243903,-480.30487804878055,110,6
290,1.07080078125,-1.126953125,-0.96923828125,-221.34146341463418,301.95121951219517,-466.2804878048781,110,6
291,1.1845703125,-0.95703125,-1.03515625,-204.39024390243904,291.4024390243903,-417.50000000000006,110,6
292,1.0263671875,-0.89501953125,-1.00341796875,-190.1829268292683,284.1463414634147,-388.4756097560976,110,6
293,0.5576171875,-0.921875,-1.15234375,-209.39024390243904,287.5,-339.32926829268297,110,6
294,0.3349609375,-0.96533203125,-1.31005859375,-224.63414634146343,292.6219512195122,-308.2317073170732,110,6
295,-0.05712890625,-0.82080078125,-1.02392578125,-222.01219512195124,295.0,-290.8536585365854,110,6
296,-0.03173828125,-0.55078125,-0.6298828125,-221.34146341463418,298.3536585365854,-277.9268292682927,110,6
297,0.10009765625,-0.33349609375,-0.3759765625,-227.07317073170734,295.1829268292683,-266.4024390243903,110,6
298,0.158203125,-0.42529296875,-0.84619140625,-235.3048780487805,285.4878048780488,-258.109756097561,110,6
299,0.36376953125,-0.00537109375,-1.0810546875,-236.34146341463418,281.6463414634147,-242.62195121951223,110,6
300,0.36328125,-0.09375,-1.14697265625,-228.96341463414637,270.3048780487805,-215.91463414634148,110,6
301,-0.013671875,-0.33642578125,-1.24560546875,-232.74390243902442,255.6707317073171,-199.14634146341464,110,6
302,-0.42529296875,-0.4375,-1.02197265625,-190.3658536585366,236.21951219512198,-184.20731707317074,110,6
303,-0.54833984375,-0.4560546875,-0.9521484375,-179.81707317073173,223.53658536585368,-172.9268292682927,110,6
304,-0.54296875,-0.30078125,-0.9736328125,-178.53658536585368,212.37804878048783,-164.08536585365854,110,6
305,-0.29541015625,-0.060546875,-0.7109375,-186.82926829268294,209.87804878048783,-171.64634146341464,110,6
306,-0.177734375,-0.04345703125,-0.6142578125,-200.7317073170732,197.8658536585366,-148.2926829268293,110,6
307,-0.1220703125,-0.08544921875,-0.658203125,-212.62195121951223,184.45121951219514,-139.20731707317074,110,6
308,-0.1806640625,-0.1171875,-0.6640625,-212.25609756097563,167.31707317073173,-126.40243902439026,110,6
309,-0.455078125,-0.326171875,-0.7646484375,-212.13414634146343,147.8048780487805,-113.47560975609757,110,6
310,-0.68310546875,-0.47021484375,-0.8525390625,-174.63414634146343,135.7317073170732,-104.57317073170732,110,6
311,-0.787109375,-0.5458984375,-0.7392578125,-183.0487804878049,120.48780487804879,-95.0609756097561,110,6
312,-1.0166015625,-0.5048828125,-0.50341796875,-173.59756097560978,118.17073170731709,-82.31707317073172,110,6
313,-1.1162109375,-0.46826171875,-0.40380859375,-167.31707317073173,113.04878048780489,-69.26829268292684,110,6
314,-1.10302734375,-0.40087890625,-0.44873046875,-159.81707317073173,124.69512195121952,-58.04878048780488,110,6
315,-1.01611328125,-0.36328125,-0.44189453125,-154.57317073170734,104.32926829268294,-47.37804878048781,110,6
316,-0.96875,-0.29541015625,-0.5185546875,-152.6829268292683,109.08536585365854,-35.670731707317074,110,6
317,-0.966796875,-0.259765625,-0.6142578125,-156.09756097560978,80.42682926829269,-27.31707317073171,110,6
318,-1.0068359375,-0.25927734375,-0.67138671875,-127.50000000000001,65.60975609756098,-21.03658536585366,110,6
319,-1.0185546875,-0.23095703125,-0.66650390625,-111.95121951219514,53.78048780487806,-30.975609756097565,110,6
320,-1.03759765625,-0.17041015625,-0.603515625,-97.37804878048782,45.670731707317074,-11.341463414634147,110,6
321,-1.04345703125,-0.09228515625,-0.6240234375,-88.47560975609757,40.243902439024396,-6.7682926829268295,110,6
322,-1.0712890625,-0.0087890625,-0.3701171875,-81.21951219512196,34.57317073170732,-2.8658536585365857,110,6
323,-1.15185546875,-0.0830078125,-0.34130859375,-78.78048780487805,28.231707317073173,-1.1585365853658538,110,6
324,-1.146484375,-0.0751953125,-0.3330078125,-72.13414634146342,22.80487804878049,-0.7926829268292683,110,6
325,-1.15625,-0.08544921875,-0.27001953125,-69.51219512195122,16.52439024390244,1.0365853658536586,110,6
326,-1.1728515625,-0.10009765625,-0.32373046875,-65.0609756097561,11.52439024390244,1.829268292682927,110,6
327,-1.13232421875,-0.10498046875,-0.322265625,-58.65853658536586,6.7682926829268295,4.390243902439025,110,6
328,-1.13623046875,-0.07958984375,-0.35693359375,-51.585365853658544,0.7926829268292683,8.78048780487805,110,6
329,-1.1494140625,-0.07177734375,-0.4150390625,-41.34146341463415,-6.341463414634147,11.463414634146343,110,6
330,-1.14208984375,-0.02685546875,-0.40283203125,-29.87804878048781,-12.80487804878049,14.634146341463415,110,6
331,-1.1494140625,-0.0009765625,-0.36328125,-21.646341463414636,-18.10975609756098,17.98780487804878,110,6
332,-1.1650390625,0.02734375,-0.31005859375,-30.853658536585368,-22.743902439024392,21.52439024390244,110,6
333,-1.17333984375,0.03369140625,-0.265625,-10.30487804878049,-27.134146341463417,25.670731707317074,110,6
334,-1.19482421875,0.0234375,-0.24072265625,-7.621951219512196,-31.03658536585366,29.26829268292683,110,6
335,-1.2197265625,0.0146484375,-0.17822265625,-5.2439024390243905,-34.390243902439025,32.25609756097561,110,6
336,-1.22998046875,0.0087890625,-0.1533203125,-2.682926829268293,-37.5,36.768292682926834,110,6
337,-1.22705078125,0.0283203125,-0.14599609375,0.9146341463414634,-39.51219512195122,41.15853658536586,110,6
338,-1.22119140625,0.04150390625,-0.1767578125,5.853658536585367,-45.1219512195122,45.54878048780488,110,6
339,-1.19580078125,0.0546875,-0.22021484375,14.207317073170733,-53.04878048780488,49.085365853658544,110,6
340,-1.15966796875,0.0673828125,-0.232421875,23.963414634146343,-61.40243902439025,50.36585365853659,110,6
341,-1.11572265625,0.1171875,-0.1875,15.731707317073171,-68.17073170731707,52.25609756097561,110,6
342,-1.08544921875,0.17919921875,-0.1328125,33.963414634146346,-72.43902439024392,53.65853658536586,110,6
343,-1.06689453125,0.22119140625,-0.091796875,32.80487804878049,-74.45121951219512,53.963414634146346,110,6
344,-1.05029296875,0.2431640625,-0.0517578125,29.81707317073171,-76.76829268292684,53.90243902439025,110,6
345,-1.04248046875,0.13134765625,-0.03076171875,27.80487804878049,-79.08536585365854,53.29268292682927,110,6
346,-1.033203125,0.12646484375,-0.11962890625,26.52439024390244,-85.2439024390244,52.13414634146342,110,6
347,-1.0419921875,0.2431640625,0.03515625,28.475609756097562,-90.60975609756099,51.34146341463415,110,6
348,-1.0283203125,0.22412109375,0.046875,31.76829268292683,-95.3048780487805,49.87804878048781,110,6
349,-1.00830078125,0.2275390625,0.07373046875,34.81707317073171,-99.63414634146342,48.78048780487805,110,6
350,-0.998046875,0.24462890625,0.08544921875,37.25609756097561,-101.95121951219512,47.5609756097561,110,6
351,-0.97998046875,0.296875,0.0849609375,39.451219512195124,-102.56097560975611,45.79268292682927,110,6
352,-0.943359375,0.33642578125,0.0703125,39.268292682926834,-104.20731707317074,45.487804878048784,110,6
353,-0.9501953125,0.3310546875,0.064453125,38.41463414634147,-106.58536585365854,45.85365853658537,110,6
354,-0.96923828125,0.3193359375,0.06103515625,38.90243902439025,-109.02439024390245,44.93902439024391,110,6
355,-0.95654296875,0.32568359375,0.1103515625,41.34146341463415,-110.91463414634147,44.207317073170735,110,6
356,-0.9326171875,0.330078125,0.1650390625,41.646341463414636,-110.48780487804879,43.90243902439025,110,6
357,-0.908203125,0.3427734375,0.1923828125,37.6219512195122,-108.47560975609757,44.207317073170735,110,6
358,-0.896484375,0.349609375,0.2080078125,33.53658536585366,-107.56097560975611,45.36585365853659,110,6
359,-0.91259765625,0.31494140625,0.205078125,33.71951219512196,-111.46341463414635,45.487804878048784,110,6
360,-0.95166015625,0.27880859375,0.203125,38.963414634146346,-114.39024390243904,44.63414634146342,110,6
361,-0.9296875,0.2685546875,0.220703125,31.58536585365854,-118.17073170731709,44.63414634146342,110,6
362,-0.90625,0.27392578125,0.12646484375,54.51219512195122,-121.28048780487806,44.63414634146342,110,6
363,-0.853515625,0.29736328125,0.26220703125,58.41463414634147,-123.10975609756099,45.1219512195122,110,6
364,-0.81787109375,0.32275390625,0.27099609375,59.93902439024391,-123.23170731707319,45.670731707317074,110,6
365,-0.794921875,0.35205078125,0.2646484375,60.54878048780488,-123.53658536585367,45.85365853658537,110,6
366,-0.78173828125,0.3720703125,0.26318359375,61.82926829268293,-124.63414634146342,46.707317073170735,110,6
367,-0.7587890625,0.3798828125,0.267578125,62.560975609756106,-125.54878048780489,47.86585365853659,110,6
368,-0.75244140625,0.3828125,0.26416015625,61.03658536585366,-125.2439024390244,47.987804878048784,110,6
369,-0.87353515625,0.3896484375,0.2734375,57.560975609756106,-123.53658536585367,47.25609756097561,110,6
370,-0.72998046875,0.4140625,0.314453125,52.43902439024391,-120.3048780487805,47.01219512195122,110,6
371,-0.7041015625,0.43701171875,0.30224609375,48.59756097560976,-119.39024390243904,47.86585365853659,110,6
372,-0.68896484375,0.42236328125,0.31640625,46.34146341463415,-119.69512195121952,48.29268292682927,110,6
373,-0.6826171875,0.4033203125,0.29052734375,31.280487804878053,-121.46341463414635,48.90243902439025,110,6
374,-0.673828125,0.38720703125,0.2802734375,49.87804878048781,-124.26829268292684,50.243902439024396,110,6
375,-0.658203125,0.380859375,0.302734375,54.268292682926834,-127.8658536585366,52.07317073170732,110,6
376,-0.63623046875,0.3720703125,0.31591796875,57.31707317073171,-130.7317073170732,54.024390243902445,110,6
377,-0.6318359375,0.35986328125,0.31689453125,59.57317073170732,-131.76829268292684,55.1219512195122,110,6
378,-0.6162109375,0.3720703125,0.3193359375,61.03658536585366,-133.41463414634148,56.463414634146346,110,6
379,-0.5927734375,0.3994140625,0.3232421875,61.646341463414636,-134.02439024390245,58.47560975609757,110,6
380,-0.56201171875,0.42236328125,0.3359375,60.97560975609757,-133.2926829268293,60.304878048780495,110,6
381,-0.5205078125,0.43017578125,0.34716796875,56.585365853658544,-130.7317073170732,61.768292682926834,110,6
382,-0.4765625,0.4560546875,0.34033203125,50.79268292682927,-128.41463414634148,63.35365853658537,110,6
383,-0.431640625,0.47314453125,0.34765625,45.85365853658537,-127.37804878048782,64.63414634146342,110,6
384,-0.41162109375,0.47900390625,0.3583984375,43.23170731707317,-128.41463414634148,65.2439024390244,110,6
385,-0.376953125,0.47412109375,0.36767578125,43.65853658536586,-130.4878048780488,65.97560975609757,110,6
386,-0.35400390625,0.470703125,0.39599609375,45.85365853658537,-133.0487804878049,66.09756097560977,110,6
387,-0.31201171875,0.375,0.41650390625,49.81707317073171,-135.7317073170732,65.48780487804879,110,6
388,-0.2978515625,0.49365234375,0.4287109375,51.768292682926834,-136.89024390243904,65.91463414634147,110,6
389,-0.27978515625,0.48876953125,0.4267578125,50.97560975609756,-136.52439024390245,65.60975609756098,110,6
390,-0.3662109375,0.5146484375,0.4228515625,50.304878048780495,-136.15853658536585,64.81707317073172,110,6
391,-0.21728515625,0.541015625,0.423828125,50.00000000000001,-136.76829268292684,64.39024390243902,110,6
392,-0.19140625,0.55029296875,0.42333984375,50.36585365853659,-137.6219512195122,63.71951219512196,110,6
393,-0.15576171875,0.55810546875,0.40673828125,49.75609756097561,-138.109756097561,63.71951219512196,110,6
394,-0.15771484375,0.57373046875,0.39892578125,45.304878048780495,-136.76829268292684,63.04878048780488,110,6
395,-0.12158203125,0.60546875,0.4091796875,38.59756097560976,-135.4268292682927,62.19512195121952,110,6
396,-0.10107421875,0.630859375,0.421875,31.58536585365854,-134.57317073170734,60.97560975609757,110,6
397,-0.09619140625,0.65625,0.45849609375,26.76829268292683,-135.85365853658539,60.243902439024396,110,6
398,-0.1064453125,0.630859375,0.494140625,25.243902439024392,-138.59756097560978,60.1219512195122,110,6
399,-0.12646484375,0.57958984375,0.51123046875,26.58536585365854,-140.6707317073171,59.39024390243903,110,6
400,-0.130859375,0.56787109375,0.52783203125,31.158536585365855,-143.109756097561,57.926829268292686,110,6
401,-0.24853515625,0.57666015625,0.5302734375,36.890243902439025,-145.7317073170732,57.6829268292683,110,6
402,-0.1015625,0.58544921875,0.52490234375,40.426829268292686,-145.7317073170732,57.926829268292686,110,6
403,-0.07373046875,0.60693359375,0.5009765625,40.0609756097561,-144.57317073170734,58.47560975609757,110,6
404,-0.04736328125,0.50048828125,0.46923828125,37.19512195121951,-142.37804878048783,59.146341463414636,110,6
405,-0.013671875,0.63916015625,0.44775390625,34.32926829268293,-141.82926829268294,59.81707317073171,110,6
406,0.01123046875,0.65283203125,0.43896484375,32.43902439024391,-142.4390243902439,60.85365853658537,110,6
407,0.0263671875,0.65478515625,0.42919921875,30.365853658536587,-142.5,61.82926829268293,110,6
408,0.01904296875,0.6494140625,0.46337890625,26.402439024390247,-141.70731707317074,62.743902439024396,110,6
409,0.02685546875,0.6318359375,0.51513671875,23.902439024390247,-141.40243902439025,63.84146341463415,110,6
410,0.025390625,0.60595703125,0.55517578125,23.10975609756098,-140.91463414634148,64.45121951219512,110,6
411,0.02880859375,0.59912109375,0.568359375,26.58536585365854,-141.70731707317074,65.48780487804879,110,6
412,0.05078125,0.58740234375,0.5810546875,15.914634146341465,-143.65853658536588,67.43902439024392,110,6
413,0.0810546875,0.5888671875,0.5546875,37.25609756097561,-146.21951219512195,69.26829268292684,110,6
414,0.09130859375,0.5947265625,0.501953125,39.75609756097561,-147.13414634146343,70.97560975609757,110,6
415,0.14111328125,0.61572265625,0.45458984375,40.54878048780488,-147.5609756097561,72.43902439024392,110,6
416,0.189453125,0.6455078125,0.43701171875,39.63414634146342,-147.31707317073173,74.26829268292684,110,6
417,0.232421875,0.68408203125,0.4267578125,38.29268292682927,-147.4390243902439,76.34146341463415,110,6
418,0.26708984375,0.68310546875,0.47314453125,35.91463414634147,-146.15853658536588,62.50000000000001,110,6
419,0.2841796875,0.67529296875,0.47021484375,32.07317073170732,-143.0487804878049,78.78048780487805,110,6
420,0.31396484375,0.69873046875,0.482421875,29.207317073170735,-140.7317073170732,78.41463414634147,110,6
421,0.35498046875,0.7021484375,0.48583984375,28.59756097560976,-140.0609756097561,93.53658536585367,110,6
422,0.38916015625,0.681640625,0.6240234375,30.853658536585368,-141.76829268292684,78.35365853658537,110,6
423,0.39306640625,0.6474609375,0.498046875,35.36585365853659,-144.32926829268294,78.04878048780489,110,6
424,0.4013671875,0.62353515625,0.5029296875,39.93902439024391,-144.39024390243904,77.19512195121952,110,6
425,0.42041015625,0.64111328125,0.48291015625,43.59756097560976,-143.35365853658539,76.52439024390245,110,6
426,0.46142578125,0.673828125,0.46875,46.40243902439025,-141.89024390243904,76.40243902439025,110,6
427,0.4990234375,0.7138671875,0.43994140625,47.5609756097561,-140.7317073170732,76.46341463414635,110,6
428,0.54296875,0.708984375,0.388671875,46.951219512195124,-139.63414634146343,76.82926829268294,110,6
429,0.55322265625,0.70263671875,0.34423828125,45.1829268292683,-138.53658536585368,76.21951219512196,110,6
430,0.5693359375,0.72265625,0.322265625,43.47560975609756,-138.59756097560978,75.60975609756098,110,6
431,0.58447265625,0.720703125,0.318359375,42.13414634146342,-138.2926829268293,75.1829268292683,110,6
432,0.59765625,0.72607421875,0.34326171875,41.890243902439025,-138.2926829268293,75.0609756097561,110,6
433,0.60302734375,0.72021484375,0.3759765625,43.41463414634147,-138.90243902439025,74.45121951219512,110,6
434,0.6103515625,0.70361328125,0.38818359375,46.28048780487805,-140.4268292682927,74.51219512195122,110,6
435,0.6044921875,0.6650390625,0.41357421875,51.646341463414636,-142.9878048780488,75.79268292682927,110,6
436,0.56298828125,0.60791015625,0.4248046875,55.1829268292683,-143.0487804878049,76.58536585365854,110,6
437,0.5546875,0.5947265625,0.39306640625,54.57317073170732,-141.52439024390245,75.73170731707317,110,6
438,0.5810546875,0.62158203125,0.35693359375,52.19512195121952,-139.14634146341464,75.60975609756098,110,6
439,0.60205078125,0.65380859375,0.333984375,49.085365853658544,-137.13414634146343,76.89024390243902,110,6
440,0.61865234375,0.68017578125,0.31396484375,46.524390243902445,-135.609756097561,78.29268292682927,110,6
441,0.62841796875,0.68115234375,0.26611328125,44.146341463414636,-134.81707317073173,79.57317073170732,110,6
442,0.6435546875,0.6943359375,0.24609375,43.10975609756098,-135.0609756097561,81.03658536585367,110,6
443,0.65869140625,0.69580078125,0.23193359375,42.43902439024391,-135.6707317073171,82.01219512195122,110,6
444,0.6689453125,0.70654296875,0.2275390625,40.36585365853659,-135.5487804878049,83.17073170731707,110,6
445,0.67626953125,0.6845703125,0.22021484375,38.35365853658537,-136.15853658536585,85.2439024390244,110,6
446,0.6435546875,0.64501953125,0.21044921875,37.43902439024391,-137.5609756097561,86.70731707317074,110,6
447,0.6357421875,0.60888671875,0.20263671875,39.51219512195122,-138.96341463414635,87.31707317073172,110,6
448,0.64794921875,0.5869140625,0.19580078125,40.60975609756098,-137.31707317073173,86.28048780487805,110,6
449,0.69189453125,0.591796875,0.169921875,37.80487804878049,-133.47560975609758,86.21951219512196,110,6
450,0.7314453125,0.6181640625,0.12109375,33.29268292682927,-130.1829268292683,87.25609756097562,110,6
451,0.75146484375,0.6298828125,0.0732421875,28.53658536585366,-127.6829268292683,87.98780487804879,110,6
452,0.74462890625,0.625,0.0712890625,26.76829268292683,-127.6829268292683,89.20731707317074,110,6
453,0.72021484375,0.6015625,0.076171875,27.31707317073171,-126.70731707317074,89.51219512195122,110,6
454,0.73291015625,0.59228515625,0.08251953125,30.243902439024392,-126.09756097560977,89.93902439024392,110,6
455,0.71875,0.5791015625,0.0703125,32.987804878048784,-125.54878048780489,90.60975609756099,110,6
456,0.71728515625,0.55712890625,0.04150390625,33.41463414634146,-125.67073170731709,91.82926829268294,110,6
457,0.68701171875,0.525390625,-0.02490234375,32.5,-126.09756097560977,93.41463414634147,110,6
458,0.677734375,0.50732421875,-0.04345703125,32.31707317073171,-126.15853658536587,78.35365853658537,110,6
459,0.69580078125,0.6240234375,-0.03369140625,29.695121951219516,-123.29268292682927,93.59756097560977,110,6
460,0.73095703125,0.48046875,-0.0576171875,24.02439024390244,-118.53658536585367,94.14634146341464,110,6
461,0.74609375,0.48095703125,-0.072265625,17.5609756097561,-114.45121951219514,95.42682926829269,110,6
462,0.7607421875,0.484375,-0.09326171875,13.475609756097562,-112.01219512195122,96.09756097560977,110,6
463,0.75830078125,0.47998046875,-0.10205078125,12.621951219512196,-111.09756097560977,95.85365853658537,110,6
464,0.76220703125,0.4482421875,-0.109375,15.30487804878049,-112.56097560975611,97.19512195121952,110,6
465,0.765625,0.45361328125,-0.06982421875,23.963414634146343,-116.64634146341464,97.19512195121952,110,6
466,0.75048828125,0.38525390625,-0.16259765625,26.76829268292683,-118.47560975609757,96.76829268292684,110,6
467,0.7470703125,0.3427734375,-0.2421875,26.58536585365854,-118.78048780487806,94.75609756097562,110,6
468,0.77099609375,0.36669921875,-0.25830078125,24.207317073170735,-116.95121951219514,94.32926829268294,110,6
469,0.81982421875,0.3974609375,-0.2646484375,18.902439024390244,-113.53658536585367,94.08536585365854,110,6
470,0.84619140625,0.41796875,-0.27001953125,12.378048780487806,-109.75609756097562,95.60975609756099,110,6
471,0.833984375,0.404296875,-0.2900390625,7.01219512195122,-107.07317073170732,96.64634146341464,110,6
472,0.82470703125,0.36279296875,-0.29443359375,4.2682926829268295,-106.03658536585367,97.13414634146342,110,6
473,0.7939453125,0.31005859375,-0.30126953125,4.146341463414634,-107.43902439024392,97.37804878048782,110,6
474,0.7626953125,0.25390625,-0.3349609375,6.829268292682928,-110.97560975609757,97.19512195121952,110,6
475,0.7216796875,0.19970703125,-0.3447265625,9.634146341463415,-111.95121951219514,96.40243902439025,110,6
476,0.72705078125,0.20849609375,-0.3486328125,13.29268292682927,-114.63414634146342,97.01219512195122,110,6
477,0.73681640625,0.22216796875,-0.3330078125,14.451219512195124,-114.32926829268294,97.01219512195122,110,6
478,0.744140625,0.2265625,-0.36572265625,12.621951219512196,-112.92682926829269,96.95121951219512,110,6
479,0.7587890625,0.21923828125,-0.37109375,10.121951219512196,-111.03658536585367,97.37804878048782,110,6
480,0.7529296875,0.21142578125,-0.38525390625,5.3048780487804885,-107.50000000000001,97.6219512195122,110,6
481,0.775390625,0.21728515625,-0.40478515625,0.6707317073170732,-103.23170731707317,96.70731707317074,110,6
482,0.79736328125,0.22216796875,-0.41943359375,-5.2439024390243905,-98.71951219512196,96.89024390243904,110,6
483,0.81689453125,0.21142578125,-0.4169921875,-12.865853658536587,-93.78048780487806,96.21951219512196,110,6
484,0.8486328125,0.21728515625,-0.44775390625,-17.195121951219512,-91.70731707317074,95.97560975609757,110,6
485,0.81787109375,0.17822265625,-0.47998046875,-18.04878048780488,-91.28048780487806,94.08536585365854,110,6
486,0.81787109375,0.1806640625,-0.4931640625,-15.914634146341465,-91.95121951219512,92.8048780487805,110,6
487,0.85205078125,0.19482421875,-0.4619140625,-10.060975609756099,-94.14634146341464,91.40243902439025,110,6
488,0.84716796875,0.17626953125,-0.44189453125,-5.182926829268293,-96.46341463414635,89.45121951219512,110,6
489,0.80419921875,0.1328125,-0.4736328125,-3.8414634146341466,-96.15853658536587,88.71951219512196,110,6
490,0.75830078125,0.11865234375,-0.47607421875,-4.207317073170732,-92.6219512195122,87.92682926829269,110,6
491,0.75048828125,0.1171875,-0.48486328125,-2.987804878048781,-91.40243902439025,87.31707317073172,110,6
492,0.76513671875,0.126953125,-0.4951171875,-3.2926829268292686,-88.17073170731707,86.21951219512196,110,6
493,0.76220703125,0.13525390625,-0.48681640625,-4.024390243902439,-86.52439024390245,86.58536585365854,110,6
494,0.75,0.09423828125,-0.51953125,-7.743902439024391,-81.76829268292684,86.89024390243904,110,6
495,0.7666015625,0.09228515625,-0.5166015625,-12.621951219512196,-77.5,86.28048780487805,110,6
496,0.74658203125,0.07421875,-0.51708984375,-14.695121951219514,-74.63414634146342,87.07317073170732,110,6
497,0.775390625,0.099609375,-0.521484375,-15.121951219512196,-72.8658536585366,85.91463414634147,110,6
498,0.7734375,0.0830078125,-0.55712890625,-15.365853658536587,-71.76829268292684,85.79268292682927,110,6
499,0.7607421875,0.0458984375,-0.55615234375,-0.06097560975609757,-71.34146341463415,85.67073170731707,110,6
