,Ax,Ay,Az,Gx,Gy,Gz,distance,shot_type
0,0.61669921875,-0.50439453125,-0.22412109375,-1.6463414634146343,13.109756097560977,-0.6707317073170732,115,7
1,0.62548828125,-0.4814453125,-0.22412109375,-3.780487804878049,13.597560975609758,0.30487804878048785,115,7
2,0.61474609375,-0.4931640625,-0.24853515625,-1.7682926829268295,12.134146341463415,0.24390243902439027,115,7
3,0.5078125,-0.5048828125,-0.2490234375,0.7926829268292683,11.341463414634147,-1.1585365853658538,115,7
4,0.6572265625,-0.50439453125,-0.27783203125,1.7682926829268295,10.975609756097562,-2.25609756097561,115,7
5,0.66357421875,-0.48681640625,-0.3056640625,2.073170731707317,9.939024390243903,-3.2926829268292686,115,7
6,0.6708984375,-0.48876953125,-0.302734375,3.1707317073170733,9.26829268292683,-4.573170731707317,115,7
7,0.68408203125,-0.50634765625,-0.30712890625,5.0,7.621951219512196,-5.3048780487804885,115,7
8,0.68994140625,-0.52099609375,-0.3037109375,7.317073170731708,6.097560975609756,-6.2804878048780495,115,7
9,0.673828125,-0.5341796875,-0.27734375,8.414634146341465,5.487804878048781,-6.158536585365854,115,7
10,0.6611328125,-0.52490234375,-0.25830078125,7.865853658536586,5.3048780487804885,-5.609756097560976,115,7
11,0.63720703125,-0.5263671875,-0.23974609375,7.439024390243903,5.182926829268293,-4.634146341463415,115,7
12,0.6279296875,-0.51904296875,-0.22607421875,6.707317073170732,5.182926829268293,-3.4756097560975614,115,7
13,0.62744140625,-0.51806640625,-0.2197265625,5.609756097560976,5.609756097560976,-1.707317073170732,115,7
14,0.5,-0.51806640625,-0.24169921875,6.036585365853659,5.3048780487804885,-1.2195121951219514,115,7
15,0.6708984375,-0.5126953125,-0.373046875,6.036585365853659,5.548780487804878,-1.2195121951219514,115,7
16,0.693359375,-0.4873046875,-0.26904296875,4.085365853658537,6.097560975609756,-1.402439024390244,115,7
17,0.69287109375,-0.48583984375,-0.2880859375,3.658536585365854,6.036585365853659,-2.0121951219512195,115,7
18,0.70361328125,-0.4931640625,-0.27294921875,3.353658536585366,5.426829268292684,-2.378048780487805,115,7
19,0.68994140625,-0.5263671875,-0.30322265625,4.390243902439025,4.146341463414634,-3.048780487804878,115,7
20,0.68505859375,-0.53857421875,-0.2958984375,5.914634146341464,2.987804878048781,-3.5975609756097566,115,7
21,0.68310546875,-0.5341796875,-0.27392578125,6.097560975609756,2.9268292682926833,-3.963414634146342,115,7
22,0.6884765625,-0.51123046875,-0.259765625,3.8414634146341466,4.146341463414634,-3.414634146341464,115,7
23,0.6650390625,-0.5244140625,-0.23046875,1.707317073170732,5.182926829268293,-1.8902439024390245,115,7
24,0.65625,-0.52197265625,-0.2138671875,1.2195121951219514,5.121951219512195,-0.6707317073170732,115,7
25,0.6513671875,-0.52490234375,-0.216796875,2.9268292682926833,3.231707317073171,0.48780487804878053,115,7
26,0.650390625,-0.5302734375,-0.25537109375,6.707317073170732,0.426829268292683,0.9146341463414634,115,7
27,0.66064453125,-0.53857421875,-0.2587890625,10.487804878048781,-0.853658536585366,0.24390243902439027,115,7
28,0.68505859375,-0.505859375,-0.2666015625,12.073170731707318,-1.2195121951219514,-0.30487804878048785,115,7
29,0.70068359375,-0.48876953125,-0.2705078125,11.829268292682928,-0.426829268292683,-0.7926829268292683,115,7
30,0.70654296875,-0.48583984375,-0.27734375,9.390243902439025,0.9146341463414634,-0.9756097560975611,115,7
31,0.70263671875,-0.49365234375,-0.26513671875,6.890243902439025,2.682926829268293,-1.0365853658536586,115,7
32,0.703125,-0.50048828125,-0.2509765625,4.329268292682928,3.9024390243902443,-1.2804878048780488,115,7
33,0.71240234375,-0.49072265625,-0.2353515625,2.25609756097561,4.75609756097561,-0.9146341463414634,115,7
34,0.701171875,-0.37744140625,-0.22998046875,1.9512195121951221,4.390243902439025,-0.426829268292683,115,7
35,0.69384765625,-0.5283203125,-0.232421875,3.5975609756097566,3.1707317073170733,-0.3658536585365854,115,7
36,0.69580078125,-0.53076171875,-0.22802734375,5.060975609756098,2.0121951219512195,-0.7926829268292683,115,7
37,0.69775390625,-0.5244140625,-0.263671875,6.402439024390245,0.48780487804878053,-0.9756097560975611,115,7
38,0.69482421875,-0.5283203125,-0.28955078125,7.195121951219513,0.48780487804878053,-2.1951219512195124,115,7
39,0.70361328125,-0.52734375,-0.2880859375,7.134146341463415,1.3414634146341464,-2.6219512195121952,115,7
40,0.70751953125,-0.5146484375,-0.2734375,5.548780487804878,2.6219512195121952,-2.5609756097560976,115,7
41,0.68310546875,-0.53271484375,-0.36865234375,4.2682926829268295,3.536585365853659,-2.073170731707317,115,7
42,0.673828125,-0.5322265625,-0.224609375,3.1707317073170733,4.024390243902439,-1.0975609756097562,115,7
43,0.64892578125,-0.5263671875,-0.21728515625,2.378048780487805,4.085365853658537,-0.1829268292682927,115,7
44,0.650390625,-0.52978515625,-0.1953125,2.378048780487805,3.963414634146342,0.853658536585366,115,7
45,0.65185546875,-0.5263671875,-0.16943359375,2.5609756097560976,4.51219512195122,1.3414634146341464,115,7
46,0.64892578125,-0.51611328125,-0.1845703125,2.987804878048781,4.939024390243903,1.8902439024390245,115,7
47,0.65625,-0.5009765625,-0.1923828125,2.987804878048781,5.3048780487804885,1.524390243902439,115,7
48,0.67236328125,-0.49658203125,-0.22265625,2.6219512195121952,4.695121951219512,1.6463414634146343,115,7
49,0.68994140625,-0.48681640625,-0.22509765625,2.6219512195121952,5.2439024390243905,0.7926829268292683,115,7
50,0.69970703125,-0.49169921875,-0.2255859375,2.0121951219512195,6.219512195121951,0.1829268292682927,115,7
51,0.7099609375,-0.4765625,-0.22509765625,1.1585365853658538,7.25609756097561,-0.30487804878048785,115,7
52,0.69580078125,-0.486328125,-0.22265625,1.2195121951219514,7.8048780487804885,-0.7926829268292683,115,7
53,0.689453125,-0.5009765625,-0.22705078125,1.9512195121951221,8.109756097560977,-1.2804878048780488,115,7
54,0.6845703125,-0.501953125,-0.19873046875,2.682926829268293,8.597560975609756,-2.0121951219512195,115,7
55,0.67626953125,-0.49951171875,-0.205078125,2.5609756097560976,8.292682926829269,-1.8902439024390245,115,7
56,0.65234375,-0.51220703125,-0.2060546875,4.939024390243903,7.500000000000001,-1.6463414634146343,115,7
57,0.64990234375,-0.53369140625,-0.18505859375,6.951219512195123,7.682926829268293,-1.6463414634146343,115,7
58,0.66748046875,-0.513671875,-0.16064453125,6.097560975609756,9.939024390243903,-1.0975609756097562,115,7
59,0.66845703125,-0.49462890625,-0.16015625,2.804878048780488,12.865853658536587,0.1829268292682927,115,7
60,0.6328125,-0.509765625,-0.17529296875,1.6463414634146343,14.26829268292683,2.073170731707317,115,7
61,0.61279296875,-0.5517578125,-0.1591796875,2.0121951219512195,15.853658536585368,3.7195121951219514,115,7
62,0.6240234375,-0.58203125,-0.1640625,-1.9512195121951221,20.0609756097561,6.158536585365854,115,7
63,0.6650390625,-0.52392578125,-0.16015625,-5.7926829268292686,23.475609756097562,8.048780487804878,115,7
64,0.66259765625,-0.5078125,-0.16357421875,-10.182926829268293,27.134146341463417,10.182926829268293,115,7
65,0.689453125,-0.513671875,-0.13134765625,-13.170731707317074,31.707317073170735,12.560975609756099,115,7
66,0.66845703125,-0.53955078125,-0.109375,-14.695121951219514,34.93902439024391,13.78048780487805,115,7
67,0.689453125,-0.55859375,-0.13671875,-11.829268292682928,37.19512195121951,14.878048780487806,115,7
68,0.6904296875,-0.5419921875,-0.10791015625,-5.487804878048781,34.69512195121951,15.670731707317074,115,7
69,0.72119140625,-0.53515625,-0.13037109375,-1.402439024390244,31.951219512195124,16.52439024390244,115,7
70,0.7412109375,-0.5283203125,-0.21484375,-2.378048780487805,28.963414634146343,17.5609756097561,115,7
71,0.68212890625,-0.6123046875,-0.29443359375,-2.439024390243903,27.25609756097561,19.512195121951223,115,7
72,0.607421875,-0.6728515625,-0.20556640625,1.6463414634146343,25.60975609756098,16.34146341463415,115,7
73,0.66943359375,-0.5732421875,-0.248046875,11.219512195121952,20.426829268292686,8.902439024390244,115,7
74,0.794921875,-0.4296875,-0.1494140625,19.451219512195124,14.02439024390244,6.707317073170732,115,7
75,0.7734375,-0.4677734375,-0.14306640625,18.963414634146343,14.51219512195122,8.658536585365855,115,7
76,0.71533203125,-0.54150390625,-0.24755859375,10.060975609756099,19.32926829268293,6.097560975609756,115,7
77,0.71923828125,-0.50439453125,-0.0751953125,7.682926829268293,22.012195121951223,5.121951219512195,115,7
78,0.69775390625,-0.53662109375,-0.01513671875,7.743902439024391,22.926829268292686,7.195121951219513,115,7
79,0.64404296875,-0.6103515625,-0.03759765625,4.390243902439025,27.073170731707318,9.451219512195122,115,7
80,0.63916015625,-0.6015625,-0.0791015625,2.804878048780488,29.634146341463417,10.792682926829269,115,7
81,0.6533203125,-0.57861328125,-0.07470703125,3.4756097560975614,31.402439024390247,12.560975609756099,115,7
82,0.693359375,-0.5634765625,-0.10205078125,0.7926829268292683,33.84146341463415,14.756097560975611,115,7
83,0.68115234375,-0.54541015625,-0.08251953125,-4.817073170731708,40.54878048780488,14.51219512195122,115,7
84,0.70654296875,-0.62060546875,-0.046875,-5.7926829268292686,44.024390243902445,12.865853658536587,115,7
85,0.6357421875,-0.44189453125,-0.0556640625,-4.390243902439025,44.63414634146342,9.207317073170733,115,7
86,0.814453125,-0.498046875,-0.08154296875,-8.597560975609756,46.09756097560976,5.975609756097562,115,7
87,0.79345703125,-0.357421875,-0.119140625,-17.98780487804878,48.10975609756098,5.7926829268292686,115,7
88,0.66943359375,-0.41796875,-0.15576171875,-26.402439024390247,53.17073170731708,7.25609756097561,115,7
89,0.603515625,-0.46435546875,-0.11767578125,-28.59756097560976,58.04878048780488,6.890243902439025,115,7
90,0.611328125,-0.4375,-0.076171875,-25.0609756097561,56.768292682926834,7.439024390243903,115,7
91,0.65673828125,-0.396484375,-0.2001953125,-19.878048780487806,49.451219512195124,8.902439024390244,115,7
92,0.64794921875,-0.39599609375,-0.24169921875,-16.585365853658537,51.15853658536586,12.865853658536587,115,7
93,0.65380859375,-0.48193359375,-0.3271484375,-22.31707317073171,56.09756097560976,15.243902439024392,115,7
94,0.62646484375,-0.41455078125,-0.40673828125,-15.975609756097562,65.60975609756098,15.365853658536587,115,7
95,0.78125,-0.3857421875,-0.33642578125,-31.280487804878053,71.28048780487805,0.0,115,7
96,0.77197265625,-0.4130859375,-0.30517578125,-62.37804878048781,76.58536585365854,16.219512195121954,115,7
97,0.73974609375,-0.44580078125,-0.30908203125,-71.34146341463415,79.45121951219512,12.926829268292684,115,7
98,0.693359375,-0.47900390625,-0.26708984375,-73.10975609756098,77.13414634146342,9.756097560975611,115,7
99,0.6982421875,-0.4697265625,-0.23779296875,-67.5,71.95121951219512,7.25609756097561,115,7
100,0.71826171875,-0.44482421875,-0.23583984375,-61.09756097560976,66.46341463414635,4.817073170731708,115,7
101,0.6884765625,-0.435546875,-0.2177734375,-54.93902439024391,59.87804878048781,2.1951219512195124,115,7
102,0.64697265625,-0.44970703125,-0.24658203125,-47.19512195121952,52.07317073170732,0.0,115,7
103,0.6455078125,-0.439453125,-0.27490234375,-41.463414634146346,45.97560975609756,-1.6463414634146343,115,7
104,0.69482421875,-0.3994140625,-0.3232421875,-39.08536585365854,41.21951219512196,-2.1341463414634148,115,7
105,0.72314453125,-0.328125,-0.3388671875,-41.28048780487805,39.51219512195122,-3.963414634146342,115,7
106,0.7509765625,-0.28564453125,-0.32080078125,-48.10975609756098,42.25609756097561,-6.646341463414635,115,7
107,0.78564453125,-0.26416015625,-0.2841796875,-57.25609756097561,45.426829268292686,-8.719512195121952,115,7
108,0.76806640625,-0.2919921875,-0.24072265625,-62.19512195121952,47.01219512195122,-11.890243902439025,115,7
109,0.74853515625,-0.3251953125,-0.259765625,-64.32926829268293,47.86585365853659,-14.390243902439027,115,7
110,0.72021484375,-0.34033203125,-0.2705078125,-64.51219512195122,46.34146341463415,-16.158536585365855,115,7
111,0.69677734375,-0.337890625,-0.28271484375,-63.59756097560976,44.81707317073171,-18.597560975609756,115,7
112,0.71484375,-0.33837890625,-0.302734375,-63.963414634146346,43.65853658536586,-20.914634146341466,115,7
113,0.71923828125,-0.328125,-0.306640625,-67.01219512195122,42.43902439024391,-22.865853658536587,115,7
114,0.71826171875,-0.3388671875,-0.35498046875,-69.20731707317074,40.670731707317074,-25.30487804878049,115,7
115,0.75146484375,-0.2890625,-0.3447265625,-72.7439024390244,40.60975609756098,-27.5609756097561,115,7
116,0.7744140625,-0.2958984375,-0.3193359375,-79.69512195121952,42.43902439024391,-29.573170731707318,115,7
117,0.7412109375,-0.31884765625,-0.28515625,-85.3658536585366,44.024390243902445,-30.853658536585368,115,7
118,0.72998046875,-0.328125,-0.25048828125,-87.7439024390244,43.41463414634147,-32.19512195121951,115,7
119,0.8740234375,-0.330078125,-0.2705078125,-88.65853658536587,42.50000000000001,-32.80487804878049,115,7
120,0.74462890625,-0.3310546875,-0.26708984375,-89.81707317073172,42.07317073170732,-34.08536585365854,115,7
121,0.765625,-0.310546875,-0.2841796875,-90.85365853658537,40.670731707317074,-35.670731707317074,115,7
122,0.78173828125,-0.2802734375,-0.30419921875,-93.41463414634147,41.03658536585366,-38.10975609756098,115,7
123,0.79931640625,-0.2822265625,-0.3154296875,-98.10975609756099,41.463414634146346,-40.97560975609756,115,7
124,0.8232421875,-0.2587890625,-0.32080078125,-102.19512195121952,41.82926829268293,-43.65853658536586,115,7
125,0.84375,-0.23974609375,-0.30517578125,-106.76829268292684,42.926829268292686,-45.85365853658537,115,7
126,0.8232421875,-0.26953125,-0.31640625,-111.89024390243904,43.84146341463415,-47.25609756097561,115,7
127,0.80224609375,-0.2783203125,-0.2998046875,-115.42682926829269,44.75609756097561,-49.32926829268293,115,7
128,0.80615234375,-0.27490234375,-0.25390625,-117.13414634146342,44.32926829268293,-51.15853658536586,115,7
129,0.7958984375,-0.28955078125,-0.24658203125,-116.64634146341464,42.5609756097561,-52.43902439024391,115,7
130,0.8134765625,-0.27001953125,-0.23828125,-115.2439024390244,40.426829268292686,-54.024390243902445,115,7
131,0.80322265625,-0.2666015625,-0.26318359375,-113.35365853658537,37.07317073170732,-55.487804878048784,115,7
132,0.79541015625,-0.26171875,-0.2763671875,-111.58536585365854,34.08536585365854,-57.6219512195122,115,7
133,0.81298828125,-0.26611328125,-0.29443359375,-110.85365853658537,31.280487804878053,-59.93902439024391,115,7
134,0.84375,-0.2353515625,-0.3271484375,-111.09756097560977,29.695121951219516,-63.59756097560976,115,7
135,0.8583984375,-0.208984375,-0.35888671875,-113.10975609756099,28.902439024390247,-67.31707317073172,115,7
136,0.89453125,-0.17578125,-0.35107421875,-117.25609756097562,29.08536585365854,-71.70731707317074,115,7
137,0.90283203125,-0.1689453125,-0.34521484375,-123.17073170731709,30.54878048780488,-76.15853658536587,115,7
138,0.90869140625,-0.1748046875,-0.32373046875,-128.47560975609758,30.487804878048784,-80.3048780487805,115,7
139,0.89794921875,-0.16845703125,-0.31494140625,-130.7317073170732,28.902439024390247,-83.10975609756099,115,7
140,0.85498046875,-0.21484375,-0.3193359375,-131.09756097560978,25.60975609756098,-84.57317073170732,115,7
141,0.83056640625,-0.22802734375,-0.25634765625,-128.35365853658539,20.243902439024392,-86.40243902439025,115,7
142,0.8310546875,-0.20556640625,-0.39990234375,-125.1829268292683,16.890243902439025,-89.08536585365854,115,7
143,0.8935546875,-0.15966796875,-0.43994140625,-124.26829268292684,13.597560975609758,-89.81707317073172,115,7
144,0.93359375,-0.13623046875,-0.4990234375,-125.60975609756099,11.585365853658537,-91.03658536585367,115,7
145,0.9970703125,-0.11279296875,-0.50439453125,-130.1829268292683,13.963414634146343,-92.8658536585366,115,7
146,1.0712890625,-0.10302734375,-0.5322265625,-136.89024390243904,17.378048780487806,-94.45121951219512,115,7
147,1.09814453125,-0.10009765625,-0.53369140625,-144.57317073170734,21.402439024390247,-97.01219512195122,115,7
148,1.24755859375,-0.08154296875,-0.50390625,-151.64634146341464,24.26829268292683,-99.75609756097562,115,7
149,1.10791015625,-0.076171875,-0.48681640625,-158.0487804878049,27.195121951219516,-103.23170731707317,115,7
150,1.10107421875,-0.09912109375,-0.4619140625,-162.07317073170734,28.780487804878053,-105.48780487804879,115,7
151,1.0986328125,-0.10009765625,-0.44140625,-162.07317073170734,28.719512195121954,-107.98780487804879,115,7
152,1.0859375,-0.099609375,-0.38525390625,-162.01219512195124,29.75609756097561,-110.91463414634147,115,7
153,1.10205078125,-0.07177734375,-0.41162109375,-163.96341463414635,30.426829268292686,-113.78048780487806,115,7
154,1.1103515625,-0.029296875,-0.419921875,-166.89024390243904,29.87804878048781,-117.13414634146342,115,7
155,1.11572265625,-0.1171875,-0.3828125,-167.8048780487805,29.634146341463417,-121.82926829268294,115,7
156,1.1611328125,0.04052734375,-0.25390625,-166.58536585365854,28.353658536585368,-126.46341463414635,115,7
157,1.19775390625,0.0537109375,-0.3837890625,-167.01219512195124,27.987804878048784,-131.34146341463415,115,7
158,1.2451171875,0.05908203125,-0.38330078125,-167.8048780487805,30.426829268292686,-137.13414634146343,115,7
159,1.2705078125,0.0625,-0.45263671875,-166.64634146341464,27.80487804878049,-141.52439024390245,115,7
160,1.3037109375,0.08203125,-0.45263671875,-165.3048780487805,27.378048780487806,-145.97560975609758,115,7
161,1.36962890625,0.1123046875,-0.4580078125,-166.34146341463415,28.353658536585368,-150.1219512195122,115,7
162,1.49560546875,0.10791015625,-0.4755859375,-169.08536585365854,29.695121951219516,-153.96341463414635,115,7
163,1.35400390625,0.08740234375,-0.44287109375,-168.78048780487805,30.670731707317074,-157.6219512195122,115,7
164,1.3447265625,0.115234375,-0.38720703125,-165.7926829268293,30.54878048780488,-159.93902439024393,115,7
165,1.33447265625,0.11181640625,-0.251953125,-165.5487804878049,15.609756097560977,-161.82926829268294,115,7
166,1.3271484375,0.12109375,-0.40283203125,-166.58536585365854,30.975609756097565,-163.41463414634148,115,7
167,1.31640625,0.1298828125,-0.4052734375,-168.71951219512198,31.707317073170735,-166.89024390243904,115,7
168,1.34130859375,0.1796875,-0.37109375,-169.26829268292684,34.390243902439025,-171.46341463414635,115,7
169,1.3828125,0.201171875,-0.35595703125,-169.14634146341464,35.0,-173.41463414634148,115,7
170,1.404296875,0.21044921875,-0.36767578125,-169.69512195121953,35.85365853658537,-175.7926829268293,115,7
171,1.40576171875,0.2021484375,-0.357421875,-169.75609756097563,36.28048780487805,-179.20731707317074,115,7
172,1.423828125,0.22119140625,-0.33544921875,-167.8048780487805,36.524390243902445,-182.9268292682927,115,7
173,1.44384765625,0.22998046875,-0.30810546875,-164.20731707317074,36.82926829268293,-185.85365853658539,115,7
174,1.45947265625,0.2353515625,-0.27880859375,-160.5487804878049,37.07317073170732,-188.53658536585368,115,7
175,1.45654296875,0.2314453125,-0.3193359375,-158.47560975609758,35.1829268292683,-191.09756097560978,115,7
176,1.45751953125,0.29443359375,-0.279296875,-156.82926829268294,36.21951219512196,-196.21951219512198,115,7
177,1.52294921875,0.35302734375,-0.23681640625,-154.02439024390245,37.926829268292686,-200.6707317073171,115,7
178,1.5771484375,0.384765625,-0.1298828125,-151.70731707317074,36.890243902439025,-205.7317073170732,115,7
179,1.61181640625,0.3974609375,-0.2626953125,-150.0609756097561,38.47560975609756,-213.59756097560978,115,7
180,1.6669921875,0.43017578125,-0.24853515625,-149.32926829268294,38.47560975609756,-221.15853658536588,115,7
181,1.66015625,0.38134765625,-0.23828125,-148.47560975609758,39.146341463414636,-226.76829268292684,115,7
182,1.67578125,0.36767578125,-0.2216796875,-146.76829268292684,40.73170731707317,-235.5487804878049,115,7
183,1.71337890625,0.39892578125,-0.185546875,-145.5487804878049,42.50000000000001,-242.8658536585366,115,7
184,1.69384765625,0.40087890625,-0.17041015625,-146.21951219512195,43.53658536585366,-249.02439024390247,115,7
185,1.67822265625,0.39697265625,-0.0810546875,-143.0487804878049,45.1219512195122,-253.90243902439028,115,7
186,1.625,0.36279296875,0.0087890625,-139.39024390243904,46.28048780487805,-254.45121951219514,115,7
187,1.56884765625,0.31494140625,0.02197265625,-132.7439024390244,46.82926829268293,-254.69512195121953,115,7
188,1.5458984375,0.32177734375,0.0107421875,-123.04878048780489,45.60975609756098,-256.76829268292687,115,7
189,1.544921875,0.37109375,0.03173828125,-114.75609756097562,42.926829268292686,-258.1707317073171,115,7
190,1.54443359375,0.34765625,-0.0146484375,-110.79268292682927,42.37804878048781,-260.3658536585366,115,7
191,1.5146484375,0.359375,-0.0517578125,-108.71951219512196,44.81707317073171,-263.3536585365854,115,7
192,1.46142578125,0.3095703125,-0.048828125,-108.17073170731709,45.304878048780495,-263.2317073170732,115,7
193,1.3857421875,0.240234375,-0.02587890625,-107.37804878048782,48.84146341463415,-264.63414634146346,115,7
194,1.318359375,0.2763671875,0.05029296875,-102.56097560975611,49.451219512195124,-267.3170731707317,115,7
195,1.2890625,0.287109375,0.14013671875,-99.69512195121952,49.51219512195122,-268.9634146341464,115,7
196,1.2001953125,0.26318359375,0.15478515625,-98.17073170731709,50.60975609756098,-272.5609756097561,115,7
197,1.20703125,0.2880859375,0.146484375,-98.35365853658537,53.47560975609757,-275.3048780487805,115,7
198,1.14501953125,0.27099609375,0.19384765625,-99.51219512195122,57.43902439024391,-277.13414634146346,115,7
199,1.08984375,0.18701171875,0.19287109375,-100.3048780487805,62.01219512195122,-278.0487804878049,115,7
200,1.0185546875,0.13818359375,0.18408203125,-94.08536585365854,63.17073170731708,-278.4756097560976,115,7
201,0.97998046875,0.1279296875,0.16796875,-85.1219512195122,60.060975609756106,-274.8170731707317,115,7
202,0.9228515625,0.09521484375,0.1904296875,-75.91463414634147,58.71951219512196,-271.219512195122,115,7
203,0.87548828125,0.06787109375,0.2236328125,-69.69512195121952,58.963414634146346,-268.109756097561,115,7
204,0.8095703125,0.07080078125,0.3642578125,-64.87804878048782,59.268292682926834,-264.9390243902439,115,7
205,0.76904296875,0.05712890625,0.2158203125,-62.07317073170732,59.32926829268293,-262.8048780487805,115,7
206,0.734375,0.04345703125,0.16064453125,-62.50000000000001,60.304878048780495,-261.0975609756098,115,7
207,0.68896484375,0.033203125,0.220703125,-62.31707317073171,61.82926829268293,-258.8414634146342,115,7
208,0.63818359375,-0.0458984375,0.267578125,-58.71951219512196,62.07317073170732,-257.07317073170736,115,7
209,0.65478515625,-0.08154296875,0.2333984375,-55.85365853658537,64.69512195121952,-254.26829268292684,115,7
210,0.60888671875,-0.12109375,0.2607421875,-55.54878048780488,67.6829268292683,-251.46341463414637,115,7
211,0.51123046875,-0.18701171875,0.25732421875,-57.6829268292683,71.52439024390245,-246.03658536585368,115,7
212,0.4931640625,-0.31396484375,0.19873046875,-60.060975609756106,74.08536585365854,-240.91463414634148,115,7
213,0.29443359375,-0.3818359375,0.2734375,-57.25609756097561,74.26829268292684,-249.26829268292684,115,7
214,0.203125,-0.48779296875,0.3232421875,-51.951219512195124,73.04878048780489,-223.1707317073171,115,7
215,0.0986328125,-0.55712890625,0.2626953125,-42.987804878048784,71.82926829268294,-211.58536585365854,115,7
216,0.1220703125,-0.65576171875,0.47216796875,-33.84146341463415,70.54878048780489,-200.85365853658539,115,7
217,-0.07568359375,-0.70166015625,0.48974609375,-24.695121951219516,68.10975609756098,-188.41463414634148,115,7
218,-0.16552734375,-0.7724609375,0.5087890625,-19.451219512195124,65.0609756097561,-176.09756097560978,115,7
219,-0.26220703125,-0.8662109375,0.57080078125,-14.085365853658537,61.646341463414636,-163.1707317073171,115,7
220,-0.3251953125,-0.96435546875,0.5439453125,-10.975609756097562,59.207317073170735,-147.9878048780488,115,7
221,-0.40234375,-1.0751953125,0.4345703125,-9.634146341463415,57.50000000000001,-129.20731707317074,115,7
222,-0.53271484375,-1.22412109375,0.38525390625,-10.853658536585368,58.17073170731708,-110.91463414634147,115,7
223,-0.65185546875,-1.34814453125,0.412109375,-10.24390243902439,58.65853658536586,-90.91463414634147,115,7
224,-0.77001953125,-1.44921875,0.43115234375,-4.634146341463415,55.79268292682927,-71.76829268292684,115,7
225,-0.7978515625,-1.501953125,0.3994140625,1.402439024390244,53.04878048780488,-52.987804878048784,115,7
226,-0.80126953125,-1.56201171875,0.35888671875,5.182926829268293,51.463414634146346,-32.19512195121951,115,7
227,-0.810546875,-1.50341796875,0.33740234375,7.8048780487804885,49.69512195121952,-9.817073170731708,115,7
228,-0.84619140625,-1.73681640625,0.2919921875,11.402439024390246,48.53658536585366,13.78048780487805,115,7
229,-0.89208984375,-1.8740234375,0.29052734375,15.426829268292684,44.75609756097561,37.743902439024396,115,7
230,-0.9169921875,-1.97998046875,0.27197265625,24.939024390243905,39.75609756097561,47.6829268292683,115,7
231,-0.79833984375,-2.00830078125,0.33544921875,32.13414634146342,36.707317073170735,87.25609756097562,115,7
232,-0.736328125,-2.0224609375,0.29248046875,34.024390243902445,36.524390243902445,112.50000000000001,115,7
233,-0.525390625,-2.14208984375,0.1826171875,36.890243902439025,33.47560975609756,137.19512195121953,115,7
234,-0.44921875,-2.21826171875,0.17236328125,31.219512195121954,28.84146341463415,162.7439024390244,115,7
235,-0.2685546875,-2.24951171875,0.2333984375,57.37804878048781,26.52439024390244,172.01219512195124,115,7
236,-0.0615234375,-2.2841796875,0.22509765625,62.19512195121952,28.414634146341466,213.2926829268293,115,7
237,0.0087890625,-2.31982421875,0.16943359375,63.59756097560976,32.743902439024396,239.93902439024393,115,7
238,0.29248046875,-2.4326171875,0.13720703125,63.10975609756098,36.40243902439025,250.24390243902442,115,7
239,0.4296875,-2.5185546875,0.2041015625,67.07317073170732,38.35365853658537,292.9878048780488,115,7
240,0.6142578125,-2.61572265625,0.21826171875,72.8658536585366,37.43902439024391,322.7439024390244,115,7
241,0.8623046875,-2.7119140625,0.23046875,84.14634146341464,37.19512195121951,353.109756097561,115,7
242,1.02392578125,-2.79833984375,0.259765625,92.31707317073172,38.04878048780488,385.9146341463415,115,7
243,1.41650390625,-2.99755859375,0.24365234375,95.48780487804879,39.93902439024391,405.8536585365854,115,7
244,1.70361328125,-3.20947265625,0.14892578125,96.40243902439025,40.426829268292686,458.4756097560976,115,7
245,2.08544921875,-3.4375,0.0380859375,101.46341463414635,41.707317073170735,495.9146341463415,115,7
246,2.43017578125,-3.7353515625,-0.0888671875,93.65853658536587,33.109756097560975,529.939024390244,115,7
247,3.03515625,-3.90185546875,-0.2744140625,128.41463414634148,19.451219512195124,570.9756097560976,115,7
248,3.86865234375,-4.361328125,-0.568359375,156.46341463414635,14.756097560975611,617.0731707317074,115,7
249,4.61572265625,-4.5771484375,-0.90966796875,224.93902439024393,-14.451219512195124,660.0000000000001,115,7
250,5.41845703125,-4.63720703125,-0.97216796875,327.37804878048786,-22.012195121951223,698.109756097561,115,7
251,6.197265625,-4.78173828125,-1.12646484375,386.1585365853659,-16.03658536585366,738.1707317073171,115,7
252,6.94580078125,-4.60205078125,-1.15283203125,449.81707317073176,1.5853658536585367,770.8536585365854,115,7
253,7.65185546875,-4.41796875,-1.6171875,479.69512195121956,21.82926829268293,807.3780487804879,115,7
254,8.57275390625,-4.12353515625,-2.416015625,496.0975609756098,48.90243902439025,838.3536585365854,115,7
255,9.53466796875,-3.94482421875,-3.29638671875,505.30487804878055,123.71951219512196,867.0731707317074,115,7
256,10.27783203125,-3.4287109375,-4.12353515625,522.439024390244,160.7926829268293,902.439024390244,115,7
257,11.14990234375,-3.03076171875,-4.82470703125,517.0121951219512,179.32926829268294,918.8414634146342,115,7
258,11.71923828125,-2.515625,-5.505859375,545.4268292682927,172.8658536585366,921.7073170731708,115,7
259,11.9912109375,-1.474609375,-6.169921875,528.6585365853659,140.7317073170732,957.3170731707318,115,7
260,11.33251953125,-0.53369140625,-6.84814453125,555.1829268292684,60.85365853658537,952.1341463414635,115,7
261,10.53759765625,-0.5791015625,-7.18701171875,621.0975609756098,-83.59756097560977,905.7317073170733,115,7
262,8.95263671875,-1.22802734375,-7.240234375,783.6585365853659,-276.4634146341464,849.8780487804879,115,7
263,7.16162109375,-3.15478515625,-7.427734375,995.4268292682927,-472.56097560975616,772.2560975609757,115,7
264,6.11669921875,-4.0732421875,-8.580078125,1257.6829268292684,-717.8048780487806,650.2439024390244,115,7
265,6.763671875,-3.2646484375,9.39990234375,1256.4024390243903,-1597.378048780488,530.1829268292684,115,7
266,4.515625,-16.0,-16.0,1080.9146341463415,-751.5243902439025,-60.304878048780495,115,7
267,15.99951171875,15.99951171875,-16.0,123.47560975609757,-587.5609756097562,361.4024390243903,115,7
268,6.87158203125,-4.1025390625,8.30126953125,906.4634146341464,-266.4024390243903,-287.5609756097561,115,7
269,5.0888671875,2.45556640625,6.3408203125,1493.7804878048782,-411.0365853658537,-278.8414634146342,115,7
270,7.078125,-3.02880859375,2.451171875,1179.4512195121952,-284.63414634146346,-570.9756097560976,115,7
271,6.78369140625,0.3095703125,1.0751953125,781.0365853658537,74.63414634146342,-723.3536585365854,115,7
272,4.8447265625,0.30419921875,0.755859375,672.1341463414635,135.1219512195122,-480.54878048780495,115,7
273,4.1953125,-5.1787109375,-0.96240234375,637.9878048780488,130.3658536585366,-536.8902439024391,115,7
274,6.0302734375,-3.6279296875,-1.62353515625,451.4634146341464,148.41463414634148,-594.2073170731708,115,7
275,4.705078125,-3.7021484375,-3.61865234375,371.70731707317077,112.56097560975611,-684.0243902439025,115,7
276,4.26318359375,-3.0908203125,-2.7822265625,227.8048780487805,193.1707317073171,-718.109756097561,115,7
277,3.97509765625,-3.1044921875,-2.56005859375,211.52439024390245,219.39024390243904,-772.9268292682927,115,7
278,3.2265625,-2.6982421875,-2.92236328125,199.93902439024393,296.4024390243903,-798.5975609756098,115,7
279,3.64208984375,-2.09814453125,-2.77685546875,144.51219512195124,366.6463414634147,-811.7073170731708,115,7
280,3.4921875,-1.822265625,-2.9580078125,124.02439024390245,431.4634146341464,-802.9268292682927,115,7
281,3.9560546875,-1.53271484375,-2.8759765625,68.71951219512195,477.86585365853665,-769.8170731707318,115,7
282,3.564453125,-1.9482421875,-2.81787109375,43.41463414634147,506.4634146341464,-728.5975609756098,115,7
283,3.380859375,-1.9345703125,-3.05517578125,0.24390243902439027,528.7804878048781,-671.4024390243903,115,7
284,2.76953125,-1.92333984375,-3.0947265625,-44.87804878048781,532.6219512195122,-614.4512195121952,115,7
285,2.26708984375,-2.01513671875,-3.12158203125,-82.5609756097561,531.829268292683,-567.6219512195122,115,7
286,2.16015625,-1.82177734375,-2.42236328125,-113.84146341463416,538.719512195122,-543.719512195122,115,7
287,1.7822265625,-1.8359375,-1.70361328125,-134.39024390243904,542.5,-490.00000000000006,115,7
288,1.5546875,-1.81982421875,-1.59912109375,-144.9390243902439,535.7317073170732,-462.62195121951225,115,7
289,1.70849609375,-1.35986328125,-1.71484375,-148.96341463414635,520.8536585365854,-451.219512195122,115,7
290,1.8310546875,-1.01123046875,-1.96923828125,-149.87804878048783,493.2317073170732,-409.45121951219517,115,7
291,1.900390625,-1.00732421875,-2.1494140625,-154.26829268292684,473.4146341463415,-385.4878048780488,115,7
292,1.71728515625,-1.04150390625,-1.955078125,-167.7439024390244,456.219512195122,-365.7317073170732,115,7
293,1.513671875,-1.11328125,-1.91650390625,-181.95121951219514,438.6585365853659,-344.57317073170736,115,7
294,1.25244140625,-1.10986328125,-1.984375,-190.7317073170732,425.12195121951225,-324.69512195121956,115,7
295,1.2431640625,-0.8828125,-2.0390625,-211.76829268292684,410.9146341463415,-306.6463414634147,115,7
296,1.166015625,-0.69970703125,-2.048828125,-219.87804878048783,394.20731707317077,-284.0243902439025,115,7
297,0.99658203125,-0.64404296875,-1.81591796875,-215.3658536585366,376.6463414634147,-261.4634146341464,115,7
298,0.85498046875,-0.5791015625,-1.59765625,-210.1829268292683,349.75609756097566,-244.63414634146343,115,7
299,0.50048828125,-0.50830078125,-1.52587890625,-207.07317073170734,343.2926829268293,-227.50000000000003,115,7
300,0.1943359375,-0.517578125,-1.43115234375,-212.07317073170734,326.6463414634147,-211.15853658536588,115,7
301,-0.0634765625,-0.60205078125,-1.28466796875,-219.32926829268294,297.8048780487805,-194.08536585365854,115,7
302,-0.1865234375,-0.572265625,-1.13720703125,-222.62195121951223,289.39024390243907,-182.01219512195124,115,7
303,-0.1748046875,-0.3984375,-1.1689453125,-228.109756097561,286.4634146341464,-169.75609756097563,115,7
304,-0.10791015625,-0.2734375,-1.134765625,-239.08536585365854,273.0487804878049,-167.6219512195122,115,7
305,-0.1220703125,-0.1494140625,-1.55615234375,-249.57317073170734,262.2560975609756,-164.02439024390245,115,7
306,0.01416015625,-0.1533203125,-1.44384765625,-210.1829268292683,243.1707317073171,-166.28048780487805,115,7
307,0.1962890625,-0.1455078125,-1.26904296875,-204.51219512195124,236.52439024390247,-163.0487804878049,115,7
308,-0.18896484375,-0.1767578125,-1.15576171875,-208.78048780487808,229.14634146341464,-152.43902439024393,115,7
309,-0.61865234375,-0.30810546875,-1.04443359375,-205.85365853658539,219.39024390243904,-143.2317073170732,115,7
310,-0.8232421875,-0.388671875,-1.01318359375,-192.9878048780488,217.68292682926833,-135.3048780487805,115,7
311,-0.93359375,-0.396484375,-1.09130859375,-182.6829268292683,202.43902439024393,-133.35365853658539,115,7
312,-0.92626953125,-0.296875,-1.08935546875,-165.7317073170732,187.25609756097563,-130.5487804878049,115,7
313,-0.873046875,-0.23095703125,-0.904296875,-161.40243902439025,163.59756097560978,-128.90243902439025,115,7
314,-0.8330078125,-0.078125,-0.7802734375,-168.41463414634148,157.19512195121953,-126.15853658536587,115,7
315,-0.6826171875,-0.0517578125,-1.201171875,-180.4268292682927,152.8658536585366,-119.51219512195124,115,7
316,-0.662109375,-0.11328125,-1.0322265625,-166.58536585365854,149.14634146341464,-107.6219512195122,115,7
317,-1.05810546875,-0.2548828125,-1.02490234375,-160.1829268292683,135.3658536585366,-103.96341463414635,115,7
318,-1.0234375,-0.33447265625,-1.0078125,-141.28048780487805,127.37804878048782,-98.90243902439025,115,7
319,-1.3076171875,-0.322265625,-0.97998046875,-134.69512195121953,118.23170731707319,-109.08536585365854,115,7
320,-1.29052734375,-0.2197265625,-1.044921875,-129.9390243902439,111.03658536585367,-84.87804878048782,115,7
321,-1.1982421875,-0.18212890625,-1.00048828125,-129.08536585365854,105.3048780487805,-93.59756097560977,115,7
322,-1.0751953125,-0.1201171875,-1.12841796875,-124.14634146341464,96.89024390243904,-68.17073170731707,115,7
323,-1.05908203125,-0.15966796875,-1.10986328125,-121.89024390243904,83.65853658536587,-57.31707317073171,115,7
324,-1.19970703125,-0.24365234375,-1.13671875,-111.64634146341464,67.43902439024392,-62.31707317073171,115,7
325,-1.345703125,-0.25634765625,-1.06884765625,-98.84146341463415,52.5609756097561,-40.0,115,7
326,-1.40478515625,-0.42919921875,-1.11865234375,-85.85365853658537,41.463414634146346,-29.451219512195124,115,7
327,-1.48291015625,-0.4619140625,-0.904296875,-79.32926829268294,33.41463414634146,-18.414634146341466,115,7
328,-1.47412109375,-0.48095703125,-0.880859375,-74.14634146341464,27.012195121951223,-6.7682926829268295,115,7
329,-1.47021484375,-0.4697265625,-0.85595703125,-69.75609756097562,16.82926829268293,2.8658536585365857,115,7
330,-1.43994140625,-0.4228515625,-0.8994140625,-60.91463414634147,3.4756097560975614,9.207317073170733,115,7
331,-1.40576171875,-0.3525390625,-0.91845703125,-49.81707317073171,-8.963414634146343,13.597560975609758,115,7
332,-1.3603515625,-0.27392578125,-0.9111328125,-39.57317073170732,-19.634146341463417,17.804878048780488,115,7
333,-1.3095703125,-0.2158203125,-0.8583984375,-32.43902439024391,-29.87804878048781,22.80487804878049,115,7
334,-1.28955078125,-0.18408203125,-0.798828125,-25.121951219512198,-39.51219512195122,27.25609756097561,115,7
335,-1.27978515625,-0.14208984375,-0.77294921875,-19.32926829268293,-47.6219512195122,30.60975609756098,115,7
336,-1.22998046875,-0.11767578125,-0.75927734375,-14.146341463414636,-52.5609756097561,34.69512195121951,115,7
337,-1.22314453125,-0.11865234375,-0.763671875,-10.30487804878049,-61.95121951219513,37.5609756097561,115,7
338,-1.21630859375,-0.07861328125,-0.76416015625,-3.1097560975609757,-72.31707317073172,38.90243902439025,115,7
339,-1.19287109375,-0.0458984375,-0.6591796875,4.939024390243903,-82.25609756097562,40.36585365853659,115,7
340,-1.1904296875,-0.02685546875,-0.63232421875,8.78048780487805,-91.52439024390245,41.463414634146346,115,7
341,-1.130859375,0.01025390625,-0.619140625,16.646341463414636,-99.51219512195122,42.13414634146342,115,7
342,-1.109375,0.0537109375,-0.54931640625,24.146341463414636,-108.35365853658537,42.926829268292686,115,7
343,-1.08349609375,0.08251953125,-0.517578125,30.30487804878049,-116.64634146341464,43.47560975609756,115,7
344,-1.07373046875,0.11865234375,-0.466796875,37.19512195121951,-123.41463414634147,43.53658536585366,115,7
345,-1.05859375,0.1396484375,-0.42236328125,41.58536585365854,-128.84146341463415,44.69512195121952,115,7
346,-1.046875,0.1435546875,-0.34326171875,45.73170731707317,-131.76829268292684,46.09756097560976,115,7
347,-1.044921875,0.24755859375,-0.2802734375,47.31707317073171,-133.65853658536585,47.50000000000001,115,7
348,-1.04296875,0.1103515625,-0.21630859375,48.78048780487805,-134.02439024390245,48.90243902439025,115,7
349,-1.04345703125,0.11669921875,-0.15869140625,48.71951219512196,-135.3658536585366,49.451219512195124,115,7
350,-1.02783203125,0.1533203125,-0.16650390625,49.146341463414636,-137.5,50.243902439024396,115,7
351,-1.02490234375,0.162109375,-0.17578125,51.15853658536586,-140.97560975609758,49.63414634146342,115,7
352,-1.015625,0.15966796875,-0.169921875,55.365853658536594,-144.81707317073173,49.39024390243903,115,7
353,-0.9833984375,0.14306640625,-0.1318359375,59.93902439024391,-147.8048780487805,48.59756097560976,115,7
354,-0.974609375,0.13330078125,-0.08056640625,63.35365853658537,-148.84146341463415,48.170731707317074,115,7
355,-0.98193359375,0.1337890625,-0.0205078125,66.58536585365854,-150.1829268292683,48.41463414634147,115,7
356,-0.978515625,0.134765625,0.005859375,69.93902439024392,-150.1219512195122,48.963414634146346,115,7
357,-0.9609375,0.1552734375,0.02783203125,73.35365853658537,-150.85365853658539,50.1829268292683,115,7
358,-0.95166015625,0.158203125,0.05029296875,77.8048780487805,-152.19512195121953,50.426829268292686,115,7
359,-0.94140625,0.1796875,0.06982421875,81.34146341463415,-153.65853658536588,50.0609756097561,115,7
360,-0.9150390625,0.2158203125,0.08935546875,84.75609756097562,-154.08536585365854,49.69512195121952,115,7
361,-0.89599609375,0.2451171875,0.11572265625,85.3048780487805,-153.65853658536588,48.84146341463415,115,7
362,-0.89208984375,0.2626953125,0.126953125,86.15853658536587,-155.5487804878049,49.63414634146342,115,7
363,-0.88330078125,0.27734375,0.140625,86.46341463414635,-157.6219512195122,50.0609756097561,115,7
364,-0.8662109375,0.29443359375,0.1484375,86.95121951219512,-159.75609756097563,50.97560975609756,115,7
365,-0.8466796875,0.2861328125,0.150390625,87.25609756097562,-160.609756097561,51.524390243902445,115,7
366,-0.8134765625,0.28662109375,0.1943359375,86.34146341463415,-161.95121951219514,52.19512195121952,115,7
367,-0.8203125,0.27197265625,0.2158203125,86.70731707317074,-166.40243902439025,52.804878048780495,115,7
368,-0.83984375,0.22216796875,0.12548828125,88.78048780487805,-167.19512195121953,52.13414634146342,115,7
369,-0.84619140625,0.21240234375,0.2890625,91.76829268292684,-166.09756097560978,51.524390243902445,115,7
370,-0.78466796875,0.2275390625,0.33251953125,91.64634146341464,-162.5,51.524390243902445,115,7
371,-0.708984375,0.27001953125,0.341796875,89.63414634146342,-159.87804878048783,51.89024390243903,115,7
372,-0.6748046875,0.30126953125,0.34033203125,87.5609756097561,-160.3658536585366,52.743902439024396,115,7
373,-0.66650390625,0.3037109375,0.31298828125,87.5609756097561,-163.47560975609758,53.04878048780488,115,7
374,-0.67578125,0.29296875,0.328125,90.73170731707317,-166.64634146341464,52.926829268292686,115,7
375,-0.68115234375,0.294921875,0.3671875,93.29268292682927,-169.26829268292684,52.86585365853659,115,7
376,-0.65185546875,0.32177734375,0.38720703125,93.47560975609757,-169.81707317073173,53.10975609756098,115,7
377,-0.6328125,0.3544921875,0.42724609375,91.15853658536587,-169.39024390243904,53.17073170731708,115,7
378,-0.62353515625,0.35302734375,0.458984375,88.10975609756099,-169.63414634146343,54.57317073170732,115,7
379,-0.74951171875,0.33447265625,0.47119140625,86.58536585365854,-169.93902439024393,56.09756097560976,115,7
380,-0.61767578125,0.30810546875,0.5087890625,86.52439024390245,-169.69512195121953,57.6829268292683,115,7
381,-0.6103515625,0.29638671875,0.5400390625,86.34146341463415,-167.6829268292683,58.963414634146346,115,7
382,-0.59375,0.29296875,0.55517578125,84.32926829268294,-164.26829268292684,61.03658536585366,115,7
383,-0.578125,0.3154296875,0.56494140625,82.7439024390244,-161.40243902439025,63.47560975609757,115,7
384,-0.5537109375,0.3564453125,0.5625,82.01219512195122,-159.20731707317074,65.91463414634147,115,7
385,-0.515625,0.400390625,0.5703125,82.50000000000001,-159.08536585365854,68.04878048780489,115,7
386,-0.47216796875,0.4208984375,0.55126953125,83.71951219512196,-159.75609756097563,69.26829268292684,115,7
387,-0.44921875,0.42333984375,0.5322265625,85.1219512195122,-160.0,70.79268292682927,115,7
388,-0.4228515625,0.4326171875,0.5380859375,86.21951219512196,-160.0609756097561,72.5,115,7
389,-0.38916015625,0.44970703125,0.5419921875,85.73170731707317,-159.26829268292684,73.59756097560977,115,7
390,-0.35107421875,0.4755859375,0.57666015625,82.25609756097562,-155.91463414634148,73.96341463414635,115,7
391,-0.3212890625,0.478515625,0.58349609375,75.67073170731707,-151.64634146341464,75.1829268292683,115,7
392,-0.29638671875,0.49365234375,0.615234375,69.69512195121952,-147.01219512195124,75.42682926829269,115,7
393,-0.271484375,0.4921875,0.63818359375,66.40243902439025,-144.14634146341464,76.76829268292684,115,7
394,-0.255859375,0.4794921875,0.66015625,66.52439024390245,-142.8048780487805,77.98780487804879,115,7
395,-0.24072265625,0.4892578125,0.67626953125,69.63414634146342,-141.95121951219514,78.35365853658537,115,7
396,-0.212890625,0.3779296875,0.6806640625,72.43902439024392,-141.89024390243904,77.6829268292683,115,7
397,-0.19482421875,0.51513671875,0.68994140625,73.29268292682927,-156.03658536585368,75.73170731707317,115,7
398,-0.1650390625,0.53076171875,0.70654296875,72.7439024390244,-137.6829268292683,74.20731707317074,115,7
399,-0.1533203125,0.55078125,0.70751953125,72.31707317073172,-134.69512195121953,73.78048780487805,115,7
400,-0.15380859375,0.541015625,0.68603515625,70.2439024390244,-131.09756097560978,72.7439024390244,115,7
401,-0.11376953125,0.578125,0.66015625,68.71951219512195,-129.08536585365854,71.70731707317074,115,7
402,-0.09716796875,0.59619140625,0.63916015625,67.5609756097561,-130.4878048780488,72.01219512195122,115,7
403,-0.103515625,0.5791015625,0.60888671875,66.52439024390245,-130.3048780487805,72.31707317073172,115,7
404,-0.09130859375,0.57666015625,0.609375,64.08536585365854,-129.69512195121953,71.34146341463415,115,7
405,-0.080078125,0.59716796875,0.62939453125,60.243902439024396,-127.07317073170732,70.42682926829269,115,7
406,-0.09130859375,0.59765625,0.66259765625,54.32926829268293,-123.71951219512196,70.67073170731707,115,7
407,-0.0849609375,0.62255859375,0.70068359375,50.00000000000001,-120.60975609756099,70.60975609756098,115,7
408,-0.08203125,0.603515625,0.69482421875,47.07317073170732,-119.39024390243904,70.54878048780489,115,7
409,-0.10205078125,0.5849609375,0.6708984375,47.13414634146342,-119.32926829268294,69.69512195121952,115,7
410,-0.109375,0.58203125,0.68359375,48.59756097560976,-119.32926829268294,69.51219512195122,115,7
411,-0.10107421875,0.5927734375,0.67041015625,50.00000000000001,-119.02439024390245,69.81707317073172,115,7
412,-0.06298828125,0.60791015625,0.65673828125,50.304878048780495,-117.07317073170732,70.1829268292683,115,7
413,-0.02490234375,0.6123046875,0.60546875,47.50000000000001,-115.06097560975611,71.28048780487805,115,7
414,0.0,0.640625,0.5859375,44.51219512195122,-113.90243902439025,71.64634146341464,115,7
415,0.0234375,0.6708984375,0.591796875,42.13414634146342,-114.02439024390245,71.52439024390245,115,7
416,0.0458984375,0.71435546875,0.59130859375,39.81707317073171,-113.53658536585367,71.40243902439025,115,7
417,0.046875,0.712890625,0.59326171875,37.5,-112.8658536585366,71.64634146341464,115,7
418,0.0234375,0.67822265625,0.58349609375,34.32926829268293,-110.79268292682927,71.52439024390245,115,7
419,0.03271484375,0.677734375,0.5966796875,32.86585365853659,-108.90243902439025,70.3048780487805,115,7
420,0.041015625,0.68798828125,0.61279296875,33.53658536585366,-107.6219512195122,69.45121951219512,115,7
421,0.05078125,0.68994140625,0.62060546875,34.32926829268293,-105.54878048780489,69.51219512195122,115,7
422,0.06787109375,0.681640625,0.62060546875,33.41463414634146,-103.29268292682927,70.1219512195122,115,7
423,0.0869140625,0.67236328125,0.6142578125,33.41463414634146,-101.46341463414635,71.21951219512195,115,7
424,0.0869140625,0.66845703125,0.59130859375,34.63414634146342,-100.00000000000001,72.13414634146342,115,7
425,0.1025390625,0.6650390625,0.59375,36.21951219512196,-99.20731707317074,72.8048780487805,115,7
426,0.00390625,0.6796875,0.56591796875,37.743902439024396,-98.71951219512196,74.26829268292684,115,7
427,0.1279296875,0.703125,0.533203125,36.82926829268293,-98.90243902439025,74.02439024390245,115,7
428,0.1201171875,0.74365234375,0.4638671875,34.024390243902445,-97.92682926829269,73.23170731707317,115,7
429,0.15625,0.77734375,0.37548828125,30.30487804878049,-96.70731707317074,72.01219512195122,115,7
430,0.19580078125,0.81005859375,0.521484375,26.82926829268293,-95.91463414634147,71.34146341463415,115,7
431,0.2255859375,0.81787109375,0.52734375,24.695121951219516,-96.09756097560977,70.79268292682927,115,7
432,0.220703125,0.78759765625,0.5224609375,24.573170731707318,-96.52439024390245,70.42682926829269,115,7
433,0.20751953125,0.76318359375,0.51806640625,26.03658536585366,-96.89024390243904,69.81707317073172,115,7
434,0.21826171875,0.73388671875,0.5009765625,27.621951219512198,-97.6219512195122,69.02439024390245,115,7
435,0.2353515625,0.70849609375,0.49072265625,27.682926829268297,-98.17073170731709,69.20731707317074,115,7
436,0.263671875,0.6669921875,0.46826171875,26.82926829268293,-97.19512195121952,69.51219512195122,115,7
437,0.27734375,0.63916015625,0.486328125,22.500000000000004,-95.85365853658537,69.51219512195122,115,7
438,0.26416015625,0.63427734375,0.52783203125,17.5609756097561,-93.71951219512196,70.42682926829269,115,7
439,0.36865234375,0.63818359375,0.55859375,13.29268292682927,-91.58536585365854,70.91463414634147,115,7
440,0.2373046875,0.65625,0.6015625,11.707317073170733,-90.67073170731707,71.03658536585367,115,7
441,0.228515625,0.64404296875,0.59033203125,11.707317073170733,-90.48780487804879,72.19512195121952,115,7
442,0.2470703125,0.6533203125,0.55908203125,13.04878048780488,-91.15853658536587,73.04878048780489,115,7
443,0.24267578125,0.6650390625,0.51416015625,14.51219512195122,-91.09756097560977,73.47560975609757,115,7
444,0.27490234375,0.6953125,0.4794921875,13.78048780487805,-90.60975609756099,74.14634146341464,115,7
445,0.32666015625,0.7109375,0.42822265625,11.951219512195124,-90.2439024390244,74.87804878048782,115,7
446,0.35400390625,0.70361328125,0.42919921875,10.121951219512196,-90.1219512195122,75.0609756097561,115,7
447,0.37646484375,0.67041015625,0.4365234375,8.902439024390244,-88.90243902439025,74.75609756097562,115,7
448,0.39013671875,0.6533203125,0.47412109375,9.085365853658537,-86.70731707317074,73.96341463414635,115,7
449,0.40234375,0.63623046875,0.5,10.792682926829269,-84.20731707317074,73.10975609756098,115,7
450,0.4169921875,0.60986328125,0.5,12.987804878048781,-82.25609756097562,72.43902439024392,115,7
451,0.44140625,0.61474609375,0.47216796875,15.121951219512196,-81.03658536585367,71.76829268292684,115,7
452,0.43505859375,0.6220703125,0.4462890625,16.890243902439025,-80.48780487804879,71.46341463414635,115,7
453,0.4189453125,0.65966796875,0.4052734375,17.31707317073171,-80.0609756097561,71.76829268292684,115,7
454,0.40966796875,0.7021484375,0.3642578125,15.975609756097562,-80.67073170731707,73.29268292682927,115,7
455,0.416015625,0.693359375,0.328125,12.439024390243903,-81.28048780487805,74.08536585365854,115,7
456,0.44873046875,0.70947265625,0.30859375,7.865853658536586,-82.98780487804879,73.84146341463415,115,7
457,0.45703125,0.70068359375,0.3173828125,4.024390243902439,-84.02439024390245,73.04878048780489,115,7
458,0.47412109375,0.68115234375,0.34716796875,-0.6707317073170732,-84.51219512195122,72.5609756097561,115,7
459,0.376953125,0.66455078125,0.36572265625,-4.878048780487806,-84.63414634146342,72.25609756097562,115,7
460,0.529296875,0.62646484375,0.39111328125,-6.890243902439025,-85.0609756097561,71.58536585365854,115,7
461,0.53515625,0.578125,0.4560546875,-6.402439024390245,-84.81707317073172,70.79268292682927,115,7
462,0.5341796875,0.5517578125,0.37841796875,-3.414634146341464,-85.0609756097561,69.51219512195122,115,7
463,0.52978515625,0.5146484375,0.484375,-0.48780487804878053,-82.98780487804879,67.5,115,7
464,0.5498046875,0.376953125,0.44775390625,1.402439024390244,-80.73170731707317,65.48780487804879,115,7
465,0.5595703125,0.5380859375,0.38720703125,3.353658536585366,-78.84146341463415,64.08536585365854,115,7
466,0.57080078125,0.55908203125,0.35791015625,3.048780487804878,-75.67073170731707,63.41463414634147,115,7
467,0.60205078125,0.57958984375,0.3125,1.3414634146341464,-73.10975609756098,63.04878048780488,115,7
468,0.62255859375,0.5869140625,0.27978515625,-0.426829268292683,-70.91463414634147,62.6219512195122,115,7
469,0.6083984375,0.58251953125,0.25830078125,-1.402439024390244,-70.1219512195122,61.89024390243903,115,7
470,0.61279296875,0.57421875,0.27978515625,-0.9146341463414634,-70.1219512195122,61.09756097560976,115,7
471,0.61865234375,0.568359375,0.265625,1.0975609756097562,-72.25609756097562,60.60975609756098,115,7
472,0.5908203125,0.54345703125,0.25390625,3.8414634146341466,-76.89024390243902,60.79268292682927,115,7
473,0.5341796875,0.4755859375,0.236328125,6.219512195121951,-79.14634146341464,60.365853658536594,115,7
474,0.54541015625,0.4853515625,0.27294921875,6.951219512195123,-78.65853658536587,58.59756097560976,115,7
475,0.56298828125,0.52685546875,0.2900390625,5.0,-75.97560975609757,57.926829268292686,115,7
476,0.6015625,0.57666015625,0.31396484375,0.48780487804878053,-72.37804878048782,58.963414634146346,115,7
477,0.62109375,0.59130859375,0.2958984375,-3.414634146341464,-69.75609756097562,59.81707317073171,115,7
478,0.60546875,0.5546875,0.27734375,-5.853658536585367,-67.19512195121952,59.51219512195122,115,7
479,0.60791015625,0.5283203125,0.27978515625,-5.548780487804878,-66.21951219512195,58.963414634146346,115,7
480,0.6044921875,0.50341796875,0.28369140625,-2.073170731707317,-67.5,58.59756097560976,115,7
481,0.61083984375,0.4912109375,0.2705078125,1.402439024390244,-67.7439024390244,57.560975609756106,115,7
482,0.6083984375,0.46142578125,0.24267578125,3.7195121951219514,-69.08536585365854,57.07317073170732,115,7
483,0.60595703125,0.4541015625,0.19287109375,7.317073170731708,-70.97560975609757,56.03658536585366,115,7
484,0.61083984375,0.43603515625,0.193359375,9.207317073170733,-71.03658536585367,54.75609756097561,115,7
485,0.64306640625,0.4404296875,0.1884765625,10.731707317073171,-70.48780487804879,54.207317073170735,115,7
486,0.6611328125,0.43603515625,0.19580078125,9.146341463414634,-67.43902439024392,54.146341463414636,115,7
487,0.67822265625,0.4423828125,0.1875,3.231707317073171,-61.707317073170735,53.65853658536586,115,7
488,0.68798828125,0.44970703125,0.1669921875,-4.817073170731708,-55.73170731707317,53.78048780487806,115,7
489,0.68212890625,0.44580078125,0.1337890625,-11.951219512195124,-50.243902439024396,52.50000000000001,115,7
490,0.7001953125,0.4619140625,0.134765625,-15.000000000000002,-49.268292682926834,52.13414634146342,115,7
491,0.6982421875,0.43310546875,0.0791015625,-12.926829268292684,-53.23170731707317,52.6219512195122,115,7
492,0.6884765625,0.39013671875,0.06591796875,-9.146341463414634,-55.85365853658537,50.91463414634147,115,7
493,0.68505859375,0.359375,0.08447265625,-3.8414634146341466,-58.35365853658537,49.57317073170732,115,7
494,0.7099609375,0.37109375,0.1162109375,0.30487804878048785,-59.39024390243903,47.86585365853659,115,7
495,0.73193359375,0.37451171875,0.1083984375,1.402439024390244,-58.65853658536586,46.28048780487805,115,7
496,0.7255859375,0.37451171875,0.0927734375,-1.7682926829268295,-56.21951219512196,44.08536585365854,115,7
497,0.74267578125,0.39892578125,0.0859375,-4.695121951219512,-52.6829268292683,41.768292682926834,115,7
498,0.7470703125,0.40380859375,0.08740234375,-6.341463414634147,-49.87804878048781,39.87804878048781,115,7
499,0.75390625,0.3974609375,0.10302734375,-7.134146341463415,-47.5609756097561,39.63414634146342,115,7
