,Ax,Ay,Az,Gx,Gy,Gz,distance,shot_type
0,0.69287109375,-0.4794921875,-0.20654296875,4.573170731707317,3.048780487804878,1.829268292682927,125,4
1,0.67578125,-0.5205078125,-0.21484375,4.878048780487806,2.987804878048781,1.829268292682927,125,4
2,0.64453125,-0.5849609375,-0.21337890625,7.073170731707318,1.7682926829268295,2.378048780487805,125,4
3,0.6484375,-0.609375,-0.26416015625,9.939024390243903,-1.4634146341463417,2.073170731707317,125,4
4,0.6640625,-0.57275390625,-0.3095703125,11.76829268292683,-3.1707317073170733,1.2195121951219514,125,4
5,0.69384765625,-0.5361328125,-0.3037109375,9.390243902439025,-1.7682926829268295,0.0,125,4
6,0.69970703125,-0.62060546875,-0.29296875,5.182926829268293,0.6707317073170732,-0.7926829268292683,125,4
7,0.6962890625,-0.51171875,-0.29052734375,0.12195121951219513,3.353658536585366,-0.7317073170731708,125,4
8,0.69189453125,-0.54248046875,-0.2919921875,-5.731707317073171,5.670731707317073,-1.0975609756097562,125,4
9,0.69189453125,-0.50830078125,-0.27978515625,-9.451219512195122,6.829268292682928,-1.8902439024390245,125,4
10,0.6689453125,-0.51025390625,-0.25439453125,-11.158536585365855,7.439024390243903,-1.3414634146341464,125,4
11,0.6640625,-0.537109375,-0.22216796875,-9.878048780487806,5.0,-1.7682926829268295,125,4
12,0.6689453125,-0.55224609375,-0.2353515625,-6.402439024390245,2.3170731707317076,-2.1951219512195124,125,4
13,0.6552734375,-0.56298828125,-0.24169921875,-5.060975609756098,0.5487804878048781,-2.1341463414634148,125,4
14,0.6396484375,-0.56201171875,-0.244140625,-3.536585365853659,-1.829268292682927,-1.7682926829268295,125,4
15,0.65185546875,-0.54296875,-0.234375,-1.2804878048780488,-2.8658536585365857,-1.9512195121951221,125,4
16,0.66748046875,-0.54248046875,-0.22265625,0.48780487804878053,-4.207317073170732,-2.682926829268293,125,4
17,0.69921875,-0.51220703125,-0.22607421875,2.8658536585365857,-4.878048780487806,-3.5975609756097566,125,4
18,0.6923828125,-0.50634765625,-0.23193359375,1.707317073170732,-3.7195121951219514,-4.51219512195122,125,4
19,0.7060546875,-0.48486328125,-0.22802734375,-1.2195121951219514,-1.1585365853658538,-6.036585365853659,125,4
20,0.7197265625,-0.47021484375,-0.22509765625,-4.451219512195122,-0.12195121951219513,-7.073170731707318,125,4
21,0.70751953125,-0.47802734375,-0.20556640625,-5.975609756097562,2.1951219512195124,-8.231707317073171,125,4
22,0.6982421875,-0.49755859375,-0.1982421875,-5.7926829268292686,0.9146341463414634,-8.963414634146343,125,4
23,0.68115234375,-0.5009765625,-0.20263671875,-3.780487804878049,0.6097560975609757,-9.634146341463415,125,4
24,0.662109375,-0.51513671875,-0.18505859375,-2.378048780487805,0.853658536585366,-8.536585365853659,125,4
25,0.654296875,-0.52685546875,-0.1591796875,-0.853658536585366,2.0121951219512195,-8.048780487804878,125,4
26,0.65625,-0.51416015625,-0.1513671875,0.853658536585366,3.353658536585366,-8.353658536585366,125,4
27,0.6552734375,-0.5126953125,-0.17822265625,1.4634146341463417,4.146341463414634,-7.439024390243903,125,4
28,0.669921875,-0.51953125,-0.189453125,0.30487804878048785,6.219512195121951,-6.463414634146342,125,4
29,0.69091796875,-0.53125,-0.21240234375,-3.5975609756097566,9.695121951219512,-5.121951219512195,125,4
30,0.67041015625,-0.5439453125,-0.21533203125,-8.536585365853659,13.475609756097562,-3.658536585365854,125,4
31,0.65673828125,-0.56640625,-0.19189453125,-12.682926829268293,16.70731707317073,-1.707317073170732,125,4
32,0.658203125,-0.60595703125,-0.18505859375,-14.26829268292683,18.597560975609756,-0.30487804878048785,125,4
33,0.65673828125,-0.65576171875,-0.19091796875,-13.231707317073171,18.353658536585368,1.7682926829268295,125,4
34,0.62548828125,-0.7041015625,-0.20751953125,-9.817073170731708,15.731707317073171,3.4756097560975614,125,4
35,0.611328125,-0.7158203125,-0.22509765625,-5.121951219512195,12.865853658536587,5.182926829268293,125,4
36,0.5947265625,-0.72119140625,-0.13037109375,-3.231707317073171,11.52439024390244,6.707317073170732,125,4
37,0.6015625,-0.69873046875,-0.26318359375,-2.804878048780488,11.219512195121952,7.317073170731708,125,4
38,0.59765625,-0.662109375,-0.28466796875,-5.853658536585367,12.439024390243903,7.500000000000001,125,4
39,0.60986328125,-0.6376953125,-0.28173828125,-9.878048780487806,14.634146341463415,7.926829268292684,125,4
40,0.62353515625,-0.74755859375,-0.26708984375,-12.926829268292684,16.158536585365855,8.536585365853659,125,4
41,0.61279296875,-0.6513671875,-0.37158203125,-16.03658536585366,17.134146341463417,9.085365853658537,125,4
42,0.5966796875,-0.64990234375,-0.2451171875,-16.76829268292683,15.670731707317074,9.390243902439025,125,4
43,0.6044921875,-0.650390625,-0.220703125,-13.78048780487805,11.890243902439025,9.939024390243903,125,4
44,0.61328125,-0.6572265625,-0.203125,-9.573170731707318,7.743902439024391,9.817073170731708,125,4
45,0.64111328125,-0.63330078125,-0.20751953125,-4.878048780487806,3.414634146341464,8.841463414634147,125,4
46,0.6513671875,-0.6015625,-0.2265625,-0.30487804878048785,15.365853658536587,7.01219512195122,125,4
47,0.68603515625,-0.5634765625,-0.22021484375,3.4756097560975614,-2.5609756097560976,4.878048780487806,125,4
48,0.720703125,-0.51611328125,-0.22216796875,5.731707317073171,-2.804878048780488,2.378048780487805,125,4
49,0.73046875,-0.4658203125,-0.2109375,8.292682926829269,-2.073170731707317,-0.48780487804878053,125,4
50,0.73876953125,-0.435546875,-0.17236328125,10.609756097560977,-0.6707317073170732,-2.987804878048781,125,4
51,0.7412109375,-0.4150390625,-0.16357421875,11.52439024390244,-0.1829268292682927,-5.0,125,4
52,0.740234375,-0.39111328125,-0.150390625,11.829268292682928,-0.6097560975609757,-5.853658536585367,125,4
53,0.734375,-0.38720703125,-0.15185546875,11.097560975609756,-1.524390243902439,-5.670731707317073,125,4
54,0.72607421875,-0.4970703125,-0.13330078125,11.219512195121952,-1.6463414634146343,-5.609756097560976,125,4
55,0.7265625,-0.3505859375,-0.11767578125,11.341463414634147,-1.829268292682927,-5.487804878048781,125,4
56,0.71435546875,-0.33349609375,-0.12158203125,11.219512195121952,-1.4634146341463417,-4.817073170731708,125,4
57,0.7099609375,-0.326171875,-0.12109375,10.975609756097562,-1.1585365853658538,-2.8658536585365857,125,4
58,0.71240234375,-0.3408203125,-0.11669921875,11.52439024390244,0.1829268292682927,-1.2804878048780488,125,4
59,0.71923828125,-0.25927734375,-0.10498046875,11.829268292682928,2.5609756097560976,1.2195121951219514,125,4
60,0.70263671875,-0.43994140625,-0.14892578125,9.939024390243903,5.7926829268292686,3.658536585365854,125,4
61,0.6826171875,-0.478515625,-0.1796875,5.121951219512195,10.060975609756099,5.182926829268293,125,4
62,0.69873046875,-0.50927734375,-0.20703125,0.48780487804878053,14.329268292682928,6.219512195121951,125,4
63,0.7041015625,-0.51708984375,-0.1845703125,-2.5,16.890243902439025,5.365853658536586,125,4
64,0.69921875,-0.533203125,-0.16259765625,-2.804878048780488,18.04878048780488,3.353658536585366,125,4
65,0.7158203125,-0.5458984375,-0.162109375,-1.1585365853658538,17.439024390243905,0.853658536585366,125,4
66,0.73095703125,-0.5576171875,-0.17138671875,-0.5487804878048781,15.975609756097562,-1.1585365853658538,125,4
67,0.6884765625,-0.599609375,-0.189453125,-0.426829268292683,14.207317073170733,-1.9512195121951221,125,4
68,0.66064453125,-0.625,-0.189453125,1.7682926829268295,10.853658536585368,-2.682926829268293,125,4
69,0.6513671875,-0.66064453125,-0.1787109375,4.207317073170732,8.170731707317074,-2.1341463414634148,125,4
70,0.634765625,-0.677734375,-0.162109375,5.0,6.341463414634147,-1.3414634146341464,125,4
71,0.501953125,-0.68017578125,-0.169921875,5.914634146341464,4.451219512195122,-0.5487804878048781,125,4
72,0.61279296875,-0.68017578125,-0.1376953125,8.658536585365855,2.1341463414634148,0.12195121951219513,125,4
73,0.6162109375,-0.68359375,-0.14990234375,11.28048780487805,-1.0975609756097562,0.6707317073170732,125,4
74,0.62939453125,-0.669921875,-0.18310546875,13.536585365853659,-2.5609756097560976,0.5487804878048781,125,4
75,0.64501953125,-0.66259765625,-0.2119140625,14.329268292682928,-3.353658536585366,0.06097560975609757,125,4
76,0.64794921875,-0.64013671875,-0.21435546875,15.121951219512196,-3.536585365853659,-0.7926829268292683,125,4
77,0.65380859375,-0.603515625,-0.2060546875,13.597560975609758,-2.073170731707317,-2.3170731707317076,125,4
78,0.666015625,-0.55615234375,-0.216796875,11.463414634146343,-0.6097560975609757,-3.536585365853659,125,4
79,0.66259765625,-0.5634765625,-0.22802734375,8.658536585365855,0.7317073170731708,-2.804878048780488,125,4
80,0.62939453125,-0.58837890625,-0.2099609375,5.670731707317073,2.439024390243903,-1.7682926829268295,125,4
81,0.5029296875,-0.5751953125,-0.18701171875,4.573170731707317,3.2926829268292686,-0.48780487804878053,125,4
82,0.63037109375,-0.576171875,-0.15869140625,8.170731707317074,1.829268292682927,1.6463414634146343,125,4
83,0.61279296875,-0.6005859375,-0.14208984375,13.109756097560977,-0.24390243902439027,2.8658536585365857,125,4
84,0.6220703125,-0.58642578125,-0.16845703125,16.585365853658537,-0.7317073170731708,3.5975609756097566,125,4
85,0.64306640625,-0.56201171875,-0.19970703125,17.31707317073171,-0.6097560975609757,4.207317073170732,125,4
86,0.65966796875,-0.53076171875,-0.1982421875,16.158536585365855,1.524390243902439,3.8414634146341466,125,4
87,0.68359375,-0.48291015625,-0.19970703125,12.865853658536587,5.182926829268293,2.7439024390243905,125,4
88,0.7490234375,-0.43359375,-0.17724609375,7.25609756097561,9.51219512195122,-0.9756097560975611,125,4
89,0.7900390625,-0.3876953125,-0.1865234375,1.0975609756097562,13.475609756097562,-3.2926829268292686,125,4
90,0.75927734375,-0.43359375,-0.189453125,-4.817073170731708,0.06097560975609757,-3.414634146341464,125,4
91,0.689453125,-0.52294921875,-0.205078125,-9.02439024390244,16.34146341463415,-1.3414634146341464,125,4
92,0.60693359375,-0.61083984375,-0.1904296875,-8.597560975609756,15.731707317073171,0.9146341463414634,125,4
93,0.5859375,-0.650390625,-0.1328125,-4.085365853658537,13.841463414634148,2.25609756097561,125,4
94,0.6064453125,-0.6298828125,-0.07763671875,3.414634146341464,11.341463414634147,3.1707317073170733,125,4
95,0.50341796875,-0.60400390625,-0.05029296875,8.78048780487805,10.609756097560977,3.353658536585366,125,4
96,0.630859375,-0.6005859375,-0.04833984375,10.487804878048781,11.707317073170733,4.390243902439025,125,4
97,0.6005859375,-0.5009765625,-0.07958984375,9.451219512195122,12.256097560975611,5.3048780487804885,125,4
98,0.60888671875,-0.60205078125,-0.1025390625,9.085365853658537,12.134146341463415,5.853658536585367,125,4
99,0.6357421875,-0.611328125,-0.08251953125,7.743902439024391,14.085365853658537,6.158536585365854,125,4
100,0.6845703125,-0.57373046875,-0.078125,2.7439024390243905,18.78048780487805,5.731707317073171,125,4
101,0.6904296875,-0.564453125,-0.0712890625,-5.3048780487804885,25.30487804878049,5.609756097560976,125,4
102,0.66748046875,-0.5634765625,-0.056640625,-12.195121951219512,31.09756097560976,6.219512195121951,125,4
103,0.66357421875,-0.59521484375,-0.0048828125,-17.378048780487806,34.69512195121951,6.036585365853659,125,4
104,0.669921875,-0.5830078125,0.00390625,-17.98780487804878,35.97560975609756,5.731707317073171,125,4
105,0.6669921875,-0.5947265625,0.021484375,-16.76829268292683,35.609756097560975,6.219512195121951,125,4
106,0.63623046875,-0.6103515625,0.00439453125,-16.646341463414636,34.268292682926834,4.75609756097561,125,4
107,0.6630859375,-0.53857421875,-0.07861328125,-18.29268292682927,33.29268292682927,2.073170731707317,125,4
108,0.62939453125,-0.45458984375,-0.095703125,-21.463414634146343,36.951219512195124,1.4634146341463417,125,4
109,0.77783203125,-0.4208984375,-0.10888671875,-33.47560975609756,43.35365853658537,0.6097560975609757,125,4
110,0.7626953125,-0.41015625,-0.0947265625,-50.60975609756098,52.6829268292683,15.487804878048783,125,4
111,0.775390625,-0.38525390625,-0.09033203125,-61.95121951219513,59.75609756097562,-0.12195121951219513,125,4
112,0.76171875,-0.41552734375,-0.0859375,-62.6829268292683,60.60975609756098,1.3414634146341464,125,4
113,0.70654296875,-0.5234375,-0.109375,-57.37804878048781,58.10975609756098,2.439024390243903,125,4
114,0.69873046875,-0.546875,-0.1572265625,-51.21951219512196,56.768292682926834,3.353658536585366,125,4
115,0.716796875,-0.47412109375,-0.2099609375,-47.5609756097561,55.1829268292683,4.146341463414634,125,4
116,0.73681640625,-0.45654296875,-0.37109375,-48.41463414634147,57.01219512195122,4.2682926829268295,125,4
117,0.72900390625,-0.421875,-0.2978515625,-57.13414634146342,62.07317073170732,3.1707317073170733,125,4
118,0.74462890625,-0.498046875,-0.29931640625,-65.42682926829269,66.28048780487805,1.7682926829268295,125,4
119,0.736328125,-0.38671875,-0.294921875,-69.02439024390245,68.84146341463415,1.2804878048780488,125,4
120,0.71533203125,-0.4365234375,-0.28271484375,-69.02439024390245,66.76829268292684,-0.7926829268292683,125,4
121,0.71435546875,-0.41455078125,-0.298828125,-64.32926829268293,77.98780487804879,-1.829268292682927,125,4
122,0.6943359375,-0.41796875,-0.33203125,-59.39024390243903,57.13414634146342,-2.804878048780488,125,4
123,0.6953125,-0.4970703125,-0.3427734375,-59.024390243902445,54.32926829268293,-4.024390243902439,125,4
124,0.69677734375,-0.3037109375,-0.34033203125,-47.19512195121952,53.71951219512196,-6.036585365853659,125,4
125,0.72509765625,-0.22607421875,-0.25390625,-69.14634146341464,55.1829268292683,-8.658536585365855,125,4
126,0.72998046875,-0.1962890625,-0.3603515625,-63.10975609756098,58.29268292682927,-10.853658536585368,125,4
127,0.70947265625,-0.20361328125,-0.33984375,-85.1219512195122,59.63414634146342,-12.439024390243903,125,4
128,0.68408203125,-0.2451171875,-0.35498046875,-87.01219512195122,56.768292682926834,-14.390243902439027,125,4
129,0.6650390625,-0.26611328125,-0.3896484375,-85.1829268292683,52.987804878048784,-15.609756097560977,125,4
130,0.666015625,-0.2744140625,-0.41650390625,-83.10975609756099,48.71951219512196,-16.646341463414636,125,4
131,0.69921875,-0.232421875,-0.4658203125,-82.50000000000001,46.524390243902445,-18.475609756097562,125,4
132,0.73388671875,-0.1875,-0.49462890625,-84.69512195121952,46.15853658536586,-20.54878048780488,125,4
133,0.7373046875,-0.17529296875,-0.4853515625,-90.42682926829269,31.219512195121954,-22.195121951219512,125,4
134,0.73681640625,-0.17138671875,-0.51611328125,-98.04878048780489,47.743902439024396,-24.32926829268293,125,4
135,0.72216796875,-0.16162109375,-0.4873046875,-105.60975609756099,48.65853658536586,-26.158536585365855,125,4
136,0.71728515625,-0.158203125,-0.52294921875,-112.6829268292683,49.57317073170732,-29.39024390243903,125,4
137,0.759765625,-0.13427734375,-0.6083984375,-119.81707317073172,51.768292682926834,-32.25609756097561,125,4
138,0.76123046875,-0.16064453125,-0.46826171875,-127.8658536585366,52.6219512195122,-33.84146341463415,125,4
139,0.76708984375,-0.19140625,-0.47802734375,-131.70731707317074,51.646341463414636,-36.15853658536586,125,4
140,0.73974609375,-0.2373046875,-0.43798828125,-130.97560975609758,47.6219512195122,-37.926829268292686,125,4
141,0.72900390625,-0.279296875,-0.443359375,-128.35365853658539,44.268292682926834,-39.87804878048781,125,4
142,0.751953125,-0.36572265625,-0.455078125,-128.53658536585368,42.25609756097561,-42.6829268292683,125,4
143,0.77685546875,-0.2373046875,-0.462890625,-131.76829268292684,41.646341463414636,-44.32926829268293,125,4
144,0.77880859375,-0.21630859375,-0.5185546875,-136.95121951219514,41.707317073170735,-47.31707317073171,125,4
145,0.810546875,-0.18212890625,-0.484375,-142.25609756097563,41.58536585365854,-50.426829268292686,125,4
146,0.8408203125,-0.1669921875,-0.51025390625,-147.01219512195124,40.54878048780488,-53.59756097560976,125,4
147,0.8486328125,-0.1748046875,-0.5205078125,-151.34146341463415,41.03658536585366,-57.19512195121952,125,4
148,0.86279296875,-0.173828125,-0.4853515625,-155.4268292682927,41.463414634146346,-60.85365853658537,125,4
149,0.8564453125,-0.19873046875,-0.51318359375,-158.84146341463415,40.54878048780488,-64.45121951219512,125,4
150,0.87109375,-0.18603515625,-0.50146484375,-161.15853658536588,40.0609756097561,-67.6219512195122,125,4
151,0.88525390625,-0.20654296875,-0.4912109375,-164.32926829268294,40.1829268292683,-69.81707317073172,125,4
152,0.8984375,-0.2392578125,-0.51416015625,-167.43902439024393,41.463414634146346,-72.01219512195122,125,4
153,0.998046875,-0.27783203125,-0.46435546875,-170.91463414634148,44.207317073170735,-74.51219512195122,125,4
154,0.873046875,-0.26416015625,-0.501953125,-170.91463414634148,40.487804878048784,-77.37804878048782,125,4
155,0.9501953125,-0.13818359375,-0.5185546875,-168.96341463414635,37.987804878048784,-80.73170731707317,125,4
156,0.99609375,-0.11083984375,-0.55419921875,-171.03658536585368,34.63414634146342,-84.51219512195122,125,4
157,1.03125,-0.08837890625,-0.5654296875,-173.96341463414635,33.78048780487805,-89.32926829268294,125,4
158,1.029296875,-0.1279296875,-0.5498046875,-179.08536585365854,36.21951219512196,-94.20731707317074,125,4
159,1.05126953125,-0.14404296875,-0.55224609375,-182.8048780487805,37.743902439024396,-98.35365853658537,125,4
160,1.05517578125,-0.1708984375,-0.53369140625,-184.75609756097563,40.243902439024396,-102.50000000000001,125,4
161,1.06298828125,-0.166015625,-0.38037109375,-186.82926829268294,41.890243902439025,-105.91463414634147,125,4
162,1.07080078125,-0.14892578125,-0.49072265625,-188.2317073170732,43.78048780487805,-109.81707317073172,125,4
163,1.07177734375,-0.138671875,-0.4873046875,-191.28048780487808,45.91463414634147,-113.35365853658537,125,4
164,1.05615234375,-0.1416015625,-0.50634765625,-193.2317073170732,45.36585365853659,-116.89024390243904,125,4
165,1.08740234375,-0.05078125,-0.59375,-190.5487804878049,39.81707317073171,-122.7439024390244,125,4
166,1.1728515625,0.0478515625,-0.58544921875,-190.4878048780488,37.6829268292683,-128.53658536585368,125,4
167,1.1279296875,0.08154296875,-0.5947265625,-194.39024390243904,36.646341463414636,-134.81707317073173,125,4
168,1.31298828125,0.11083984375,-0.5947265625,-197.50000000000003,37.86585365853659,-143.59756097560978,125,4
169,1.31396484375,0.119140625,-0.5390625,-201.95121951219514,38.71951219512196,-150.4268292682927,125,4
170,1.330078125,0.1025390625,-0.52197265625,-202.62195121951223,38.29268292682927,-140.7317073170732,125,4
171,1.359375,0.09814453125,-0.5244140625,-201.70731707317074,38.71951219512196,-161.64634146341464,125,4
172,1.49658203125,0.06787109375,-0.49658203125,-198.78048780487808,38.59756097560976,-165.2439024390244,125,4
173,1.38134765625,0.044921875,-0.51708984375,-192.8658536585366,36.58536585365854,-169.02439024390245,125,4
174,1.4541015625,0.12109375,-0.62158203125,-185.4878048780488,36.09756097560976,-173.47560975609758,125,4
175,1.5205078125,0.21533203125,-0.439453125,-178.41463414634148,31.463414634146343,-177.9878048780488,125,4
176,1.58935546875,0.2744140625,-0.43603515625,-173.2317073170732,29.451219512195124,-183.35365853658539,125,4
177,1.6416015625,0.28466796875,-0.48486328125,-172.31707317073173,28.353658536585368,-189.20731707317074,125,4
178,1.693359375,0.3173828125,-0.5263671875,-171.95121951219514,27.073170731707318,-194.45121951219514,125,4
179,1.751953125,0.33935546875,-0.56103515625,-172.13414634146343,25.48780487804878,-201.46341463414635,125,4
180,1.81787109375,0.39990234375,-0.560546875,-156.28048780487805,23.170731707317074,-206.58536585365854,125,4
181,1.822265625,0.38330078125,-0.6435546875,-172.9268292682927,20.0609756097561,-213.0487804878049,125,4
182,1.81201171875,0.36376953125,-0.63623046875,-172.13414634146343,20.975609756097562,-203.47560975609758,125,4
183,1.853515625,0.3662109375,-0.58935546875,-172.31707317073173,25.182926829268293,-224.45121951219514,125,4
184,1.8818359375,0.42236328125,-0.5546875,-179.39024390243904,32.6219512195122,-231.34146341463418,125,4
185,1.908203125,0.45166015625,-0.5546875,-172.19512195121953,38.29268292682927,-237.19512195121953,125,4
186,1.89501953125,0.400390625,-0.5244140625,-197.7439024390244,46.58536585365854,-242.37804878048783,125,4
187,1.89404296875,0.32373046875,-0.4306640625,-201.95121951219514,53.78048780487806,-247.01219512195124,125,4
188,1.8857421875,0.37451171875,-0.3193359375,-199.87804878048783,61.21951219512196,-251.40243902439028,125,4
189,1.89599609375,0.23583984375,-0.12841796875,-195.7317073170732,65.85365853658537,-253.78048780487808,125,4
190,1.86328125,0.203125,-0.0166015625,-189.75609756097563,69.51219512195122,-255.7317073170732,125,4
191,1.841796875,0.2216796875,0.06005859375,-183.96341463414635,73.04878048780489,-260.7926829268293,125,4
192,1.8076171875,0.234375,0.1044921875,-177.25609756097563,76.09756097560977,-249.87804878048783,125,4
193,1.80810546875,0.23388671875,0.0986328125,-169.57317073170734,77.37804878048782,-268.6585365853659,125,4
194,1.79443359375,0.208984375,0.080078125,-159.69512195121953,76.21951219512196,-271.89024390243907,125,4
195,1.78662109375,0.19482421875,-0.01171875,-146.70731707317074,74.87804878048782,-273.8414634146342,125,4
196,1.7529296875,0.19677734375,-0.0732421875,-138.59756097560978,73.78048780487805,-274.51219512195127,125,4
197,1.6943359375,0.16064453125,-0.09423828125,-132.19512195121953,75.1219512195122,-275.7926829268293,125,4
198,1.646484375,0.12646484375,-0.09033203125,-126.58536585365854,76.46341463414635,-276.95121951219517,125,4
199,1.56201171875,0.0966796875,-0.0576171875,-119.45121951219514,72.7439024390244,-276.95121951219517,125,4
200,1.49609375,0.083984375,-0.10498046875,-124.87804878048782,68.78048780487805,-278.7804878048781,125,4
201,1.45166015625,0.0869140625,-0.087890625,-99.93902439024392,65.1219512195122,-280.0,125,4
202,1.38037109375,0.04541015625,-0.0712890625,-108.96341463414635,62.19512195121952,-279.69512195121956,125,4
203,1.2939453125,-0.02294921875,-0.05615234375,-86.40243902439025,60.73170731707317,-278.8414634146342,125,4
204,1.21923828125,-0.0458984375,-0.10498046875,-79.45121951219512,56.524390243902445,-276.0365853658537,125,4
205,1.0966796875,-0.09619140625,-0.14453125,-74.08536585365854,57.07317073170732,-272.3780487804878,125,4
206,1.0029296875,-0.111328125,-0.11474609375,-72.92682926829269,59.207317073170735,-267.5609756097561,125,4
207,0.91455078125,-0.21142578125,-0.150390625,-73.17073170731707,62.31707317073171,-260.7926829268293,125,4
208,0.8046875,-0.26123046875,-0.1572265625,-72.25609756097562,65.67073170731707,-254.93902439024393,125,4
209,0.7216796875,-0.30224609375,-0.111328125,-67.98780487804879,67.43902439024392,-248.2926829268293,125,4
210,0.6298828125,-0.35498046875,0.00927734375,-59.57317073170732,68.23170731707317,-242.25609756097563,125,4
211,0.6044921875,-0.35986328125,0.07275390625,-50.79268292682927,64.51219512195122,-234.69512195121953,125,4
212,0.56005859375,-0.4189453125,0.09033203125,-37.86585365853659,64.20731707317074,-229.26829268292684,125,4
213,0.54443359375,-0.4814453125,0.0908203125,-32.987804878048784,51.646341463414636,-224.69512195121953,125,4
214,0.49365234375,-0.56005859375,0.10546875,-21.951219512195124,40.79268292682927,-218.65853658536588,125,4
215,0.42919921875,-0.5849609375,0.015625,-10.0,32.86585365853659,-213.1707317073171,125,4
216,0.4072265625,-0.54736328125,0.21533203125,-2.5,25.792682926829272,-206.15853658536588,125,4
217,0.3359375,-0.615234375,0.22509765625,-0.7926829268292683,25.0609756097561,-197.01219512195124,125,4
218,0.22900390625,-0.71484375,0.24560546875,-1.2195121951219514,25.243902439024392,-186.03658536585368,125,4
219,0.07958984375,-0.80810546875,0.21533203125,-0.7926829268292683,23.475609756097562,-173.2317073170732,125,4
220,-0.03173828125,-0.86328125,0.2421875,0.9756097560975611,23.719512195121954,-158.96341463414635,125,4
221,-0.0810546875,-0.90771484375,0.296875,1.0975609756097562,26.646341463414636,-141.95121951219514,125,4
222,-0.15234375,-0.88134765625,0.35693359375,2.1341463414634148,29.146341463414636,-140.4268292682927,125,4
223,-0.4736328125,-1.1064453125,0.45751953125,2.9268292682926833,31.158536585365855,-106.46341463414635,125,4
224,-0.60400390625,-1.14501953125,0.5791015625,3.658536585365854,35.1219512195122,-88.59756097560977,125,4
225,-0.67138671875,-1.1484375,0.646484375,-0.6097560975609757,38.53658536585366,-68.23170731707317,125,4
226,-0.69189453125,-1.306640625,0.61279296875,-3.353658536585366,42.6219512195122,-62.07317073170732,125,4
227,-0.7255859375,-1.47900390625,0.64111328125,-0.6707317073170732,45.426829268292686,-24.81707317073171,125,4
228,-0.74462890625,-1.59228515625,0.71875,7.865853658536586,47.37804878048781,-3.780487804878049,125,4
229,-0.708984375,-1.6513671875,0.76416015625,15.487804878048783,48.90243902439025,1.524390243902439,125,4
230,-0.70751953125,-1.63916015625,0.736328125,20.731707317073173,51.707317073170735,39.69512195121951,125,4
231,-0.7197265625,-1.82958984375,0.65185546875,27.31707317073171,50.670731707317074,46.89024390243903,125,4
232,-0.6611328125,-1.93798828125,0.580078125,35.0,50.426829268292686,85.2439024390244,125,4
233,-0.5419921875,-1.9267578125,0.61181640625,36.40243902439025,49.63414634146342,108.78048780487806,125,4
234,-0.3603515625,-2.04931640625,0.3515625,32.6219512195122,53.23170731707317,133.96341463414635,125,4
235,-0.25048828125,-2.2431640625,0.310546875,35.91463414634147,56.707317073170735,142.13414634146343,125,4
236,-0.07470703125,-2.349609375,0.22021484375,46.58536585365854,57.50000000000001,181.76829268292684,125,4
237,0.12255859375,-2.46826171875,0.19921875,57.13414634146342,57.01219512195122,206.76829268292684,125,4
238,0.2919921875,-2.56591796875,0.1337890625,68.53658536585367,57.31707317073171,232.31707317073173,125,4
239,0.4189453125,-2.6923828125,0.06005859375,75.0609756097561,60.1219512195122,261.82926829268297,125,4
240,0.37744140625,-2.80615234375,0.0400390625,77.07317073170732,61.03658536585366,294.69512195121956,125,4
241,0.611328125,-2.9384765625,0.07958984375,79.69512195121952,61.40243902439025,313.2317073170732,125,4
242,0.853515625,-3.0556640625,0.02197265625,78.04878048780489,57.19512195121952,364.39024390243907,125,4
243,1.10009765625,-3.294921875,-0.119140625,76.46341463414635,51.951219512195124,404.26829268292687,125,4
244,1.25390625,-3.58544921875,-0.240234375,84.32926829268294,47.07317073170732,448.5975609756098,125,4
245,1.68798828125,-3.78173828125,-0.421875,99.57317073170732,33.963414634146346,496.5853658536586,125,4
246,2.11279296875,-4.193359375,-0.53271484375,110.1829268292683,29.26829268292683,533.1707317073171,125,4
247,2.564453125,-4.40185546875,-0.96484375,162.6829268292683,-9.695121951219512,597.1951219512196,125,4
248,3.29833984375,-4.51416015625,-1.29296875,211.03658536585368,-38.10975609756098,625.7317073170732,125,4
249,4.17822265625,-4.74365234375,-1.64697265625,253.41463414634148,-59.81707317073171,673.9024390243903,125,4
250,5.21142578125,-4.68994140625,-2.18115234375,333.9634146341464,-67.6219512195122,695.0609756097562,125,4
251,6.154296875,-4.623046875,-2.279296875,378.109756097561,-61.21951219512196,714.329268292683,125,4
252,6.98681640625,-4.46630859375,-2.4375,457.37804878048786,-39.08536585365854,727.9268292682927,125,4
253,7.533203125,-4.13525390625,-2.95849609375,496.1585365853659,-13.29268292682927,735.548780487805,125,4
254,7.845703125,-3.857421875,-3.4345703125,530.4878048780488,8.292682926829269,756.4634146341464,125,4
255,8.1708984375,-3.73681640625,-4.3642578125,536.3414634146342,43.35365853658537,774.329268292683,125,4
256,8.69921875,-3.38623046875,-4.77685546875,552.0731707317074,70.73170731707317,805.8536585365854,125,4
257,9.38330078125,-2.95263671875,-5.00439453125,581.5853658536586,82.01219512195122,836.7073170731708,125,4
258,9.951171875,-1.98193359375,-4.81298828125,665.6707317073171,40.36585365853659,865.7317073170733,125,4
259,9.87939453125,-1.28515625,-5.07177734375,719.8170731707318,-27.682926829268297,880.0000000000001,125,4
260,9.4091796875,-1.05126953125,-5.2880859375,824.2682926829269,-118.84146341463416,871.0975609756098,125,4
261,8.58056640625,-1.3583984375,-5.42529296875,926.6463414634147,-204.26829268292684,839.6341463414635,125,4
262,7.59814453125,-1.8037109375,-5.40576171875,1086.219512195122,-395.5487804878049,761.4024390243903,125,4
263,6.662109375,-2.623046875,-6.0263671875,1309.2073170731708,-648.4756097560976,609.329268292683,125,4
264,6.650390625,-2.93017578125,-11.525390625,1336.09756097561,-1116.4024390243903,875.9146341463415,125,4
265,1.08984375,-15.625,0.7783203125,879.8170731707318,484.39024390243907,-202.31707317073173,125,4
266,15.99951171875,15.60498046875,-6.66455078125,953.1707317073171,-363.109756097561,-57.926829268292686,125,4
267,7.7314453125,-4.0703125,-5.4658203125,1378.2317073170732,-617.0121951219513,-177.43902439024393,125,4
268,8.10302734375,5.82373046875,4.166015625,1120.0,-90.79268292682927,-295.6707317073171,125,4
269,3.166015625,0.59375,-2.80419921875,1228.4756097560976,-237.8658536585366,-194.14634146341464,125,4
270,2.05078125,-3.66650390625,-3.6181640625,830.548780487805,-208.35365853658539,-371.76829268292687,125,4
271,5.5673828125,1.7587890625,-0.71435546875,822.5609756097562,-103.23170731707317,-416.4024390243903,125,4
272,3.94921875,-1.65576171875,-1.279296875,792.7439024390245,-158.1707317073171,-522.8048780487806,125,4
273,4.04736328125,-2.16943359375,-2.0400390625,580.0609756097562,-146.15853658536588,-596.9512195121952,125,4
274,3.10595703125,-1.2265625,-1.48974609375,529.1463414634147,-106.09756097560977,-642.6219512195122,125,4
275,2.892578125,-1.0625,-0.94677734375,487.07317073170736,-64.32926829268293,-656.0975609756098,125,4
276,3.23095703125,-1.99658203125,-0.54736328125,414.87804878048786,-42.926829268292686,-685.4878048780488,125,4
277,2.7177734375,-2.09521484375,-0.767578125,359.51219512195127,-20.670731707317074,-689.2073170731708,125,4
278,2.96142578125,-1.8388671875,-0.9658203125,287.19512195121956,1.6463414634146343,-745.9756097560976,125,4
279,3.2158203125,-1.98291015625,-0.8388671875,216.64634146341464,36.21951219512196,-753.1707317073171,125,4
280,3.29248046875,-1.6103515625,-1.228515625,138.2926829268293,86.64634146341464,-745.1219512195123,125,4
281,3.61669921875,-1.21142578125,-1.18798828125,21.951219512195124,155.7317073170732,-711.4634146341464,125,4
282,2.96142578125,-1.5439453125,-0.80810546875,-45.243902439024396,173.59756097560978,-684.2682926829269,125,4
283,2.6435546875,-1.73681640625,-0.56787109375,-83.65853658536587,219.93902439024393,-664.1463414634147,125,4
284,2.51611328125,-1.52294921875,-0.29345703125,-105.67073170731709,250.85365853658539,-632.5609756097562,125,4
285,2.400390625,-1.5107421875,-0.76904296875,-133.0487804878049,285.9146341463415,-604.2073170731708,125,4
286,2.58154296875,-1.40966796875,-1.2236328125,-164.93902439024393,295.0609756097561,-577.9268292682927,125,4
287,2.50732421875,-1.49658203125,-1.1689453125,-179.20731707317074,289.69512195121956,-552.1951219512196,125,4
288,2.25830078125,-1.45849609375,-1.02001953125,-185.4878048780488,275.4268292682927,-538.2317073170732,125,4
289,2.1484375,-1.25341796875,-0.96484375,-192.56097560975613,268.9024390243903,-520.0609756097562,125,4
290,1.8095703125,-1.09619140625,-1.03369140625,-211.28048780487808,264.75609756097566,-506.89024390243907,125,4
291,1.7744140625,-1.1171875,-1.08251953125,-239.26829268292684,288.3536585365854,-497.68292682926835,125,4
292,1.54248046875,-0.91357421875,-0.99560546875,-275.5487804878049,320.3658536585366,-456.70731707317077,125,4
293,1.20947265625,-1.09814453125,-0.83642578125,-291.2804878048781,339.63414634146346,-430.4268292682927,125,4
294,1.01513671875,-1.08447265625,-1.1123046875,-277.5609756097561,337.9268292682927,-419.0853658536586,125,4
295,0.97119140625,-0.92724609375,-1.384765625,-246.89024390243904,328.719512195122,-376.76829268292687,125,4
296,0.96044921875,-0.96044921875,-1.6484375,-225.6707317073171,299.32926829268297,-362.8048780487805,125,4
297,0.99072265625,-0.99755859375,-1.70361328125,-197.50000000000003,312.01219512195127,-344.26829268292687,125,4
298,0.97314453125,-0.54150390625,-1.48779296875,-202.13414634146343,303.2317073170732,-328.9024390243903,125,4
299,0.62744140625,-0.56201171875,-1.22216796875,-205.91463414634148,302.4390243902439,-311.4024390243903,125,4
300,0.58935546875,-0.4638671875,-1.1123046875,-227.13414634146343,303.9634146341464,-297.9268292682927,125,4
301,0.41015625,-0.49658203125,-1.11181640625,-244.51219512195124,301.6463414634147,-283.9024390243903,125,4
302,0.22607421875,-0.3642578125,-1.0810546875,-257.7439024390244,295.0,-268.2317073170732,125,4
303,0.1845703125,-0.3505859375,-1.15771484375,-270.0,276.2804878048781,-252.31707317073173,125,4
304,0.1640625,-0.30078125,-1.19384765625,-276.5853658536586,261.89024390243907,-239.14634146341464,125,4
305,0.06884765625,-0.30712890625,-1.30078125,-295.609756097561,245.97560975609758,-224.39024390243904,125,4
306,0.02734375,-0.3583984375,-1.48681640625,-284.26829268292687,228.90243902439028,-211.40243902439028,125,4
307,-0.12060546875,-0.3623046875,-1.08349609375,-273.6585365853659,212.31707317073173,-200.7317073170732,125,4
308,-0.26953125,-0.3818359375,-0.9091796875,-267.7439024390244,197.62195121951223,-194.26829268292684,125,4
309,-0.54443359375,-0.3173828125,-0.87158203125,-256.5243902439025,187.43902439024393,-189.02439024390245,125,4
310,-0.58837890625,-0.23291015625,-0.72021484375,-247.50000000000003,181.64634146341464,-184.51219512195124,125,4
311,-0.56396484375,-0.16259765625,-0.6875,-239.39024390243904,171.82926829268294,-177.6219512195122,125,4
312,-0.62353515625,-0.22998046875,-0.6064453125,-231.70731707317074,162.5609756097561,-167.8658536585366,125,4
313,-0.72705078125,-0.35107421875,-0.69384765625,-222.62195121951223,143.35365853658539,-153.90243902439025,125,4
314,-0.736328125,-0.37451171875,-0.8037109375,-225.91463414634148,148.1707317073171,-142.9268292682927,125,4
315,-0.77587890625,-0.35595703125,-0.904296875,-221.82926829268294,141.76829268292684,-125.60975609756099,125,4
316,-0.9345703125,-0.45166015625,-0.8759765625,-212.68292682926833,139.08536585365854,-111.34146341463416,125,4
317,-1.06201171875,-0.42138671875,-0.77392578125,-201.70731707317074,137.07317073170734,-99.14634146341464,125,4
318,-1.173828125,-0.42822265625,-0.7001953125,-190.00000000000003,133.2926829268293,-91.40243902439025,125,4
319,-1.19091796875,-0.3828125,-0.68798828125,-181.34146341463415,131.03658536585368,-87.98780487804879,125,4
320,-1.04248046875,-0.2548828125,-0.69677734375,-163.96341463414635,119.93902439024392,-82.19512195121952,125,4
321,-0.962890625,-0.2646484375,-0.6484375,-154.51219512195124,112.56097560975611,-75.73170731707317,125,4
322,-0.904296875,-0.28125,-0.62646484375,-148.78048780487805,104.02439024390245,-68.41463414634147,125,4
323,-0.89990234375,-0.3330078125,-0.62841796875,-147.25609756097563,98.17073170731709,-59.69512195121952,125,4
324,-0.94873046875,-0.3935546875,-0.599609375,-142.25609756097563,108.35365853658537,-51.585365853658544,125,4
325,-0.99072265625,-0.41455078125,-0.6455078125,-134.45121951219514,87.8658536585366,-44.024390243902445,125,4
326,-1.05078125,-0.439453125,-0.595703125,-125.42682926829269,82.6829268292683,-36.707317073170735,125,4
327,-1.12060546875,-0.42431640625,-0.60498046875,-117.7439024390244,74.93902439024392,-30.0609756097561,125,4
328,-1.16796875,-0.3994140625,-0.623046875,-107.01219512195122,65.60975609756098,-23.59756097560976,125,4
329,-1.205078125,-0.3955078125,-0.61328125,-98.84146341463415,56.03658536585366,-17.865853658536587,125,4
330,-1.25146484375,-0.39697265625,-0.62255859375,-92.13414634146342,45.73170731707317,-11.76829268292683,125,4
331,-1.30322265625,-0.4296875,-0.64599609375,-88.29268292682927,37.37804878048781,-5.487804878048781,125,4
332,-1.333984375,-0.4619140625,-0.625,-84.26829268292684,27.378048780487806,-0.426829268292683,125,4
333,-1.3515625,-0.505859375,-0.625,-80.48780487804879,18.53658536585366,4.207317073170732,125,4
334,-1.33740234375,-0.51708984375,-0.6298828125,-74.45121951219512,11.219512195121952,8.902439024390244,125,4
335,-1.30810546875,-0.453125,-0.5888671875,-67.43902439024392,2.9268292682926833,15.426829268292684,125,4
336,-1.2783203125,-0.3876953125,-0.65185546875,-59.63414634146342,-3.780487804878049,22.682926829268293,125,4
337,-1.2255859375,-0.3251953125,-0.66552734375,-50.487804878048784,-11.219512195121952,29.207317073170735,125,4
338,-1.232421875,-0.28759765625,-0.67529296875,-41.646341463414636,-20.731707317073173,35.1219512195122,125,4
339,-1.24169921875,-0.26025390625,-0.66162109375,-32.01219512195122,-29.26829268292683,39.268292682926834,125,4
340,-1.248046875,-0.2314453125,-0.58837890625,-24.085365853658537,-36.03658536585366,43.90243902439025,125,4
341,-1.2333984375,-0.21484375,-0.548828125,-18.963414634146343,-41.768292682926834,48.41463414634147,125,4
342,-1.22021484375,-0.18017578125,-0.52001953125,-14.756097560975611,-47.926829268292686,51.21951219512196,125,4
343,-1.19677734375,-0.1376953125,-0.517578125,-9.756097560975611,-53.41463414634147,54.024390243902445,125,4
344,-1.1728515625,-0.126953125,-0.470703125,-3.8414634146341466,-59.268292682926834,55.73170731707317,125,4
345,-1.16162109375,-0.09912109375,-0.43701171875,1.707317073170732,-65.3658536585366,57.07317073170732,125,4
346,-1.1484375,-0.06689453125,-0.40576171875,6.951219512195123,-70.54878048780489,58.84146341463415,125,4
347,-1.14794921875,-0.0419921875,-0.3857421875,12.01219512195122,-75.2439024390244,60.426829268292686,125,4
348,-1.1376953125,-0.03759765625,-0.35595703125,0.1829268292682927,-80.1829268292683,61.34146341463415,125,4
349,-1.1259765625,-0.03271484375,-0.33203125,20.79268292682927,-82.92682926829269,62.6219512195122,125,4
350,-1.1220703125,-0.04248046875,-0.28125,24.878048780487806,-85.60975609756099,63.17073170731708,125,4
351,-1.1328125,-0.041015625,-0.24462890625,28.353658536585368,-89.81707317073172,63.65853658536586,125,4
352,-1.009765625,-0.046875,-0.2265625,32.13414634146342,-94.20731707317074,63.78048780487806,125,4
353,-1.12646484375,-0.0478515625,-0.2099609375,33.90243902439025,-98.29268292682927,62.50000000000001,125,4
354,-1.10791015625,-0.0341796875,-0.22119140625,36.463414634146346,-101.34146341463415,60.97560975609757,125,4
355,-1.10546875,-0.03466796875,-0.2099609375,40.304878048780495,-103.47560975609757,60.79268292682927,125,4
356,-1.10986328125,-0.0244140625,-0.1796875,44.268292682926834,-107.6219512195122,61.524390243902445,125,4
357,-1.1240234375,-0.017578125,-0.14208984375,47.86585365853659,-111.09756097560977,62.19512195121952,125,4
358,-1.1337890625,-0.0029296875,-0.1474609375,50.54878048780488,-113.47560975609757,62.987804878048784,125,4
359,-1.1328125,-0.0078125,-0.14794921875,53.41463414634147,-114.02439024390245,64.08536585365854,125,4
360,-1.00732421875,0.01953125,-0.15283203125,52.6829268292683,-115.12195121951221,63.23170731707317,125,4
361,-1.10791015625,0.056640625,-0.15771484375,52.13414634146342,-116.58536585365854,63.47560975609757,125,4
362,-1.09326171875,0.07177734375,-0.142578125,51.951219512195124,-118.96341463414635,64.39024390243902,125,4
363,-1.083984375,0.0791015625,-0.1025390625,55.91463414634147,-123.78048780487806,66.03658536585367,125,4
364,-1.07275390625,0.0771484375,-0.0478515625,59.51219512195122,-126.21951219512196,65.91463414634147,125,4
365,-1.0283203125,0.1005859375,0.02099609375,62.743902439024396,-126.89024390243904,66.40243902439025,125,4
366,-1.00634765625,0.1220703125,0.06884765625,64.69512195121952,-126.52439024390245,66.52439024390245,125,4
367,-0.96875,0.162109375,0.08837890625,65.0,-125.91463414634147,66.52439024390245,125,4
368,-0.93115234375,0.19775390625,0.00146484375,65.91463414634147,-126.46341463414635,66.52439024390245,125,4
369,-0.9140625,0.23291015625,0.12060546875,68.84146341463415,-130.7317073170732,66.21951219512195,125,4
370,-0.900390625,0.24072265625,0.115234375,72.92682926829269,-134.63414634146343,64.20731707317074,125,4
371,-0.896484375,0.25341796875,0.14794921875,77.13414634146342,-136.52439024390245,61.768292682926834,125,4
372,-0.8779296875,0.2509765625,0.1533203125,79.32926829268294,-137.13414634146343,59.93902439024391,125,4
373,-0.841796875,0.2626953125,0.16748046875,78.41463414634147,-135.2439024390244,58.17073170731708,125,4
374,-0.81396484375,0.26953125,0.18115234375,75.3048780487805,-133.53658536585368,56.951219512195124,125,4
375,-0.78466796875,0.28271484375,0.19287109375,72.6219512195122,-133.0487804878049,55.97560975609757,125,4
376,-0.7822265625,0.27099609375,0.23828125,71.28048780487805,-132.7439024390244,55.487804878048784,125,4
377,-0.7626953125,0.26904296875,0.2724609375,70.60975609756098,-132.31707317073173,54.87804878048781,125,4
378,-0.763671875,0.255859375,0.33056640625,70.42682926829269,-131.09756097560978,54.51219512195122,125,4
379,-0.7568359375,0.12646484375,0.365234375,71.95121951219512,-133.84146341463415,55.1829268292683,125,4
380,-0.7802734375,0.2412109375,0.35986328125,76.15853658536587,-137.01219512195124,54.87804878048781,125,4
381,-0.79296875,0.2373046875,0.3583984375,82.13414634146342,-139.20731707317074,54.146341463414636,125,4
382,-0.78515625,0.24951171875,0.3515625,87.19512195121952,-141.46341463414635,53.65853658536586,125,4
383,-0.73974609375,0.27685546875,0.3642578125,88.35365853658537,-140.2439024390244,53.04878048780488,125,4
384,-0.7021484375,0.3173828125,0.3701171875,88.10975609756099,-139.14634146341464,54.207317073170735,125,4
385,-0.68115234375,0.341796875,0.3994140625,85.48780487804879,-137.07317073170734,55.365853658536594,125,4
386,-0.6689453125,0.34033203125,0.40185546875,81.52439024390245,-133.59756097560978,56.524390243902445,125,4
387,-0.650390625,0.3486328125,0.39599609375,78.71951219512196,-131.58536585365854,57.01219512195122,125,4
388,-0.62939453125,0.35302734375,0.3955078125,78.17073170731707,-130.97560975609758,57.926829268292686,125,4
389,-0.6142578125,0.34521484375,0.423828125,78.65853658536587,-130.0,58.29268292682927,125,4
390,-0.59326171875,0.33740234375,0.45458984375,78.84146341463415,-130.4878048780488,58.71951219512196,125,4
391,-0.57421875,0.34326171875,0.455078125,79.02439024390245,-131.28048780487805,57.926829268292686,125,4
392,-0.5625,0.357421875,0.4638671875,79.81707317073172,-131.58536585365854,56.646341463414636,125,4
393,-0.55224609375,0.36767578125,0.4912109375,80.42682926829269,-131.58536585365854,55.79268292682927,125,4
394,-0.53271484375,0.39013671875,0.5107421875,78.53658536585367,-130.609756097561,55.365853658536594,125,4
395,-0.52197265625,0.40478515625,0.51123046875,74.20731707317074,-127.7439024390244,54.81707317073171,125,4
396,-0.52294921875,0.423828125,0.53564453125,66.95121951219512,-122.7439024390244,54.93902439024391,125,4
397,-0.5009765625,0.44287109375,0.53662109375,59.75609756097562,-116.95121951219514,55.00000000000001,125,4
398,-0.46728515625,0.47119140625,0.53662109375,55.365853658536594,-113.96341463414635,55.60975609756098,125,4
399,-0.455078125,0.46044921875,0.52783203125,53.963414634146346,-116.34146341463416,57.6219512195122,125,4
400,-0.45556640625,0.4267578125,0.50537109375,54.75609756097561,-120.79268292682927,58.47560975609757,125,4
401,-0.46630859375,0.3896484375,0.49951171875,57.6829268292683,-125.2439024390244,58.78048780487806,125,4
402,-0.45556640625,0.40185546875,0.52880859375,63.84146341463415,-129.69512195121953,59.75609756097562,125,4
403,-0.41943359375,0.42626953125,0.5732421875,69.63414634146342,-132.37804878048783,60.73170731707317,125,4
404,-0.36279296875,0.44287109375,0.5986328125,73.90243902439025,-133.0487804878049,62.804878048780495,125,4
405,-0.34814453125,0.44970703125,0.6044921875,74.20731707317074,-131.52439024390245,64.39024390243902,125,4
406,-0.33154296875,0.4873046875,0.62255859375,71.21951219512195,-126.89024390243904,64.63414634146342,125,4
407,-0.3046875,0.54296875,0.61767578125,67.13414634146342,-121.34146341463416,64.45121951219512,125,4
408,-0.27880859375,0.6025390625,0.62841796875,65.0609756097561,-117.98780487804879,65.0609756097561,125,4
409,-0.26171875,0.62158203125,0.64990234375,65.3048780487805,-115.73170731707319,65.3658536585366,125,4
410,-0.23583984375,0.62841796875,0.74658203125,67.07317073170732,-116.46341463414635,66.09756097560977,125,4
411,-0.25830078125,0.591796875,0.59619140625,68.71951219512195,-117.56097560975611,66.82926829268293,125,4
412,-0.2705078125,0.603515625,0.5537109375,71.03658536585367,-119.32926829268294,67.37804878048782,125,4
413,-0.27001953125,0.60693359375,0.56982421875,72.5,-120.42682926829269,67.5,125,4
414,-0.2568359375,0.63525390625,0.57568359375,71.70731707317074,-120.06097560975611,68.71951219512195,125,4
415,-0.2587890625,0.6455078125,0.58056640625,68.47560975609757,-118.17073170731709,70.73170731707317,125,4
416,-0.25634765625,0.634765625,0.59814453125,61.82926829268293,-113.10975609756099,71.70731707317074,125,4
417,-0.22607421875,0.6259765625,0.63916015625,56.15853658536586,-124.69512195121952,72.5609756097561,125,4
418,-0.24267578125,0.61474609375,0.67626953125,51.951219512195124,-105.97560975609757,75.0,125,4
419,-0.2607421875,0.583984375,0.69140625,49.93902439024391,-103.23170731707317,77.8048780487805,125,4
420,-0.26025390625,0.5712890625,0.6904296875,50.487804878048784,-101.64634146341464,79.51219512195122,125,4
421,-0.23486328125,0.59814453125,0.67431640625,53.59756097560976,-102.8048780487805,81.15853658536587,125,4
422,-0.20263671875,0.63671875,0.6455078125,56.34146341463415,-104.32926829268294,82.07317073170732,125,4
423,-0.1767578125,0.67236328125,0.6201171875,57.43902439024391,-104.32926829268294,83.53658536585367,125,4
424,-0.24755859375,0.72412109375,0.583984375,54.93902439024391,-103.90243902439025,84.81707317073172,125,4
425,-0.1142578125,0.73095703125,0.5537109375,48.47560975609756,-100.97560975609757,86.34146341463415,125,4
426,-0.0869140625,0.7275390625,0.53759765625,39.87804878048781,-98.04878048780489,87.13414634146342,125,4
427,-0.0615234375,0.7421875,0.5478515625,34.32926829268293,-96.76829268292684,88.65853658536587,125,4
428,-0.060546875,0.7138671875,0.5654296875,31.52439024390244,-96.15853658536587,90.1829268292683,125,4
429,-0.05419921875,0.6728515625,0.56689453125,30.670731707317074,-96.46341463414635,91.34146341463415,125,4
430,-0.03662109375,0.6640625,0.62109375,32.01219512195122,-96.70731707317074,91.95121951219512,125,4
431,0.00146484375,0.671875,0.658203125,34.57317073170732,-96.76829268292684,90.85365853658537,125,4
432,0.05517578125,0.70947265625,0.5009765625,37.5609756097561,-95.73170731707317,91.76829268292684,125,4
433,0.08349609375,0.71435546875,0.623046875,39.268292682926834,-95.3048780487805,91.40243902439025,125,4
434,0.103515625,0.73681640625,0.5869140625,41.15853658536586,-96.82926829268294,91.28048780487806,125,4
435,0.08544921875,0.74365234375,0.5537109375,41.58536585365854,-96.21951219512196,90.54878048780489,125,4
436,0.09228515625,0.7587890625,0.54638671875,40.97560975609756,-95.73170731707317,90.2439024390244,125,4
437,0.10400390625,0.7685546875,0.53515625,38.23170731707317,-94.32926829268294,90.00000000000001,125,4
438,0.11376953125,0.76904296875,0.5439453125,35.54878048780488,-92.8048780487805,89.93902439024392,125,4
439,0.11572265625,0.73681640625,0.55078125,34.268292682926834,-91.52439024390245,90.3658536585366,125,4
440,0.1435546875,0.7080078125,0.53466796875,34.75609756097561,-91.21951219512196,91.40243902439025,125,4
441,0.17333984375,0.69970703125,0.52490234375,37.31707317073171,-91.58536585365854,91.76829268292684,125,4
442,0.2099609375,0.68994140625,0.51171875,40.73170731707317,-93.17073170731707,92.13414634146342,125,4
443,0.2314453125,0.69140625,0.4794921875,43.78048780487805,-94.75609756097562,92.7439024390244,125,4
444,0.25537109375,0.69921875,0.4580078125,46.463414634146346,-97.01219512195122,93.29268292682927,125,4
445,0.27490234375,0.7119140625,0.41552734375,48.41463414634147,-98.35365853658537,92.92682926829269,125,4
446,0.294921875,0.73974609375,0.4501953125,47.804878048780495,-98.35365853658537,92.8658536585366,125,4
447,0.30517578125,0.740234375,0.45556640625,45.487804878048784,-97.37804878048782,93.23170731707317,125,4
448,0.31298828125,0.73681640625,0.47998046875,42.86585365853659,-96.21951219512196,94.45121951219512,125,4
449,0.31005859375,0.7158203125,0.375,41.28048780487805,-96.15853658536587,94.39024390243904,125,4
450,0.29345703125,0.6982421875,0.62109375,41.03658536585366,-95.60975609756099,94.45121951219512,125,4
451,0.28369140625,0.6669921875,0.50732421875,38.78048780487805,-93.17073170731707,94.26829268292684,125,4
452,0.30859375,0.669921875,0.462890625,36.21951219512196,-91.70731707317074,94.75609756097562,125,4
453,0.33935546875,0.68994140625,0.4521484375,35.487804878048784,-90.85365853658537,94.39024390243904,125,4
454,0.3583984375,0.70556640625,0.43359375,35.73170731707317,-90.54878048780489,95.85365853658537,125,4
455,0.3828125,0.70654296875,0.42529296875,35.54878048780488,-90.67073170731707,97.19512195121952,125,4
456,0.38671875,0.70361328125,0.40283203125,34.451219512195124,-89.51219512195122,97.6219512195122,125,4
457,0.3994140625,0.72216796875,0.38671875,32.13414634146342,-88.65853658536587,97.31707317073172,125,4
458,0.42578125,0.71875,0.37841796875,29.634146341463417,-88.17073170731707,97.07317073170732,125,4
459,0.44775390625,0.7314453125,0.376953125,26.89024390243903,-87.98780487804879,97.43902439024392,125,4
460,0.44287109375,0.69921875,0.39697265625,27.134146341463417,-89.20731707317074,97.8658536585366,125,4
461,0.421875,0.6806640625,0.41357421875,28.353658536585368,-88.71951219512196,97.5609756097561,125,4
462,0.4130859375,0.6494140625,0.40185546875,27.865853658536587,-86.34146341463415,97.01219512195122,125,4
463,0.427734375,0.6455078125,0.384765625,26.707317073170735,-83.65853658536587,97.01219512195122,125,4
464,0.46875,0.67822265625,0.2587890625,26.707317073170735,-81.28048780487805,97.07317073170732,125,4
465,0.490234375,0.67626953125,0.35546875,27.743902439024392,-79.81707317073172,96.95121951219512,125,4
466,0.51220703125,0.68017578125,0.353515625,29.573170731707318,-79.63414634146342,96.52439024390245,125,4
467,0.53515625,0.68017578125,0.3251953125,29.573170731707318,-78.53658536585367,95.2439024390244,125,4
468,0.568359375,0.701171875,0.3115234375,28.231707317073173,-76.64634146341464,93.17073170731707,125,4
469,0.58544921875,0.71337890625,0.322265625,26.158536585365855,-73.90243902439025,91.21951219512196,125,4
470,0.59619140625,0.72119140625,0.31591796875,24.81707317073171,-72.25609756097562,90.1829268292683,125,4
471,0.59619140625,0.71240234375,0.2958984375,23.902439024390247,-71.34146341463415,88.47560975609757,125,4
472,0.5849609375,0.6875,0.26806640625,23.84146341463415,-70.91463414634147,86.58536585365854,125,4
473,0.59765625,0.6650390625,0.2568359375,25.182926829268293,-71.21951219512195,85.0609756097561,125,4
474,0.58935546875,0.64794921875,0.24951171875,25.731707317073173,-70.91463414634147,82.92682926829269,125,4
475,0.60107421875,0.638671875,0.37353515625,26.707317073170735,-70.54878048780489,81.34146341463415,125,4
476,0.6044921875,0.7451171875,0.22998046875,25.48780487804878,-68.59756097560977,79.57317073170732,125,4
477,0.6083984375,0.6259765625,0.373046875,24.146341463414636,-66.21951219512195,77.6829268292683,125,4
478,0.6201171875,0.63330078125,0.265625,22.378048780487806,-63.10975609756098,76.09756097560977,125,4
479,0.63623046875,0.63916015625,0.29150390625,20.0609756097561,-59.32926829268293,73.71951219512195,125,4
480,0.64404296875,0.63671875,0.2890625,18.719512195121954,-56.707317073170735,71.76829268292684,125,4
481,0.6435546875,0.61328125,0.26318359375,18.78048780487805,-55.0609756097561,69.81707317073172,125,4
482,0.63427734375,0.60693359375,0.22705078125,20.121951219512198,-53.47560975609757,67.43902439024392,125,4
483,0.62353515625,0.58349609375,0.20166015625,20.365853658536587,-52.743902439024396,64.87804878048782,125,4
484,0.63134765625,0.6005859375,0.18603515625,20.182926829268293,-51.89024390243903,62.743902439024396,125,4
485,0.63623046875,0.60693359375,0.177734375,19.32926829268293,-50.426829268292686,61.34146341463415,125,4
486,0.64697265625,0.61572265625,0.18115234375,17.804878048780488,-48.963414634146346,60.060975609756106,125,4
487,0.65625,0.6220703125,0.19970703125,16.28048780487805,-47.13414634146342,58.35365853658537,125,4
488,0.64111328125,0.61669921875,0.2001953125,14.695121951219514,-45.0609756097561,56.646341463414636,125,4
489,0.642578125,0.611328125,0.216796875,14.51219512195122,-44.268292682926834,55.304878048780495,125,4
490,0.62548828125,0.58935546875,0.20068359375,13.78048780487805,-42.6829268292683,52.987804878048784,125,4
491,0.6357421875,0.58837890625,0.2041015625,12.74390243902439,-40.36585365853659,50.487804878048784,125,4
492,0.662109375,0.59033203125,0.18603515625,10.914634146341465,-37.86585365853659,47.43902439024391,125,4
493,0.68310546875,0.587890625,0.18798828125,8.292682926829269,-34.87804878048781,44.93902439024391,125,4
494,0.70166015625,0.59912109375,0.16552734375,6.951219512195123,-32.926829268292686,42.43902439024391,125,4
495,0.708984375,0.5869140625,0.1572265625,5.853658536585367,-30.30487804878049,40.36585365853659,125,4
496,0.6845703125,0.56787109375,0.16162109375,5.914634146341464,-28.414634146341466,38.41463414634147,125,4
497,0.677734375,0.5615234375,0.15087890625,5.670731707317073,-26.219512195121954,36.03658536585366,125,4
498,0.6826171875,0.56396484375,0.1484375,4.878048780487806,-23.353658536585368,33.65853658536586,125,4
499,0.68994140625,0.56298828125,0.140625,3.7195121951219514,-21.158536585365855,31.280487804878053,125,4
