,Ax,Ay,Az,Gx,Gy,Gz,distance,shot_type
0,0.7158203125,-0.353515625,-0.33837890625,6.951219512195123,-3.658536585365854,-8.78048780487805,145,2
1,0.70458984375,-0.37060546875,-0.353515625,8.414634146341465,-3.536585365853659,-9.756097560975611,145,2
2,0.71826171875,-0.25439453125,-0.35595703125,9.51219512195122,-3.7195121951219514,-9.878048780487806,145,2
3,0.69921875,-0.41455078125,-0.36328125,9.390243902439025,-2.3170731707317076,-9.817073170731708,145,2
4,0.6904296875,-0.439453125,-0.35986328125,8.902439024390244,-0.9146341463414634,-9.695121951219512,145,2
5,0.69140625,-0.455078125,-0.3310546875,9.573170731707318,0.6707317073170732,-9.939024390243903,145,2
6,0.69580078125,-0.46484375,-0.318359375,10.365853658536587,2.378048780487805,-9.573170731707318,145,2
7,0.6904296875,-0.46142578125,-0.29052734375,10.0,4.207317073170732,-9.939024390243903,145,2
8,0.7021484375,-0.4443359375,-0.29443359375,9.329268292682928,5.548780487804878,-10.182926829268293,145,2
9,0.7138671875,-0.4345703125,-0.29296875,8.658536585365855,6.890243902439025,-10.853658536585368,145,2
10,0.7216796875,-0.42724609375,-0.298828125,8.353658536585366,8.170731707317074,-10.975609756097562,145,2
11,0.7197265625,-0.45458984375,-0.294921875,8.536585365853659,7.926829268292684,-11.707317073170733,145,2
12,0.71337890625,-0.3759765625,-0.3125,10.30487804878049,6.646341463414635,-11.951219512195124,145,2
13,0.70458984375,-0.5205078125,-0.32373046875,12.134146341463415,5.060975609756098,-12.256097560975611,145,2
14,0.69189453125,-0.5380859375,-0.31396484375,13.475609756097562,4.451219512195122,-11.829268292682928,145,2
15,0.685546875,-0.5478515625,-0.3369140625,13.597560975609758,4.878048780487806,-10.914634146341465,145,2
16,0.6845703125,-0.580078125,-0.3369140625,13.902439024390246,5.7926829268292686,-9.939024390243903,145,2
17,0.67236328125,-0.5947265625,-0.35107421875,14.939024390243905,6.036585365853659,-9.26829268292683,145,2
18,0.66845703125,-0.587890625,-0.34912109375,14.695121951219514,7.25609756097561,-8.109756097560977,145,2
19,0.65966796875,-0.603515625,-0.34521484375,13.109756097560977,10.0,-6.585365853658537,145,2
20,0.65087890625,-0.5966796875,-0.3505859375,11.158536585365855,12.317073170731708,-4.634146341463415,145,2
21,0.64306640625,-0.5859375,-0.35009765625,10.426829268292684,13.963414634146343,-4.024390243902439,145,2
22,0.64501953125,-0.546875,-0.357421875,10.0,19.81707317073171,-4.695121951219512,145,2
23,0.68505859375,-0.50244140625,-0.3818359375,7.317073170731708,27.80487804878049,-5.3048780487804885,145,2
24,0.71728515625,-0.474609375,-0.4267578125,2.9268292682926833,30.000000000000004,-3.963414634146342,145,2
25,0.673828125,-0.5107421875,-0.43798828125,2.5,25.975609756097562,-1.1585365853658538,145,2
26,0.61474609375,-0.5087890625,-0.4541015625,7.01219512195122,18.353658536585368,1.2195121951219514,145,2
27,0.58740234375,-0.5341796875,-0.41259765625,15.243902439024392,11.219512195121952,3.5975609756097566,145,2
28,0.56396484375,-0.54248046875,-0.5,22.25609756097561,3.1707317073170733,5.670731707317073,145,2
29,0.5439453125,-0.5439453125,-0.3583984375,29.695121951219516,-3.963414634146342,7.317073170731708,145,2
30,0.55078125,-0.5263671875,-0.36572265625,34.268292682926834,-6.707317073170732,6.707317073170732,145,2
31,0.6044921875,-0.45361328125,-0.3974609375,32.19512195121951,-6.402439024390245,5.365853658536586,145,2
32,0.63037109375,-0.4384765625,-0.39208984375,27.500000000000004,-7.439024390243903,5.731707317073171,145,2
33,0.56005859375,-0.5166015625,-0.33642578125,27.073170731707318,-10.24390243902439,6.219512195121951,145,2
34,0.5390625,-0.544921875,-0.34228515625,15.79268292682927,-15.426829268292684,5.975609756097562,145,2
35,0.57421875,-0.52294921875,-0.40576171875,31.89024390243903,-31.158536585365855,3.4756097560975614,145,2
36,0.6240234375,-0.45068359375,-0.42919921875,25.365853658536587,-11.829268292682928,1.707317073170732,145,2
37,0.6513671875,-0.42578125,-0.4638671875,30.426829268292686,-8.353658536585366,1.4634146341463417,145,2
38,0.6396484375,-0.4150390625,-0.5166015625,2.378048780487805,-1.524390243902439,-0.426829268292683,145,2
39,0.6806640625,-0.380859375,-0.5126953125,-11.707317073170733,5.365853658536586,-3.2926829268292686,145,2
40,0.70947265625,-0.4130859375,-0.484375,-25.792682926829272,10.914634146341465,-2.073170731707317,145,2
41,0.7109375,-0.45458984375,-0.42822265625,-26.646341463414636,9.573170731707318,-1.707317073170732,145,2
42,0.6708984375,-0.52685546875,-0.39892578125,-23.04878048780488,4.695121951219512,-0.9756097560975611,145,2
43,0.63232421875,-0.5703125,-0.42138671875,-17.25609756097561,0.7926829268292683,-0.853658536585366,145,2
44,0.64892578125,-0.5400390625,-0.396484375,-12.01219512195122,-1.6463414634146343,-15.54878048780488,145,2
45,0.6455078125,-0.56396484375,-0.38330078125,-9.695121951219512,0.5487804878048781,2.073170731707317,145,2
46,0.63037109375,-0.57568359375,-0.35400390625,-12.378048780487806,6.158536585365854,5.548780487804878,145,2
47,0.62744140625,-0.57666015625,-0.28857421875,-14.26829268292683,13.536585365853659,6.463414634146342,145,2
48,0.6533203125,-0.52490234375,-0.2685546875,-13.353658536585368,9.51219512195122,6.7682926829268295,145,2
49,0.68994140625,-0.4326171875,-0.33203125,-8.109756097560977,9.939024390243903,5.914634146341464,145,2
50,0.6845703125,-0.39794921875,-0.3447265625,-8.902439024390244,12.439024390243903,4.329268292682928,145,2
51,0.708984375,-0.36865234375,-0.33544921875,-10.182926829268293,14.329268292682928,3.231707317073171,145,2
52,0.7216796875,-0.3837890625,-0.32470703125,-10.365853658536587,15.426829268292684,2.682926829268293,145,2
53,0.72119140625,-0.392578125,-0.3359375,-11.28048780487805,16.585365853658537,2.7439024390243905,145,2
54,0.705078125,-0.4345703125,-0.291015625,-11.036585365853659,16.646341463414636,3.9024390243902443,145,2
55,0.6640625,-0.37939453125,-0.24365234375,-8.597560975609756,15.365853658536587,4.75609756097561,145,2
56,0.69140625,-0.48779296875,-0.25927734375,-7.500000000000001,13.963414634146343,3.5975609756097566,145,2
57,0.72314453125,-0.44580078125,-0.2841796875,-8.231707317073171,14.817073170731708,3.2926829268292686,145,2
58,0.71240234375,-0.45361328125,-0.314453125,-8.902439024390244,14.756097560975611,2.6219512195121952,145,2
59,0.708984375,-0.46435546875,-0.32177734375,-6.52439024390244,13.963414634146343,1.402439024390244,145,2
60,0.72802734375,-0.4912109375,-0.34033203125,-5.609756097560976,14.573170731707318,0.6707317073170732,145,2
61,0.71484375,-0.50634765625,-0.36865234375,-6.402439024390245,15.365853658536587,0.9146341463414634,145,2
62,0.69970703125,-0.5439453125,-0.3623046875,-6.52439024390244,16.890243902439025,1.524390243902439,145,2
63,0.67578125,-0.5810546875,-0.36376953125,-8.231707317073171,18.719512195121954,2.7439024390243905,145,2
64,0.6806640625,-0.5703125,-0.31494140625,-10.487804878048781,20.365853658536587,4.75609756097561,145,2
65,0.65283203125,-0.5810546875,-0.373046875,-10.853658536585368,20.182926829268293,5.670731707317073,145,2
66,0.65673828125,-0.55810546875,-0.375,-6.890243902439025,18.231707317073173,5.670731707317073,145,2
67,0.6552734375,-0.52685546875,-0.26611328125,-3.414634146341464,16.402439024390244,5.0,145,2
68,0.65234375,-0.5205078125,-0.24609375,-0.426829268292683,15.853658536585368,4.573170731707317,145,2
69,0.67041015625,-0.6240234375,-0.2353515625,0.7317073170731708,15.79268292682927,3.9024390243902443,145,2
70,0.693359375,-0.466796875,-0.25927734375,0.5487804878048781,16.03658536585366,4.207317073170732,145,2
71,0.68359375,-0.44970703125,-0.31591796875,0.30487804878048785,15.365853658536587,4.817073170731708,145,2
72,0.67236328125,-0.478515625,-0.33984375,0.0,16.219512195121954,5.0,145,2
73,0.66943359375,-0.494140625,-0.32568359375,-0.24390243902439027,17.378048780487806,4.634146341463415,145,2
74,0.6826171875,-0.49169921875,-0.34228515625,0.30487804878048785,18.78048780487805,4.573170731707317,145,2
75,0.67822265625,-0.51318359375,-0.361328125,-2.3170731707317076,21.82926829268293,5.182926829268293,145,2
76,0.67822265625,-0.50341796875,-0.361328125,-5.853658536585367,24.451219512195124,4.573170731707317,145,2
77,0.67919921875,-0.4921875,-0.35107421875,-6.829268292682928,24.02439024390244,4.207317073170732,145,2
78,0.669921875,-0.513671875,-0.294921875,-4.2682926829268295,21.463414634146343,3.963414634146342,145,2
79,0.64794921875,-0.541015625,-0.3037109375,-15.182926829268293,17.31707317073171,3.353658536585366,145,2
80,0.64453125,-0.53662109375,-0.31103515625,5.426829268292684,14.26829268292683,2.9268292682926833,145,2
81,0.623046875,-0.53564453125,-0.30859375,8.109756097560977,13.353658536585368,2.804878048780488,145,2
82,0.63134765625,-0.53759765625,-0.29345703125,9.756097560975611,14.146341463414636,2.378048780487805,145,2
83,0.638671875,-0.51220703125,-0.30859375,9.695121951219512,14.817073170731708,2.5609756097560976,145,2
84,0.6552734375,-0.4755859375,-0.328125,8.719512195121952,15.914634146341465,2.3170731707317076,145,2
85,0.67578125,-0.46630859375,-0.33642578125,5.853658536585367,17.25609756097561,1.8902439024390245,145,2
86,0.68603515625,-0.4521484375,-0.33251953125,3.4756097560975614,19.81707317073171,1.9512195121951221,145,2
87,0.6708984375,-0.47998046875,-0.345703125,0.06097560975609757,22.012195121951223,1.402439024390244,145,2
88,0.67919921875,-0.47509765625,-0.333984375,-3.5975609756097566,27.012195121951223,1.3414634146341464,145,2
89,0.673828125,-0.4775390625,-0.3115234375,-7.500000000000001,29.08536585365854,1.3414634146341464,145,2
90,0.64697265625,-0.4892578125,-0.283203125,-6.097560975609756,26.707317073170735,2.439024390243903,145,2
91,0.59228515625,-0.56982421875,-0.22802734375,0.7317073170731708,22.98780487804878,3.658536585365854,145,2
92,0.55859375,-0.61962890625,-0.2236328125,8.048780487804878,17.865853658536587,4.451219512195122,145,2
93,0.6005859375,-0.57470703125,-0.28369140625,15.060975609756099,14.329268292682928,3.780487804878049,145,2
94,0.65380859375,-0.51611328125,-0.28125,17.5,0.12195121951219513,3.7195121951219514,145,2
95,0.68212890625,-0.51220703125,-0.2802734375,31.158536585365855,19.146341463414636,3.780487804878049,145,2
96,0.6669921875,-0.515625,-0.263671875,12.439024390243903,24.573170731707318,4.51219512195122,145,2
97,0.67138671875,-0.51416015625,-0.263671875,7.25609756097561,29.81707317073171,4.939024390243903,145,2
98,0.689453125,-0.4892578125,-0.26611328125,2.0121951219512195,34.93902439024391,4.817073170731708,145,2
99,0.71435546875,-0.44873046875,-0.255859375,-3.963414634146342,41.524390243902445,4.2682926829268295,145,2
100,0.71044921875,-0.43994140625,-0.37060546875,-11.585365853658537,47.743902439024396,4.573170731707317,145,2
101,0.70166015625,-0.4453125,-0.2275390625,-15.853658536585368,51.28048780487806,5.060975609756098,145,2
102,0.6767578125,-0.46826171875,-0.1943359375,-16.76829268292683,53.41463414634147,5.548780487804878,145,2
103,0.67529296875,-0.47119140625,-0.1982421875,-17.804878048780488,53.84146341463415,7.01219512195122,145,2
104,0.65283203125,-0.3759765625,-0.1826171875,-19.573170731707318,53.65853658536586,8.414634146341465,145,2
105,0.62939453125,-0.53564453125,-0.16796875,-20.853658536585368,55.365853658536594,10.24390243902439,145,2
106,0.6103515625,-0.53759765625,-0.16796875,-24.02439024390244,55.426829268292686,11.890243902439025,145,2
107,0.64306640625,-0.50146484375,-0.25830078125,-29.146341463414636,53.17073170731708,12.500000000000002,145,2
108,0.7080078125,-0.5,-0.31201171875,-35.0,58.84146341463415,12.560975609756099,145,2
109,0.765625,-0.32177734375,-0.302734375,-49.75609756097561,66.46341463414635,11.585365853658537,145,2
110,0.80126953125,-0.314453125,-0.34326171875,-66.89024390243902,72.25609756097562,11.219512195121952,145,2
111,0.82470703125,-0.27685546875,-0.3212890625,-80.54878048780489,62.50000000000001,10.365853658536587,145,2
112,0.81884765625,-0.322265625,-0.2548828125,-85.2439024390244,80.1219512195122,10.487804878048781,145,2
113,0.865234375,-0.42041015625,-0.2509765625,-83.78048780487805,77.31707317073172,9.146341463414634,145,2
114,0.70556640625,-0.47509765625,-0.21826171875,-77.19512195121952,76.89024390243902,8.597560975609756,145,2
115,0.6845703125,-0.49560546875,-0.169921875,-71.70731707317074,69.93902439024392,10.24390243902439,145,2
116,0.634765625,-0.4775390625,-0.2080078125,-68.65853658536587,64.20731707317074,10.365853658536587,145,2
117,0.634765625,-0.41455078125,-0.23779296875,-65.2439024390244,59.32926829268293,10.426829268292684,145,2
118,0.67138671875,-0.35400390625,-0.3515625,-60.67073170731708,54.268292682926834,8.597560975609756,145,2
119,0.7431640625,-0.22314453125,-0.353515625,-59.63414634146342,55.365853658536594,7.439024390243903,145,2
120,0.81787109375,-0.17919921875,-0.3837890625,-67.6219512195122,59.39024390243903,5.182926829268293,145,2
121,0.833984375,-0.1572265625,-0.25537109375,-77.8048780487805,63.04878048780488,3.7195121951219514,145,2
122,0.8037109375,-0.15185546875,-0.380859375,-84.63414634146342,62.743902439024396,1.1585365853658538,145,2
123,0.80126953125,-0.15087890625,-0.36572265625,-87.25609756097562,60.487804878048784,-1.1585365853658538,145,2
124,0.77587890625,-0.20751953125,-0.34765625,-87.31707317073172,58.04878048780488,-1.829268292682927,145,2
125,0.72998046875,-0.236328125,-0.3359375,-87.98780487804879,56.524390243902445,-4.024390243902439,145,2
126,0.7001953125,-0.2109375,-0.32861328125,-86.82926829268294,54.085365853658544,-5.914634146341464,145,2
127,0.69873046875,-0.21142578125,-0.36572265625,-84.20731707317074,49.207317073170735,-8.597560975609756,145,2
128,0.69384765625,-0.19970703125,-0.3818359375,-82.43902439024392,44.69512195121952,-10.121951219512196,145,2
129,0.708984375,-0.16552734375,-0.43701171875,-80.54878048780489,39.63414634146342,-13.109756097560977,145,2
130,0.775390625,-0.0556640625,-0.4326171875,-83.71951219512196,39.32926829268293,-15.000000000000002,145,2
131,0.7919921875,-0.06787109375,-0.513671875,-92.7439024390244,40.79268292682927,-17.743902439024392,145,2
132,0.75634765625,-0.04736328125,-0.5673828125,-103.59756097560977,45.73170731707317,-22.682926829268293,145,2
133,0.77783203125,-0.01611328125,-0.50732421875,-113.10975609756099,48.84146341463415,-27.134146341463417,145,2
134,0.81103515625,0.123046875,-0.45556640625,-117.25609756097562,62.19512195121952,-29.08536585365854,145,2
135,0.78466796875,-0.076171875,-0.46728515625,-119.02439024390245,44.024390243902445,-30.731707317073173,145,2
136,0.72412109375,-0.095703125,-0.46484375,-120.60975609756099,42.50000000000001,-33.29268292682927,145,2
137,0.71923828125,-0.0859375,-0.46875,-122.13414634146342,41.28048780487805,-35.36585365853659,145,2
138,0.7392578125,-0.080078125,-0.45849609375,-125.60975609756099,40.426829268292686,-38.65853658536586,145,2
139,0.78662109375,-0.00390625,-0.52978515625,-129.9390243902439,38.65853658536586,-42.07317073170732,145,2
140,0.83740234375,0.02392578125,-0.5810546875,-134.9390243902439,35.487804878048784,-45.79268292682927,145,2
141,0.8740234375,0.0546875,-0.59765625,-125.3658536585366,35.97560975609756,-49.69512195121952,145,2
142,0.916015625,0.06494140625,-0.6015625,-149.02439024390245,38.90243902439025,-54.87804878048781,145,2
143,0.95068359375,0.09228515625,-0.58203125,-158.53658536585368,42.50000000000001,-59.32926829268293,145,2
144,0.97998046875,0.09130859375,-0.52978515625,-169.63414634146343,47.743902439024396,-63.10975609756098,145,2
145,0.96337890625,0.03466796875,-0.50048828125,-178.35365853658539,51.768292682926834,-66.46341463414635,145,2
146,0.9375,0.0,-0.45751953125,-183.1707317073171,53.78048780487806,-69.69512195121952,145,2
147,0.92578125,-0.0185546875,-0.4150390625,-184.02439024390245,54.57317073170732,-72.6219512195122,145,2
148,0.94921875,-0.1220703125,-0.41796875,-184.26829268292684,55.365853658536594,-77.37804878048782,145,2
149,0.9697265625,0.0185546875,-0.40185546875,-186.40243902439025,55.85365853658537,-81.15853658536587,145,2
150,1.01806640625,0.06005859375,-0.3876953125,-187.6219512195122,53.41463414634147,-88.65853658536587,145,2
151,1.1123046875,0.2080078125,-0.4912109375,-192.9268292682927,55.243902439024396,-94.26829268292684,145,2
152,1.1474609375,0.17138671875,-0.50927734375,-200.4268292682927,58.41463414634147,-101.15853658536587,145,2
153,1.1591796875,0.12451171875,-0.51025390625,-203.96341463414635,62.01219512195122,-107.43902439024392,145,2
154,1.16748046875,0.12255859375,-0.46142578125,-204.69512195121953,63.10975609756098,-114.02439024390245,145,2
155,1.21435546875,0.1845703125,-0.46728515625,-206.21951219512198,65.0609756097561,-121.89024390243904,145,2
156,1.2568359375,0.205078125,-0.44677734375,-212.9268292682927,69.08536585365854,-128.90243902439025,145,2
157,1.2763671875,0.1962890625,-0.408203125,-219.93902439024393,73.96341463414635,-135.91463414634148,145,2
158,1.326171875,0.20703125,-0.39013671875,-226.58536585365854,77.6219512195122,-142.25609756097563,145,2
159,1.35791015625,0.21337890625,-0.365234375,-233.53658536585368,80.97560975609757,-148.53658536585368,145,2
160,1.38916015625,0.1640625,-0.31591796875,-235.18292682926833,83.90243902439025,-153.47560975609758,145,2
161,1.38330078125,0.07177734375,-0.361328125,-230.7317073170732,84.02439024390245,-158.90243902439025,145,2
162,1.40185546875,0.10498046875,-0.37451171875,-223.65853658536588,85.73170731707317,-165.2439024390244,145,2
163,1.44189453125,0.1826171875,-0.36669921875,-218.96341463414635,87.37804878048782,-170.609756097561,145,2
164,1.49462890625,0.24609375,-0.39208984375,-219.45121951219514,91.76829268292684,-175.7926829268293,145,2
165,1.53466796875,0.24169921875,-0.2509765625,-219.69512195121953,95.85365853658537,-179.20731707317074,145,2
166,1.5419921875,0.1279296875,-0.390625,-218.90243902439028,97.37804878048782,-182.8658536585366,145,2
167,1.5439453125,0.2744140625,-0.3544921875,-214.14634146341464,98.84146341463415,-185.91463414634148,145,2
168,1.55615234375,0.27001953125,-0.3212890625,-206.46341463414635,97.6219512195122,-188.84146341463418,145,2
169,1.57470703125,0.265625,-0.31298828125,-195.97560975609758,92.01219512195122,-190.3658536585366,145,2
170,1.56201171875,0.25,-0.3544921875,-202.6829268292683,91.95121951219512,-195.85365853658539,145,2
171,1.51318359375,0.3408203125,-0.35205078125,-182.6219512195122,95.00000000000001,-201.15853658536588,145,2
172,1.68359375,0.40234375,-0.373046875,-184.87804878048783,97.92682926829269,-207.31707317073173,145,2
173,1.705078125,0.39697265625,-0.3310546875,-186.64634146341464,103.10975609756099,-212.9878048780488,145,2
174,1.7265625,0.41455078125,-0.3076171875,-183.59756097560978,104.02439024390245,-217.8658536585366,145,2
175,1.7421875,0.41259765625,-0.30126953125,-178.59756097560978,104.75609756097562,-222.7439024390244,145,2
176,1.74951171875,0.408203125,-0.2763671875,-173.53658536585368,104.39024390243904,-226.95121951219514,145,2
177,1.736328125,0.38916015625,-0.2392578125,-166.76829268292684,105.73170731707317,-232.50000000000003,145,2
178,1.751953125,0.42626953125,-0.23876953125,-158.65853658536588,105.3048780487805,-237.25609756097563,145,2
179,1.7451171875,0.44140625,-0.21142578125,-153.109756097561,104.93902439024392,-242.68292682926833,145,2
180,1.7861328125,0.50341796875,-0.26904296875,-148.41463414634148,102.6219512195122,-247.68292682926833,145,2
181,1.84130859375,0.58447265625,-0.1943359375,-148.90243902439025,105.73170731707317,-252.8658536585366,145,2
182,1.85888671875,0.54296875,-0.13623046875,-151.03658536585368,110.1219512195122,-256.6463414634147,145,2
183,1.82861328125,0.52392578125,-0.07568359375,-150.0,113.35365853658537,-260.5487804878049,145,2
184,1.8193359375,0.50732421875,-0.04296875,-145.1219512195122,113.04878048780489,-262.4390243902439,145,2
185,1.84130859375,0.52490234375,-0.04638671875,-155.91463414634148,111.89024390243904,-265.2439024390244,145,2
186,1.833984375,0.51611328125,-0.0068359375,-133.96341463414635,113.29268292682927,-270.1219512195122,145,2
187,1.84814453125,0.54833984375,0.04052734375,-128.2926829268293,112.50000000000001,-274.0243902439025,145,2
188,1.84423828125,0.6240234375,0.09716796875,-121.40243902439025,111.15853658536587,-278.1707317073171,145,2
189,1.85986328125,0.50439453125,0.08740234375,-113.96341463414635,111.52439024390245,-282.7439024390244,145,2
190,1.8447265625,0.50830078125,0.1474609375,-124.75609756097562,109.57317073170732,-285.5487804878049,145,2
191,1.7939453125,0.49267578125,0.11865234375,-107.19512195121952,109.57317073170732,-286.70731707317077,145,2
192,1.73291015625,0.44384765625,0.107421875,-105.54878048780489,111.46341463414635,-287.9878048780488,145,2
193,1.64501953125,0.4052734375,0.14501953125,-102.37804878048782,112.07317073170732,-289.39024390243907,145,2
194,1.57763671875,0.4091796875,0.197265625,-97.92682926829269,112.07317073170732,-290.0609756097561,145,2
195,1.51611328125,0.33447265625,0.169921875,-94.75609756097562,113.71951219512196,-291.219512195122,145,2
196,1.42431640625,0.255859375,0.13818359375,-92.07317073170732,112.6829268292683,-289.45121951219517,145,2
197,1.34228515625,0.1826171875,0.14501953125,-85.85365853658537,112.37804878048782,-286.0365853658537,145,2
198,1.2705078125,0.14404296875,0.15966796875,-78.29268292682927,110.42682926829269,-281.1585365853659,145,2
199,1.1845703125,0.09423828125,0.08740234375,-75.3048780487805,110.54878048780489,-276.1585365853659,145,2
200,1.109375,0.0146484375,0.05322265625,-68.29268292682927,113.29268292682927,-272.25609756097566,145,2
201,1.00439453125,-0.0361328125,0.04638671875,-65.73170731707317,115.54878048780489,-269.39024390243907,145,2
202,0.95263671875,-0.02197265625,0.08837890625,-63.71951219512196,115.97560975609757,-265.9146341463415,145,2
203,0.8876953125,-0.0908203125,0.123046875,-66.34146341463415,117.92682926829269,-261.0975609756098,145,2
204,0.80078125,-0.1650390625,0.10595703125,-68.78048780487805,118.23170731707319,-256.1585365853659,145,2
205,0.71484375,-0.24609375,0.1142578125,-67.43902439024392,117.8658536585366,-252.37804878048783,145,2
206,0.6533203125,-0.31982421875,0.19921875,-60.487804878048784,113.96341463414635,-249.81707317073173,145,2
207,0.59619140625,-0.35205078125,0.31787109375,-51.28048780487806,124.81707317073172,-241.89024390243904,145,2
208,0.53759765625,-0.44091796875,0.26611328125,-44.268292682926834,103.90243902439025,-235.5487804878049,145,2
209,0.47216796875,-0.490234375,0.19921875,-37.6219512195122,97.37804878048782,-231.82926829268294,145,2
210,0.37548828125,-0.52099609375,0.185546875,-46.463414634146346,93.29268292682927,-226.15853658536588,145,2
211,0.3291015625,-0.50537109375,0.2392578125,-23.353658536585368,86.64634146341464,-221.40243902439028,145,2
212,0.3115234375,-0.53125,0.18896484375,-20.54878048780488,80.97560975609757,-214.08536585365854,145,2
213,0.2578125,-0.54150390625,0.08935546875,-21.951219512195124,77.43902439024392,-208.47560975609758,145,2
214,0.16064453125,-0.54443359375,0.12255859375,-21.097560975609756,69.63414634146342,-198.2317073170732,145,2
215,0.11572265625,-0.59423828125,0.099609375,-22.439024390243905,69.93902439024392,-187.43902439024393,145,2
216,-0.1123046875,-0.72021484375,0.140625,-27.682926829268297,71.03658536585367,-176.21951219512198,145,2
217,-0.21533203125,-0.82470703125,0.095703125,-26.402439024390247,66.82926829268293,-163.1707317073171,145,2
218,-0.31103515625,-0.8857421875,0.07177734375,-24.085365853658537,65.1829268292683,-152.01219512195124,145,2
219,-0.39404296875,-0.94580078125,0.01318359375,-24.695121951219516,64.81707317073172,-137.4390243902439,145,2
220,-0.4912109375,-1.08251953125,0.20556640625,-25.975609756097562,62.926829268292686,-120.1829268292683,145,2
221,-0.5185546875,-1.302734375,0.19873046875,-20.48780487804878,58.53658536585366,-101.46341463414635,145,2
222,-0.75634765625,-1.45654296875,0.24560546875,-7.865853658536586,54.085365853658544,-83.23170731707317,145,2
223,-0.80419921875,-1.48876953125,0.31787109375,2.1341463414634148,48.90243902439025,-66.15853658536587,145,2
224,-0.8193359375,-1.546875,0.498046875,11.219512195121952,44.51219512195122,-51.09756097560976,145,2
225,-0.787109375,-1.62451171875,0.421875,21.585365853658537,40.243902439024396,-33.53658536585366,145,2
226,-0.7880859375,-1.72314453125,0.3798828125,30.731707317073173,36.707317073170735,-16.34146341463415,145,2
227,-0.828125,-1.7666015625,0.36328125,40.79268292682927,32.31707317073171,2.5,145,2
228,-0.77294921875,-1.7890625,0.435546875,50.91463414634147,28.902439024390247,21.646341463414636,145,2
229,-0.67626953125,-1.82275390625,0.37939453125,59.57317073170732,25.182926829268293,42.804878048780495,145,2
230,-0.67919921875,-1.8310546875,0.25244140625,63.84146341463415,20.670731707317074,48.65853658536586,145,2
231,-0.69775390625,-1.80859375,0.1201171875,61.524390243902445,19.26829268292683,87.6829268292683,145,2
232,-0.625,-1.80615234375,0.0908203125,57.804878048780495,17.5,113.71951219512196,145,2
233,-0.50390625,-1.8427734375,0.12109375,60.91463414634147,14.146341463414636,139.75609756097563,145,2
234,-0.4091796875,-1.9453125,-0.0830078125,70.3048780487805,7.865853658536586,166.40243902439025,145,2
235,-0.3388671875,-2.0927734375,-0.11962890625,85.97560975609757,-2.25609756097561,191.03658536585368,145,2
236,-0.22802734375,-2.17333984375,-0.14111328125,107.8658536585366,-11.402439024390246,215.2439024390244,145,2
237,-0.1240234375,-2.23291015625,-0.0947265625,128.96341463414635,-18.414634146341466,239.14634146341464,145,2
238,-0.0068359375,-2.26806640625,-0.02587890625,139.63414634146343,-19.939024390243905,262.3170731707317,145,2
239,0.16259765625,-2.3046875,0.02685546875,142.25609756097563,-17.98780487804878,289.75609756097566,145,2
240,0.28466796875,-2.47119140625,0.07373046875,136.82926829268294,-13.963414634146343,320.5487804878049,145,2
241,0.42236328125,-2.71044921875,0.12451171875,129.39024390243904,-13.597560975609758,354.20731707317077,145,2
242,0.58154296875,-2.97412109375,-0.08984375,128.78048780487805,-0.06097560975609757,389.51219512195127,145,2
243,0.861328125,-3.2373046875,-0.16650390625,131.89024390243904,-18.53658536585366,427.43902439024396,145,2
244,1.21240234375,-3.56787109375,-0.29638671875,124.87804878048782,-30.731707317073173,467.62195121951225,145,2
245,1.603515625,-3.8798828125,-0.53369140625,169.32926829268294,-49.39024390243903,507.56097560975616,145,2
246,2.09912109375,-4.34228515625,-0.7939453125,215.91463414634148,-61.768292682926834,542.0731707317074,145,2
247,2.845703125,-4.380859375,-0.90087890625,274.51219512195127,-65.73170731707317,574.2682926829269,145,2
248,3.62353515625,-4.59228515625,-1.32763671875,317.5,-65.54878048780489,598.2926829268293,145,2
249,4.65087890625,-4.53173828125,-1.58837890625,347.6219512195122,-38.84146341463415,612.9878048780488,145,2
250,5.46337890625,-4.515625,-1.302734375,359.57317073170736,-11.28048780487805,633.4146341463415,145,2
251,6.365234375,-4.5673828125,-1.30029296875,397.9878048780488,25.000000000000004,668.109756097561,145,2
252,6.90673828125,-4.57421875,-1.69140625,405.06097560975616,48.29268292682927,711.4024390243903,145,2
253,7.6123046875,-4.6552734375,-2.43505859375,387.8048780487805,103.65853658536587,753.6585365853659,145,2
254,8.24609375,-4.6123046875,-3.177734375,396.3414634146342,110.06097560975611,818.9634146341464,145,2
255,8.724609375,-4.318359375,-3.91845703125,415.06097560975616,118.41463414634147,878.5365853658537,145,2
256,9.5205078125,-3.9033203125,-4.60205078125,440.7317073170732,106.40243902439025,932.439024390244,145,2
257,10.546875,-3.2939453125,-5.38916015625,459.1463414634147,91.34146341463415,971.9512195121952,145,2
258,11.43408203125,-2.61865234375,-6.08740234375,487.86585365853665,40.426829268292686,1015.548780487805,145,2
259,11.2529296875,-2.478515625,-6.68115234375,572.1951219512196,-80.42682926829269,1059.4512195121952,145,2
260,10.95068359375,-3.00390625,-7.71337890625,689.4512195121952,-216.15853658536588,1043.9634146341464,145,2
261,10.31298828125,-3.8984375,-7.822265625,865.7926829268293,-339.75609756097566,974.5731707317074,145,2
262,9.38330078125,-4.8046875,-8.17138671875,1072.1951219512196,-529.6951219512196,905.3048780487806,145,2
263,8.71142578125,-5.7353515625,-8.8466796875,1270.0609756097563,-695.7926829268293,762.0121951219513,145,2
264,8.2607421875,-5.62451171875,-10.310546875,1393.2317073170732,-754.939024390244,487.74390243902445,145,2
265,9.25732421875,-2.015625,-16.0,1228.048780487805,-548.2317073170732,329.63414634146346,145,2
266,15.99951171875,9.37255859375,-13.34619140625,1065.8536585365855,-47.6219512195122,123.53658536585367,145,2
267,-1.41162109375,-10.033203125,-8.91015625,1390.3658536585367,-550.1829268292684,-31.951219512195124,145,2
268,10.46630859375,1.65869140625,-2.9921875,1075.1829268292684,295.0,-129.51219512195124,145,2
269,9.912109375,1.98486328125,1.025390625,1246.2804878048782,-132.8658536585366,28.963414634146343,145,2
270,2.61572265625,-5.0751953125,-3.31396484375,964.8170731707318,-36.03658536585366,-165.00000000000003,145,2
271,5.6484375,-2.08154296875,-1.01171875,924.2682926829269,90.00000000000001,-135.7926829268293,145,2
272,3.291015625,-3.93310546875,-2.44189453125,974.6951219512196,-59.57317073170732,-272.13414634146346,145,2
273,6.17822265625,-2.25048828125,-3.49755859375,861.3414634146342,-75.3048780487805,-430.00000000000006,145,2
274,5.75439453125,-1.9599609375,-3.4716796875,815.7926829268293,-57.804878048780495,-499.81707317073176,145,2
275,4.7607421875,-2.77783203125,-3.57373046875,709.4512195121952,-28.04878048780488,-610.9146341463415,145,2
276,5.322265625,-2.66015625,-3.685546875,564.5121951219513,-21.03658536585366,-664.6341463414635,145,2
277,4.1787109375,-3.25830078125,-3.97119140625,428.1707317073171,17.012195121951223,-707.3780487804879,145,2
278,3.17041015625,-3.44287109375,-3.5029296875,294.9390243902439,116.46341463414635,-737.0121951219513,145,2
279,2.1953125,-3.2783203125,-3.236328125,192.6829268292683,156.46341463414635,-761.8902439024391,145,2
280,1.61181640625,-3.18701171875,-3.208984375,142.6829268292683,203.47560975609758,-774.329268292683,145,2
281,1.13818359375,-2.955078125,-3.11962890625,113.10975609756099,271.219512195122,-784.5121951219513,145,2
282,0.76904296875,-2.6953125,-2.4267578125,84.87804878048782,317.31707317073176,-775.4878048780488,145,2
283,0.9462890625,-2.3359375,-2.19140625,50.304878048780495,371.2804878048781,-744.5121951219513,145,2
284,1.13818359375,-1.951171875,-2.013671875,19.207317073170735,408.7804878048781,-696.6463414634147,145,2
285,0.87646484375,-2.107421875,-1.9912109375,-4.085365853658537,460.06097560975616,-669.5121951219513,145,2
286,1.01025390625,-2.1220703125,-1.52880859375,-38.59756097560976,488.9024390243903,-619.2073170731708,145,2
287,0.9306640625,-1.9931640625,-1.24609375,-70.97560975609757,503.10975609756105,-594.2073170731708,145,2
288,1.19921875,-1.43701171875,-1.24755859375,-97.6219512195122,511.76829268292687,-572.6829268292684,145,2
289,1.3759765625,-1.26123046875,-1.1640625,-121.03658536585367,521.2804878048781,-554.4512195121952,145,2
290,1.40625,-1.2158203125,-1.46630859375,-137.5609756097561,525.7926829268293,-537.8658536585366,145,2
291,1.4677734375,-1.2822265625,-1.95849609375,-144.75609756097563,530.3048780487806,-518.8414634146342,145,2
292,1.46533203125,-1.36376953125,-2.1220703125,-128.71951219512195,493.1707317073171,-495.12195121951225,145,2
293,1.4013671875,-1.10205078125,-2.12744140625,-106.09756097560977,457.25609756097566,-483.9024390243903,145,2
294,1.1865234375,-0.94677734375,-2.01513671875,-88.04878048780489,422.31707317073176,-437.74390243902445,145,2
295,0.9013671875,-0.8681640625,-1.669921875,-74.14634146341464,404.75609756097566,-412.56097560975616,145,2
296,0.62548828125,-0.84912109375,-1.40087890625,-75.2439024390244,368.2926829268293,-398.5975609756098,145,2
297,0.4541015625,-0.7861328125,-1.31005859375,-99.75609756097562,354.57317073170736,-388.5975609756098,145,2
298,0.3818359375,-0.50439453125,-1.18359375,-125.79268292682927,347.6219512195122,-387.43902439024396,145,2
299,0.4482421875,-0.23828125,-1.32958984375,-212.68292682926833,348.109756097561,-379.39024390243907,145,2
300,0.57373046875,-0.013671875,-1.44921875,-272.5,344.20731707317077,-359.26829268292687,145,2
301,0.52783203125,0.03125,-1.45068359375,-309.1463414634147,354.45121951219517,-332.37804878048786,145,2
302,0.47412109375,-0.03369140625,-1.32666015625,-324.1463414634147,329.39024390243907,-305.5487804878049,145,2
303,-0.05126953125,-0.38671875,-1.16064453125,-286.1585365853659,303.1707317073171,-278.4146341463415,145,2
304,-0.3203125,-0.69970703125,-1.15869140625,-298.5365853658537,286.95121951219517,-261.219512195122,145,2
305,-0.423828125,-0.705078125,-1.0380859375,-286.5243902439025,266.3414634146342,-248.109756097561,145,2
306,-0.255859375,-0.67822265625,-1.0087890625,-274.39024390243907,251.09756097560978,-236.82926829268294,145,2
307,-0.42333984375,-0.58544921875,-1.0625,-268.2317073170732,230.5487804878049,-222.56097560975613,145,2
308,-0.38330078125,-0.58740234375,-1.138671875,-268.7804878048781,233.71951219512198,-203.84146341463418,145,2
309,-0.63916015625,-0.57080078125,-1.03125,-255.97560975609758,200.06097560975613,-182.9878048780488,145,2
310,-1.03662109375,-0.685546875,-0.9345703125,-241.58536585365854,183.84146341463415,-161.58536585365854,145,2
311,-1.26025390625,-0.65966796875,-0.79296875,-233.84146341463418,177.25609756097563,-144.20731707317074,145,2
312,-1.2568359375,-0.5576171875,-0.74365234375,-229.39024390243904,167.50000000000003,-135.3048780487805,145,2
313,-1.02197265625,-0.3291015625,-0.82666015625,-229.26829268292684,158.78048780487805,-130.97560975609758,145,2
314,-0.8857421875,-0.16015625,-0.8310546875,-223.90243902439028,145.3658536585366,-126.21951219512196,145,2
315,-0.73681640625,-0.15625,-0.8544921875,-219.39024390243904,131.70731707317074,-122.8048780487805,145,2
316,-0.6904296875,-0.16259765625,-0.8291015625,-215.06097560975613,127.8658536585366,-116.46341463414635,145,2
317,-0.76171875,-0.17041015625,-0.84033203125,-203.96341463414635,110.3048780487805,-114.57317073170732,145,2
318,-0.7275390625,-0.15576171875,-0.720703125,-194.69512195121953,117.13414634146342,-110.48780487804879,145,2
319,-0.7646484375,-0.23681640625,-0.765625,-180.7317073170732,108.10975609756099,-106.70731707317074,145,2
320,-0.78564453125,-0.2705078125,-1.07421875,-169.93902439024393,92.98780487804879,-98.41463414634147,145,2
321,-0.9404296875,-0.41259765625,-0.9130859375,-132.7439024390244,89.69512195121952,-86.70731707317074,145,2
322,-1.166015625,-0.599609375,-0.86328125,-125.67073170731709,84.14634146341464,-93.04878048780489,145,2
323,-1.3701171875,-0.68017578125,-0.8720703125,-117.37804878048782,80.97560975609757,-68.71951219512195,145,2
324,-1.4072265625,-0.705078125,-0.92333984375,-111.58536585365854,71.64634146341464,-58.65853658536586,145,2
325,-1.3515625,-0.60595703125,-1.09033203125,-103.59756097560977,60.79268292682927,-48.71951219512196,145,2
326,-1.166015625,-0.49609375,-1.1611328125,-98.23170731707317,50.1829268292683,-40.85365853658537,145,2
327,-1.26220703125,-0.4873046875,-1.07666015625,-91.95121951219512,39.390243902439025,-29.207317073170735,145,2
328,-1.271484375,-0.49755859375,-1.060546875,-85.42682926829269,28.292682926829272,-16.82926829268293,145,2
329,-1.25537109375,-0.5751953125,-1.0224609375,-93.65853658536587,16.951219512195124,-5.121951219512195,145,2
330,-1.337890625,-0.60400390625,-1.00732421875,-69.08536585365854,2.439024390243903,2.6219512195121952,145,2
331,-1.37109375,-0.52490234375,-1.09375,-54.57317073170732,-8.109756097560977,10.609756097560977,145,2
332,-1.1953125,-0.48974609375,-0.96435546875,-44.93902439024391,-18.658536585365855,18.84146341463415,145,2
333,-1.1376953125,-0.43701171875,-0.888671875,-35.73170731707317,-28.04878048780488,24.634146341463417,145,2
334,-1.1015625,-0.3671875,-0.8623046875,-23.719512195121954,-37.31707317073171,28.963414634146343,145,2
335,-1.05224609375,-0.2919921875,-0.873046875,-11.341463414634147,-46.34146341463415,31.402439024390247,145,2
336,-1.02783203125,-0.244140625,-0.80810546875,-0.48780487804878053,-54.39024390243903,32.6219512195122,145,2
337,-1.0322265625,-0.20458984375,-0.732421875,6.158536585365854,-61.89024390243903,33.04878048780488,145,2
338,-1.02734375,-0.1513671875,-0.689453125,11.341463414634147,-68.23170731707317,33.53658536585366,145,2
339,-1.0283203125,-0.24072265625,-0.716796875,15.060975609756099,-75.48780487804879,33.23170731707317,145,2
340,-1.01123046875,-0.04931640625,-0.8701171875,19.02439024390244,-79.87804878048782,33.78048780487805,145,2
341,-1.05859375,-0.0517578125,-0.71630859375,21.219512195121954,-86.95121951219512,34.87804878048781,145,2
342,-1.09716796875,-0.0888671875,-0.6533203125,23.84146341463415,-94.69512195121952,36.951219512195124,145,2
343,-1.10302734375,-0.00146484375,-0.61865234375,28.10975609756098,-103.04878048780489,38.53658536585366,145,2
344,-1.12255859375,-0.11376953125,-0.61962890625,34.390243902439025,-111.52439024390245,39.51219512195122,145,2
345,-1.1416015625,-0.08740234375,-0.58203125,41.58536585365854,-118.41463414634147,39.390243902439025,145,2
346,-1.15087890625,-0.083984375,-0.5185546875,47.6219512195122,-124.45121951219514,37.743902439024396,145,2
347,-1.154296875,-0.04931640625,-0.43701171875,52.01219512195122,-126.28048780487806,35.0609756097561,145,2
348,-1.10888671875,-0.02197265625,-0.37548828125,53.53658536585366,-126.28048780487806,32.5609756097561,145,2
349,-1.10302734375,0.0234375,-0.35107421875,54.207317073170735,-128.53658536585368,30.487804878048784,145,2
350,-1.09375,0.0615234375,-0.36376953125,58.35365853658537,-133.41463414634148,28.84146341463415,145,2
351,-1.07763671875,0.09228515625,-0.35009765625,63.65853658536586,-137.8048780487805,24.390243902439025,145,2
352,-1.052734375,0.12255859375,-0.345703125,66.95121951219512,-140.2439024390244,19.878048780487806,145,2
353,-1.0390625,0.140625,-0.29833984375,69.57317073170732,-141.15853658536588,31.158536585365855,145,2
354,-1.0576171875,0.00048828125,-0.27294921875,71.52439024390245,-142.5,13.475609756097562,145,2
355,-1.06689453125,0.00146484375,-0.2431640625,71.89024390243902,-145.0609756097561,12.80487804878049,145,2
356,-1.0810546875,0.11376953125,-0.166015625,71.58536585365854,-146.28048780487805,11.52439024390244,145,2
357,-1.08447265625,0.09375,-0.10205078125,68.78048780487805,-145.5487804878049,10.426829268292684,145,2
358,-1.072265625,0.11865234375,-0.080078125,66.03658536585367,-145.609756097561,8.902439024390244,145,2
359,-1.060546875,0.169921875,-0.07568359375,66.21951219512195,-147.31707317073173,7.073170731707318,145,2
360,-1.04248046875,0.21826171875,-0.0458984375,67.92682926829269,-150.3658536585366,7.073170731707318,145,2
361,-1.04052734375,0.20263671875,-0.0087890625,72.13414634146342,-158.2926829268293,7.926829268292684,145,2
362,-1.0859375,0.24267578125,0.0166015625,79.93902439024392,-162.07317073170734,5.975609756097562,145,2
363,-1.00634765625,0.0361328125,0.05615234375,88.04878048780489,-169.20731707317074,3.9024390243902443,145,2
364,-1.10107421875,0.0537109375,0.0361328125,99.63414634146342,-172.19512195121953,4.024390243902439,145,2
365,-1.0361328125,0.08984375,0.1044921875,106.46341463414635,-173.47560975609758,5.670731707317073,145,2
366,-0.98388671875,0.10791015625,0.185546875,110.79268292682927,-173.71951219512198,8.170731707317074,145,2
367,-0.95654296875,0.09228515625,0.236328125,114.08536585365854,-173.96341463414635,11.707317073170733,145,2
368,-0.931640625,0.07958984375,0.26318359375,118.71951219512196,-174.32926829268294,15.060975609756099,145,2
369,-0.912109375,0.08544921875,0.28955078125,123.29268292682927,-173.0487804878049,17.98780487804878,145,2
370,-0.87548828125,0.0810546875,0.31884765625,125.3658536585366,-170.85365853658539,19.695121951219512,145,2
371,-0.830078125,0.0712890625,0.33349609375,125.12195121951221,-167.7439024390244,20.914634146341466,145,2
372,-0.84912109375,0.0537109375,0.365234375,125.79268292682927,-165.7926829268293,23.719512195121954,145,2
373,-0.83935546875,0.03759765625,0.3818359375,128.41463414634148,-166.52439024390245,27.987804878048784,145,2
374,-0.8173828125,0.04931640625,0.42626953125,131.95121951219514,-167.7439024390244,32.07317073170732,145,2
375,-0.80126953125,0.0078125,0.44091796875,135.609756097561,-169.32926829268294,36.09756097560976,145,2
376,-0.79296875,-0.015625,0.44580078125,125.1829268292683,-156.52439024390245,40.0,145,2
377,-0.78173828125,-0.00634765625,0.4658203125,148.78048780487805,-176.40243902439025,43.963414634146346,145,2
378,-0.76708984375,0.005859375,0.4921875,155.0,-174.14634146341464,62.37804878048781,145,2
379,-0.71630859375,-0.00634765625,0.50830078125,148.84146341463415,-163.71951219512198,48.78048780487805,145,2
380,-0.66455078125,0.056640625,0.515625,136.46341463414635,-153.41463414634148,49.75609756097561,145,2
381,-0.61767578125,0.12255859375,0.55712890625,127.07317073170732,-148.65853658536588,52.43902439024391,145,2
382,-0.6171875,0.13818359375,0.5859375,123.59756097560977,-149.87804878048783,56.09756097560976,145,2
383,-0.61279296875,0.09326171875,0.60009765625,122.43902439024392,-151.58536585365854,57.987804878048784,145,2
384,-0.599609375,0.07763671875,0.59326171875,122.98780487804879,-153.84146341463415,58.71951219512196,145,2
385,-0.57763671875,0.08935546875,0.5830078125,125.60975609756099,-157.7439024390244,59.57317073170732,145,2
386,-0.54443359375,0.12548828125,0.5771484375,129.57317073170734,-163.59756097560978,62.31707317073171,145,2
387,-0.52734375,0.1044921875,0.53369140625,133.109756097561,-171.34146341463415,65.0609756097561,145,2
388,-0.53564453125,0.08837890625,0.55517578125,135.6707317073171,-176.64634146341464,67.43902439024392,145,2
389,-0.537109375,0.06103515625,0.58935546875,138.53658536585368,-179.39024390243904,69.02439024390245,145,2
390,-0.5244140625,0.0634765625,0.6083984375,128.59756097560978,-168.59756097560978,67.8658536585366,145,2
391,-0.42724609375,0.01025390625,0.57373046875,109.39024390243904,-158.47560975609758,67.6829268292683,145,2
392,-0.35546875,0.189453125,0.61083984375,108.65853658536587,-151.34146341463415,68.41463414634147,145,2
393,-0.35302734375,0.2080078125,0.6376953125,83.65853658536587,-148.35365853658539,69.32926829268293,145,2
394,-0.3349609375,0.21240234375,0.65185546875,79.39024390243902,-148.2317073170732,71.52439024390245,145,2
395,-0.31884765625,0.17529296875,0.66552734375,62.43902439024391,-150.4268292682927,73.04878048780489,145,2
396,-0.3203125,0.1787109375,0.6484375,81.89024390243902,-154.87804878048783,73.29268292682927,145,2
397,-0.28466796875,0.20556640625,0.62060546875,89.02439024390245,-161.58536585365854,73.84146341463415,145,2
398,-0.255859375,0.232421875,0.61572265625,78.17073170731707,-167.6829268292683,74.32926829268294,145,2
399,-0.2333984375,0.255859375,0.615234375,94.57317073170732,-168.1707317073171,74.32926829268294,145,2
400,-0.21337890625,0.25732421875,0.64404296875,86.09756097560977,-162.5,72.37804878048782,145,2
401,-0.154296875,0.31884765625,0.7109375,75.54878048780489,-156.52439024390245,72.43902439024392,145,2
402,-0.13916015625,0.33544921875,0.75,66.21951219512195,-151.46341463414635,72.98780487804879,145,2
403,-0.11474609375,0.365234375,0.75390625,61.646341463414636,-148.65853658536588,73.23170731707317,145,2
404,-0.10107421875,0.3515625,0.74267578125,60.79268292682927,-148.65853658536588,74.20731707317074,145,2
405,-0.099609375,0.33544921875,0.70361328125,63.17073170731708,-148.96341463414635,74.63414634146342,145,2
406,-0.09228515625,0.33203125,0.68359375,64.9390243902439,-149.20731707317074,74.08536585365854,145,2
407,-0.099609375,0.35498046875,0.72216796875,66.09756097560977,-149.81707317073173,73.84146341463415,145,2
408,-0.115234375,0.39111328125,0.76025390625,67.92682926829269,-152.31707317073173,74.39024390243902,145,2
409,-0.14599609375,0.39990234375,0.7578125,69.20731707317074,-153.65853658536588,75.60975609756098,145,2
410,-0.17041015625,0.38916015625,0.7392578125,70.0,-153.2317073170732,77.07317073170732,145,2
411,-0.17919921875,0.3837890625,0.77099609375,65.91463414634147,-146.70731707317074,77.5,145,2
412,-0.24755859375,0.45068359375,0.78271484375,58.963414634146346,-139.14634146341464,77.25609756097562,145,2
413,-0.07666015625,0.37548828125,0.78271484375,52.07317073170732,-131.70731707317074,78.35365853658537,145,2
414,-0.05029296875,0.509765625,0.7744140625,46.21951219512196,-125.67073170731709,78.65853658536587,145,2
415,-0.025390625,0.51171875,0.79296875,44.146341463414636,-121.64634146341464,79.20731707317074,145,2
416,-0.0107421875,0.513671875,0.8046875,42.25609756097561,-120.2439024390244,79.69512195121952,145,2
417,-0.01416015625,0.53466796875,0.7919921875,42.50000000000001,-120.42682926829269,80.67073170731707,145,2
418,-0.0205078125,0.5498046875,0.76904296875,43.53658536585366,-120.48780487804879,81.82926829268294,145,2
419,-0.11962890625,0.5341796875,0.703125,45.54878048780488,-121.95121951219514,82.13414634146342,145,2
420,0.02392578125,0.5546875,0.66650390625,46.03658536585366,-122.92682926829269,81.70731707317074,145,2
421,0.05908203125,0.5927734375,0.65625,45.91463414634147,-124.32926829268294,81.89024390243902,145,2
422,0.0654296875,0.6142578125,0.69091796875,42.50000000000001,-121.64634146341464,81.89024390243902,145,2
423,0.083984375,0.6376953125,0.73828125,34.268292682926834,-116.58536585365854,81.95121951219512,145,2
424,0.1025390625,0.68017578125,0.78173828125,27.500000000000004,-111.89024390243904,81.82926829268294,145,2
425,0.1025390625,0.6943359375,0.82763671875,22.98780487804878,-107.8658536585366,81.40243902439025,145,2
426,0.11328125,0.69091796875,0.84814453125,22.012195121951223,-105.97560975609757,81.58536585365854,145,2
427,0.11279296875,0.67138671875,0.82861328125,23.10975609756098,-105.1219512195122,81.64634146341464,145,2
428,0.12158203125,0.66943359375,0.7861328125,26.463414634146343,-106.28048780487806,81.82926829268294,145,2
429,0.14111328125,0.67041015625,0.7265625,30.365853658536587,-108.65853658536587,82.01219512195122,145,2
430,0.1806640625,0.6708984375,0.66650390625,33.47560975609756,-111.76829268292684,82.5609756097561,145,2
431,0.21435546875,0.69775390625,0.63330078125,35.36585365853659,-116.03658536585367,82.8658536585366,145,2
432,0.23779296875,0.68603515625,0.50048828125,36.463414634146346,-120.67073170731709,82.8658536585366,145,2
433,0.22802734375,0.65966796875,0.63232421875,32.01219512195122,-118.47560975609757,80.2439024390244,145,2
434,0.24560546875,0.689453125,0.7119140625,26.646341463414636,-115.1829268292683,78.29268292682927,145,2
435,0.25732421875,0.6748046875,0.75634765625,20.60975609756098,-110.54878048780489,76.89024390243902,145,2
436,0.2470703125,0.67626953125,0.77197265625,17.195121951219512,-107.07317073170732,76.58536585365854,145,2
437,0.23046875,0.6513671875,0.7900390625,16.646341463414636,-104.75609756097562,76.82926829268294,145,2
438,0.23583984375,0.66259765625,0.80419921875,17.926829268292686,-103.65853658536587,76.95121951219512,145,2
439,0.26904296875,0.67041015625,0.73876953125,19.695121951219512,-104.32926829268294,77.13414634146342,145,2
440,0.296875,0.67333984375,0.67919921875,20.48780487804878,-107.07317073170732,77.25609756097562,145,2
441,0.32080078125,0.6728515625,0.6220703125,19.75609756097561,-110.54878048780489,77.25609756097562,145,2
442,0.33984375,0.646484375,0.56982421875,19.878048780487806,-114.81707317073172,76.70731707317074,145,2
443,0.37548828125,0.625,0.603515625,17.378048780487806,-115.60975609756099,75.54878048780489,145,2
444,0.3798828125,0.57861328125,0.6787109375,10.487804878048781,-111.76829268292684,73.78048780487805,145,2
445,0.39208984375,0.54345703125,0.76416015625,4.75609756097561,-107.56097560975611,73.84146341463415,145,2
446,0.3671875,0.5048828125,0.8173828125,3.8414634146341466,-104.39024390243904,73.84146341463415,145,2
447,0.337890625,0.49462890625,0.8203125,5.060975609756098,-101.82926829268294,74.32926829268294,145,2
448,0.3544921875,0.50732421875,0.775390625,7.682926829268293,-100.1829268292683,75.0,145,2
449,0.38134765625,0.5029296875,0.68701171875,10.609756097560977,-101.28048780487806,76.09756097560977,145,2
450,0.40478515625,0.5,0.61962890625,13.231707317073171,-101.89024390243904,76.58536585365854,145,2
451,0.43115234375,0.48046875,0.564453125,14.390243902439027,-102.13414634146342,77.7439024390244,145,2
452,0.4609375,0.4951171875,0.52685546875,13.658536585365855,-102.19512195121952,78.96341463414635,145,2
453,0.466796875,0.48828125,0.490234375,9.756097560975611,-101.09756097560977,79.45121951219512,145,2
454,0.48974609375,0.5048828125,0.4931640625,3.4756097560975614,-98.41463414634147,79.20731707317074,145,2
455,0.37744140625,0.48974609375,0.52685546875,-1.829268292682927,-95.42682926829269,78.35365853658537,145,2
456,0.5205078125,0.3818359375,0.60791015625,-3.353658536585366,-92.5609756097561,76.46341463414635,145,2
457,0.5390625,0.5322265625,0.69873046875,-0.9756097560975611,-91.40243902439025,74.63414634146342,145,2
458,0.5556640625,0.546875,0.72900390625,2.8658536585365857,-88.71951219512196,71.89024390243902,145,2
459,0.580078125,0.55859375,0.736328125,6.890243902439025,-86.21951219512196,68.90243902439025,145,2
460,0.59521484375,0.5654296875,0.67822265625,10.060975609756099,-85.1219512195122,66.52439024390245,145,2
461,0.5859375,0.55712890625,0.59912109375,13.29268292682927,-84.39024390243902,64.32926829268293,145,2
462,0.5810546875,0.533203125,0.52783203125,19.26829268292683,-85.60975609756099,62.6219512195122,145,2
463,0.57568359375,0.52880859375,0.51708984375,22.134146341463417,-82.98780487804879,60.365853658536594,145,2
464,0.61669921875,0.52685546875,0.4931640625,19.390243902439025,-79.14634146341464,58.78048780487806,145,2
465,0.64306640625,0.54150390625,0.46630859375,13.78048780487805,-75.97560975609757,57.926829268292686,145,2
466,0.64111328125,0.53515625,0.46484375,10.731707317073171,-73.59756097560977,56.82926829268293,145,2
467,0.64990234375,0.53955078125,0.3759765625,9.451219512195122,-70.79268292682927,54.39024390243903,145,2
468,0.66357421875,0.55322265625,0.5498046875,9.817073170731708,-69.69512195121952,52.6829268292683,145,2
469,0.65185546875,0.541015625,0.50244140625,10.609756097560977,-68.35365853658537,50.79268292682927,145,2
470,0.6396484375,0.54248046875,0.48046875,9.573170731707318,-65.67073170731707,46.951219512195124,145,2
471,0.6640625,0.5439453125,0.49267578125,9.390243902439025,-63.17073170731708,43.29268292682927,145,2
472,0.67138671875,0.54150390625,0.517578125,10.182926829268293,-59.39024390243903,40.0,145,2
473,0.6689453125,0.52001953125,0.5302734375,6.585365853658537,-52.37804878048781,35.609756097560975,145,2
474,0.66259765625,0.5224609375,0.52783203125,1.829268292682927,-45.36585365853659,32.19512195121951,145,2
475,0.6396484375,0.517578125,0.5263671875,-1.0975609756097562,-41.524390243902445,29.75609756097561,145,2
476,0.6318359375,0.5185546875,0.48974609375,-2.439024390243903,-39.024390243902445,27.378048780487806,145,2
477,0.60986328125,0.48828125,0.4560546875,-2.987804878048781,-36.768292682926834,24.512195121951223,145,2
478,0.60498046875,0.49169921875,0.43701171875,-4.024390243902439,-34.390243902439025,22.195121951219512,145,2
479,0.61669921875,0.37939453125,0.46435546875,-4.634146341463415,-31.52439024390244,19.390243902439025,145,2
480,0.61669921875,0.490234375,0.4521484375,-5.548780487804878,-28.475609756097562,17.073170731707318,145,2
481,0.60302734375,0.466796875,0.43212890625,-5.426829268292684,-26.82926829268293,14.756097560975611,145,2
482,0.58447265625,0.45068359375,0.4287109375,-4.2682926829268295,-23.719512195121954,12.073170731707318,145,2
483,0.60546875,0.47265625,0.4609375,-4.878048780487806,-19.146341463414636,9.451219512195122,145,2
484,0.62158203125,0.486328125,0.4619140625,-7.134146341463415,-13.841463414634148,7.8048780487804885,145,2
485,0.60888671875,0.4794921875,0.458984375,-8.475609756097562,-9.634146341463415,6.707317073170732,145,2
486,0.59130859375,0.4765625,0.44384765625,-8.475609756097562,-5.7926829268292686,5.3048780487804885,145,2
487,0.59619140625,0.470703125,0.42822265625,-7.987804878048781,-3.1707317073170733,3.658536585365854,145,2
488,0.61474609375,0.4697265625,0.431640625,-6.707317073170732,-0.5487804878048781,1.4634146341463417,145,2
489,0.61669921875,0.462890625,0.43505859375,-6.036585365853659,1.524390243902439,-0.853658536585366,145,2
490,0.63232421875,0.46826171875,0.4365234375,-5.365853658536586,3.7195121951219514,-3.5975609756097566,145,2
491,0.64208984375,0.44873046875,0.412109375,-4.451219512195122,4.2682926829268295,-5.670731707317073,145,2
492,0.63232421875,0.4404296875,0.39990234375,-4.51219512195122,6.2804878048780495,-9.02439024390244,145,2
493,0.6640625,0.46044921875,0.40234375,-5.7926829268292686,8.963414634146343,-12.195121951219512,145,2
494,0.70556640625,0.47998046875,0.4208984375,-9.329268292682928,12.682926829268293,-14.756097560975611,145,2
495,0.6904296875,0.46630859375,0.42333984375,-12.195121951219512,15.975609756097562,-16.646341463414636,145,2
496,0.669921875,0.44873046875,0.42041015625,-14.146341463414636,18.719512195121954,-18.53658536585366,145,2
497,0.65869140625,0.42919921875,0.41748046875,-13.536585365853659,20.975609756097562,-20.243902439024392,145,2
498,0.64794921875,0.4228515625,0.4169921875,-11.463414634146343,21.585365853658537,-21.585365853658537,145,2
499,0.63671875,0.40673828125,0.40478515625,-9.451219512195122,23.84146341463415,-23.658536585365855,145,2
