,Ax,Ay,Az,Gx,Gy,Gz,distance,shot_type
0,0.74951171875,-0.716796875,-0.3857421875,12.195121951219512,-20.670731707317074,14.207317073170733,135,2
1,0.318359375,-0.89599609375,-0.26416015625,4.573170731707317,-9.26829268292683,9.573170731707318,135,2
2,0.52392578125,-0.47900390625,-0.14306640625,5.121951219512195,-5.975609756097562,-2.3170731707317076,135,2
3,0.88525390625,-0.1494140625,-0.162109375,5.121951219512195,-5.853658536585367,2.1341463414634148,135,2
4,0.76513671875,-0.306640625,-0.2119140625,15.365853658536587,-2.9268292682926833,4.573170731707317,135,2
5,0.6435546875,-0.5419921875,-0.22265625,-0.7926829268292683,-5.609756097560976,3.780487804878049,135,2
6,0.55029296875,-0.5380859375,-0.15234375,14.207317073170733,-17.926829268292686,2.25609756097561,135,2
7,0.6845703125,-0.447265625,-0.173828125,30.670731707317074,-25.670731707317074,0.7926829268292683,135,2
8,0.7626953125,-0.39013671875,-0.2724609375,33.23170731707317,-25.182926829268293,0.426829268292683,135,2
9,0.7373046875,-0.40869140625,-0.33203125,27.378048780487806,-21.707317073170735,-0.30487804878048785,135,2
10,0.736328125,-0.48095703125,-0.35791015625,22.5609756097561,-18.353658536585368,-0.6707317073170732,135,2
11,0.8720703125,-0.48681640625,-0.33056640625,18.53658536585366,-13.109756097560977,-1.3414634146341464,135,2
12,0.71142578125,-0.4638671875,-0.25927734375,14.390243902439027,-7.317073170731708,-3.353658536585366,135,2
13,0.73876953125,-0.39306640625,-0.22705078125,11.646341463414634,-4.451219512195122,-5.182926829268293,135,2
14,0.74658203125,-0.36669921875,-0.2333984375,9.573170731707318,-1.9512195121951221,-4.207317073170732,135,2
15,0.7236328125,-0.4130859375,-0.2392578125,7.195121951219513,15.54878048780488,-3.963414634146342,135,2
16,0.671875,-0.45166015625,-0.21240234375,10.182926829268293,-2.0121951219512195,-3.536585365853659,135,2
17,0.63427734375,-0.4853515625,-0.19580078125,16.463414634146343,-5.426829268292684,-4.085365853658537,135,2
18,0.66650390625,-0.45068359375,-0.18115234375,19.451219512195124,-5.487804878048781,-4.51219512195122,135,2
19,0.6689453125,-0.42236328125,-0.21044921875,20.121951219512198,-4.085365853658537,-5.2439024390243905,135,2
20,0.68798828125,-0.42138671875,-0.2373046875,21.82926829268293,-4.024390243902439,-7.073170731707318,135,2
21,0.71630859375,-0.400390625,-0.2734375,23.170731707317074,-2.682926829268293,-8.536585365853659,135,2
22,0.7255859375,-0.38623046875,-0.29150390625,20.79268292682927,0.30487804878048785,-8.963414634146343,135,2
23,0.73828125,-0.3916015625,-0.29052734375,16.585365853658537,3.658536585365854,-9.573170731707318,135,2
24,0.73388671875,-0.4306640625,-0.2841796875,12.560975609756099,6.219512195121951,-9.695121951219512,135,2
25,0.7041015625,-0.45751953125,-0.2978515625,10.609756097560977,6.7682926829268295,-10.30487804878049,135,2
26,0.6865234375,-0.48681640625,-0.291015625,10.914634146341465,5.548780487804878,-10.30487804878049,135,2
27,0.6767578125,-0.5205078125,-0.25830078125,12.256097560975611,3.658536585365854,-11.036585365853659,135,2
28,0.70166015625,-0.5654296875,-0.27685546875,13.536585365853659,2.804878048780488,-11.341463414634147,135,2
29,0.6962890625,-0.59375,-0.30859375,15.000000000000002,0.1829268292682927,-11.585365853658537,135,2
30,0.6806640625,-0.62939453125,-0.3359375,16.82926829268293,-2.682926829268293,-12.80487804878049,135,2
31,0.70751953125,-0.61376953125,-0.34765625,18.04878048780488,-3.658536585365854,-13.170731707317074,135,2
32,0.70947265625,-0.5009765625,-0.3466796875,16.890243902439025,-2.8658536585365857,-11.951219512195124,135,2
33,0.69482421875,-0.65625,-0.3662109375,15.060975609756099,-1.524390243902439,-9.817073170731708,135,2
34,0.66748046875,-0.66162109375,-0.36767578125,12.621951219512196,-0.48780487804878053,-7.743902439024391,135,2
35,0.66943359375,-0.63427734375,-0.34326171875,9.146341463414634,1.1585365853658538,-4.634146341463415,135,2
36,0.6357421875,-0.6318359375,-0.32373046875,6.52439024390244,2.1341463414634148,-1.1585365853658538,135,2
37,0.60546875,-0.6572265625,-0.31494140625,5.487804878048781,2.378048780487805,1.3414634146341464,135,2
38,0.5947265625,-0.6708984375,-0.31494140625,3.414634146341464,2.987804878048781,3.231707317073171,135,2
39,0.58642578125,-0.6650390625,-0.3310546875,1.9512195121951221,3.353658536585366,4.695121951219512,135,2
40,0.6162109375,-0.65380859375,-0.31103515625,2.804878048780488,2.5,5.182926829268293,135,2
41,0.62158203125,-0.658203125,-0.29345703125,4.634146341463415,2.0121951219512195,5.609756097560976,135,2
42,0.60498046875,-0.6484375,-0.3076171875,5.182926829268293,1.402439024390244,6.52439024390244,135,2
43,0.587890625,-0.642578125,-0.32958984375,5.853658536585367,0.426829268292683,7.01219512195122,135,2
44,0.59375,-0.6259765625,-0.337890625,6.951219512195123,-1.0975609756097562,7.378048780487806,135,2
45,0.58203125,-0.6005859375,-0.31103515625,7.8048780487804885,-2.1341463414634148,7.621951219512196,135,2
46,0.58837890625,-0.5634765625,-0.31787109375,7.682926829268293,-2.1341463414634148,7.682926829268293,135,2
47,0.595703125,-0.53515625,-0.29931640625,6.402439024390245,-1.524390243902439,7.439024390243903,135,2
48,0.61572265625,-0.49609375,-0.28466796875,4.75609756097561,-0.1829268292682927,7.378048780487806,135,2
49,0.50048828125,-0.45849609375,-0.25244140625,4.085365853658537,0.30487804878048785,6.890243902439025,135,2
50,0.6376953125,-0.4443359375,-0.25146484375,4.085365853658537,0.48780487804878053,6.463414634146342,135,2
51,0.64013671875,-0.42724609375,-0.13037109375,5.182926829268293,0.3658536585365854,5.975609756097562,135,2
52,0.64697265625,-0.41357421875,-0.25439453125,6.158536585365854,0.9756097560975611,5.121951219512195,135,2
53,0.66845703125,-0.39794921875,-0.25732421875,7.621951219512196,1.6463414634146343,3.8414634146341466,135,2
54,0.68798828125,-0.498046875,-0.2626953125,8.109756097560977,2.804878048780488,2.682926829268293,135,2
55,0.7060546875,-0.3583984375,-0.2607421875,8.048780487804878,4.085365853658537,1.707317073170732,135,2
56,0.69384765625,-0.357421875,-0.2587890625,8.841463414634147,4.207317073170732,0.48780487804878053,135,2
57,0.70361328125,-0.3837890625,-0.23876953125,10.792682926829269,3.658536585365854,-0.24390243902439027,135,2
58,0.72314453125,-0.38427734375,-0.13623046875,10.731707317073171,3.4756097560975614,-0.9756097560975611,135,2
59,0.74267578125,-0.4990234375,-0.26806640625,10.426829268292684,3.353658536585366,-1.1585365853658538,135,2
60,0.75634765625,-0.41015625,-0.27001953125,8.658536585365855,4.75609756097561,-0.9756097560975611,135,2
61,0.73486328125,-0.45458984375,-0.26904296875,5.853658536585367,5.975609756097562,-1.829268292682927,135,2
62,0.740234375,-0.46826171875,-0.28515625,4.451219512195122,5.609756097560976,-2.9268292682926833,135,2
63,0.74853515625,-0.490234375,-0.2939453125,4.939024390243903,4.207317073170732,-3.780487804878049,135,2
64,0.716796875,-0.525390625,-0.26904296875,5.670731707317073,4.329268292682928,-4.207317073170732,135,2
65,0.7197265625,-0.54248046875,-0.224609375,5.182926829268293,5.182926829268293,-5.426829268292684,135,2
66,0.7197265625,-0.53662109375,-0.21484375,5.3048780487804885,5.975609756097562,-6.52439024390244,135,2
67,0.70703125,-0.5458984375,-0.1962890625,6.829268292682928,6.7682926829268295,-6.829268292682928,135,2
68,0.68359375,-0.560546875,-0.19970703125,6.951219512195123,7.621951219512196,-7.134146341463415,135,2
69,0.67333984375,-0.56591796875,-0.1796875,6.890243902439025,8.475609756097562,-7.134146341463415,135,2
70,0.68212890625,-0.55712890625,-0.18017578125,6.463414634146342,8.048780487804878,-7.439024390243903,135,2
71,0.68408203125,-0.548828125,-0.2001953125,6.707317073170732,9.26829268292683,-6.707317073170732,135,2
72,0.6826171875,-0.54931640625,-0.2080078125,6.158536585365854,10.792682926829269,-6.036585365853659,135,2
73,0.685546875,-0.55810546875,-0.20458984375,7.500000000000001,11.829268292682928,-5.609756097560976,135,2
74,0.69091796875,-0.57763671875,-0.18603515625,8.658536585365855,13.353658536585368,-4.634146341463415,135,2
75,0.67578125,-0.58984375,-0.171875,8.902439024390244,15.182926829268293,-3.2926829268292686,135,2
76,0.67919921875,-0.57763671875,-0.18994140625,9.085365853658537,17.865853658536587,-2.682926829268293,135,2
77,0.6767578125,-0.56640625,-0.17626953125,8.170731707317074,21.52439024390244,-2.073170731707317,135,2
78,0.6748046875,-0.548828125,-0.17529296875,7.378048780487806,24.695121951219516,-1.7682926829268295,135,2
79,0.67578125,-0.53857421875,-0.14208984375,6.036585365853659,28.231707317073173,-1.0365853658536586,135,2
80,0.6767578125,-0.5302734375,-0.13720703125,4.75609756097561,31.402439024390247,-15.609756097560977,135,2
81,0.67236328125,-0.54052734375,-0.1181640625,3.8414634146341466,33.71951219512196,0.7317073170731708,135,2
82,0.67333984375,-0.5322265625,-0.11474609375,3.9024390243902443,35.609756097560975,1.2804878048780488,135,2
83,0.666015625,-0.54345703125,-0.08837890625,4.51219512195122,37.19512195121951,2.3170731707317076,135,2
84,0.66650390625,-0.54541015625,-0.05810546875,6.463414634146342,37.926829268292686,3.4756097560975614,135,2
85,0.65966796875,-0.5576171875,-0.025390625,9.146341463414634,38.65853658536586,4.451219512195122,135,2
86,0.6767578125,-0.55419921875,-0.037109375,12.560975609756099,38.170731707317074,4.207317073170732,135,2
87,0.7216796875,-0.51611328125,-0.0498046875,14.695121951219514,39.207317073170735,4.451219512195122,135,2
88,0.73779296875,-0.50146484375,-0.056640625,13.841463414634148,42.01219512195122,4.939024390243903,135,2
89,0.71923828125,-0.505859375,-0.05810546875,10.548780487804878,31.280487804878053,6.097560975609756,135,2
90,0.6826171875,-0.53369140625,-0.072265625,4.146341463414634,51.89024390243903,7.195121951219513,135,2
91,0.6689453125,-0.51708984375,-0.10791015625,15.487804878048783,56.524390243902445,7.439024390243903,135,2
92,0.69970703125,-0.4873046875,-0.0966796875,-2.0121951219512195,59.51219512195122,6.829268292682928,135,2
93,0.69873046875,-0.46533203125,-0.1025390625,-2.378048780487805,59.085365853658544,5.548780487804878,135,2
94,0.6904296875,-0.4716796875,-0.14013671875,-0.6707317073170732,57.6219512195122,4.939024390243903,135,2
95,0.734375,-0.49365234375,-0.08544921875,15.182926829268293,61.15853658536586,6.2804878048780495,135,2
96,0.72314453125,-0.52001953125,-0.0224609375,-7.195121951219513,68.53658536585367,7.560975609756098,135,2
97,0.69580078125,-0.52197265625,-0.03955078125,-16.402439024390244,74.69512195121952,6.951219512195123,135,2
98,0.6943359375,-0.5087890625,-0.08447265625,-20.0,76.34146341463415,8.170731707317074,135,2
99,0.6796875,-0.53271484375,-0.12158203125,-20.48780487804878,76.03658536585367,10.792682926829269,135,2
100,0.6845703125,-0.5380859375,-0.140625,-22.25609756097561,77.37804878048782,13.04878048780488,135,2
101,0.70849609375,-0.52685546875,-0.177734375,-29.451219512195124,83.10975609756099,14.695121951219514,135,2
102,0.72021484375,-0.478515625,-0.1767578125,-38.78048780487805,92.25609756097562,0.06097560975609757,135,2
103,0.74072265625,-0.427734375,-0.1328125,-47.987804878048784,99.57317073170732,16.402439024390244,135,2
104,0.7392578125,-0.3974609375,-0.13330078125,-54.268292682926834,103.71951219512196,17.5609756097561,135,2
105,0.71337890625,-0.4208984375,-0.12353515625,-57.6219512195122,105.54878048780489,18.902439024390244,135,2
106,0.6806640625,-0.4462890625,-0.14453125,-60.67073170731708,106.64634146341464,19.451219512195124,135,2
107,0.70751953125,-0.39892578125,-0.13623046875,-59.32926829268293,103.29268292682927,19.75609756097561,135,2
108,0.74462890625,-0.38916015625,-0.14111328125,-57.43902439024391,99.14634146341464,21.34146341463415,135,2
109,0.7646484375,-0.38671875,-0.1953125,-53.71951219512196,91.82926829268294,21.52439024390244,135,2
110,0.759765625,-0.39599609375,-0.26318359375,-53.53658536585366,89.93902439024392,20.182926829268293,135,2
111,0.7529296875,-0.34375,-0.30029296875,-54.51219512195122,85.2439024390244,17.378048780487806,135,2
112,0.77978515625,-0.29150390625,-0.28662109375,-57.865853658536594,84.93902439024392,13.475609756097562,135,2
113,0.8173828125,-0.2734375,-0.30322265625,-65.3658536585366,86.95121951219512,10.548780487804878,135,2
114,0.79931640625,-0.27392578125,-0.31103515625,-72.37804878048782,88.23170731707317,8.536585365853659,135,2
115,0.77001953125,-0.30126953125,-0.322265625,-76.76829268292684,88.41463414634147,6.097560975609756,135,2
116,0.734375,-0.31396484375,-0.27734375,-78.47560975609757,85.73170731707317,4.024390243902439,135,2
117,0.70556640625,-0.31298828125,-0.29150390625,-75.79268292682927,79.45121951219512,1.9512195121951221,135,2
118,0.712890625,-0.28173828125,-0.28466796875,-71.82926829268294,74.02439024390245,0.30487804878048785,135,2
119,0.71923828125,-0.26025390625,-0.2783203125,-70.73170731707317,68.84146341463415,-1.9512195121951221,135,2
120,0.7236328125,-0.2236328125,-0.31298828125,-71.82926829268294,66.52439024390245,-5.426829268292684,135,2
121,0.7333984375,-0.2109375,-0.318359375,-74.75609756097562,65.0609756097561,-8.414634146341465,135,2
122,0.7451171875,-0.1943359375,-0.31640625,-78.04878048780489,62.926829268292686,-11.829268292682928,135,2
123,0.7587890625,-0.1865234375,-0.3564453125,-80.3658536585366,59.451219512195124,-14.756097560975611,135,2
124,0.771484375,-0.18115234375,-0.33447265625,-80.97560975609757,56.03658536585366,-17.865853658536587,135,2
125,0.7705078125,-0.2041015625,-0.36083984375,-82.13414634146342,53.53658536585366,-20.731707317073173,135,2
126,0.736328125,-0.2119140625,-0.3466796875,-84.26829268292684,52.19512195121952,-23.231707317073173,135,2
127,0.76318359375,-0.1923828125,-0.35888671875,-85.3048780487805,49.39024390243903,-26.707317073170735,135,2
128,0.78173828125,-0.15234375,-0.35986328125,-87.13414634146342,45.85365853658537,-29.207317073170735,135,2
129,0.798828125,-0.25,-0.36962890625,-90.85365853658537,44.57317073170732,-31.82926829268293,135,2
130,0.8076171875,-0.1083984375,-0.388671875,-96.58536585365854,44.81707317073171,-35.426829268292686,135,2
131,0.8076171875,-0.10302734375,-0.3916015625,-102.43902439024392,45.426829268292686,-39.268292682926834,135,2
132,0.818359375,-0.10009765625,-0.37548828125,-107.6219512195122,45.54878048780488,-42.804878048780495,135,2
133,0.81005859375,-0.14013671875,-0.35546875,-110.60975609756099,44.451219512195124,-46.15853658536586,135,2
134,0.79296875,-0.1484375,-0.326171875,-111.15853658536587,42.37804878048781,-48.59756097560976,135,2
135,0.79248046875,-0.13818359375,-0.3310546875,-112.07317073170732,39.51219512195122,-52.07317073170732,135,2
136,0.80419921875,-0.11083984375,-0.36572265625,-114.87804878048782,38.29268292682927,-55.97560975609757,135,2
137,0.80859375,-0.11181640625,-0.365234375,-118.10975609756099,36.40243902439025,-59.39024390243903,135,2
138,0.83056640625,-0.109375,-0.36669921875,-119.57317073170732,33.963414634146346,-62.19512195121952,135,2
139,0.8515625,-0.11181640625,-0.25146484375,-121.52439024390245,32.80487804878049,-66.15853658536587,135,2
140,0.99755859375,-0.1064453125,-0.34765625,-124.51219512195124,31.951219512195124,-69.75609756097562,135,2
141,0.89013671875,-0.1142578125,-0.35546875,-127.8658536585366,31.58536585365854,-73.17073170731707,135,2
142,0.8759765625,-0.00341796875,-0.3525390625,-130.91463414634148,31.03658536585366,-76.34146341463415,135,2
143,0.88232421875,-0.25,-0.36962890625,-134.39024390243904,30.731707317073173,-79.57317073170732,135,2
144,0.87890625,-0.12548828125,-0.34130859375,-136.46341463414635,30.792682926829272,-83.10975609756099,135,2
145,0.91748046875,-0.1142578125,-0.3466796875,-137.5609756097561,29.939024390243905,-85.79268292682927,135,2
146,0.94384765625,-0.107421875,-0.33251953125,-139.75609756097563,30.000000000000004,-88.59756097560977,135,2
147,0.955078125,-0.109375,-0.38720703125,-141.95121951219514,29.32926829268293,-92.43902439024392,135,2
148,0.97216796875,-0.09716796875,-0.49755859375,-144.69512195121953,29.939024390243905,-96.95121951219512,135,2
149,0.9931640625,-0.087890625,-0.38037109375,-147.9268292682927,29.81707317073171,-100.67073170731709,135,2
150,1.0029296875,-0.08056640625,-0.3759765625,-152.6829268292683,32.01219512195122,-105.1219512195122,135,2
151,1.0,-0.09130859375,-0.396484375,-159.45121951219514,35.609756097560975,-109.69512195121952,135,2
152,1.005859375,-0.10693359375,-0.392578125,-165.1219512195122,39.81707317073171,-113.78048780487806,135,2
153,0.9990234375,-0.15771484375,-0.4013671875,-166.82926829268294,42.31707317073171,-116.15853658536587,135,2
154,0.98779296875,-0.1669921875,-0.37109375,-165.1829268292683,42.86585365853659,-118.84146341463416,135,2
155,1.0205078125,-0.16259765625,-0.37060546875,-163.2317073170732,42.25609756097561,-120.54878048780489,135,2
156,1.02392578125,-0.1611328125,-0.388671875,-162.01219512195124,42.07317073170732,-121.76829268292684,135,2
157,1.01611328125,-0.1669921875,-0.3759765625,-162.25609756097563,41.463414634146346,-123.41463414634147,135,2
158,1.0205078125,-0.16162109375,-0.3701171875,-163.35365853658539,41.463414634146346,-126.09756097560977,135,2
159,1.03515625,-0.14404296875,-0.35205078125,-164.02439024390245,41.768292682926834,-128.71951219512195,135,2
160,1.06298828125,-0.14599609375,-0.328125,-163.71951219512198,41.21951219512196,-131.58536585365854,135,2
161,1.0966796875,-0.150390625,-0.31884765625,-163.47560975609758,40.60975609756098,-134.75609756097563,135,2
162,1.11181640625,-0.14453125,-0.31103515625,-161.03658536585368,39.57317073170732,-138.96341463414635,135,2
163,1.162109375,-0.0869140625,-0.2900390625,-158.109756097561,38.90243902439025,-142.8658536585366,135,2
164,1.20556640625,-0.05126953125,-0.291015625,-159.08536585365854,38.71951219512196,-146.21951219512195,135,2
165,1.236328125,-0.03369140625,-0.28857421875,-162.19512195121953,40.0609756097561,-150.2439024390244,135,2
166,1.12841796875,-0.00830078125,-0.2744140625,-163.2926829268293,40.73170731707317,-154.26829268292684,135,2
167,1.259765625,-0.00537109375,-0.234375,-161.09756097560978,39.51219512195122,-157.37804878048783,135,2
168,1.2802734375,0.00927734375,-0.22900390625,-156.34146341463415,36.463414634146346,-159.93902439024393,135,2
169,1.28173828125,0.02001953125,-0.2421875,-151.70731707317074,32.37804878048781,-163.109756097561,135,2
170,1.28076171875,0.03271484375,-0.232421875,-145.97560975609758,31.463414634146343,-165.609756097561,135,2
171,1.33544921875,0.09423828125,-0.23291015625,-142.6219512195122,32.19512195121951,-168.96341463414635,135,2
172,1.404296875,0.17578125,-0.23583984375,-144.26829268292684,34.57317073170732,-171.15853658536588,135,2
173,1.451171875,0.19921875,-0.29541015625,-150.609756097561,37.07317073170732,-174.57317073170734,135,2
174,1.45361328125,0.21923828125,-0.2568359375,-151.52439024390245,38.963414634146346,-178.41463414634148,135,2
175,1.49853515625,0.201171875,-0.2607421875,-148.96341463414635,37.743902439024396,-181.76829268292684,135,2
176,1.54052734375,0.21875,-0.248046875,-143.71951219512195,37.6219512195122,-185.6707317073171,135,2
177,1.568359375,0.208984375,-0.2255859375,-139.14634146341464,35.73170731707317,-189.14634146341464,135,2
178,1.5625,0.2001953125,-0.203125,-134.32926829268294,35.79268292682927,-193.2317073170732,135,2
179,1.6396484375,0.2666015625,-0.15966796875,-129.51219512195124,37.01219512195122,-198.109756097561,135,2
180,1.71435546875,0.37939453125,-0.10693359375,-130.3658536585366,39.51219512195122,-187.43902439024393,135,2
181,1.71728515625,0.380859375,-0.07666015625,-137.6829268292683,46.03658536585366,-208.35365853658539,135,2
182,1.74169921875,0.40576171875,-0.04248046875,-143.65853658536588,52.31707317073171,-213.59756097560978,135,2
183,1.7119140625,0.39306640625,0.0087890625,-145.1829268292683,55.243902439024396,-203.109756097561,135,2
184,1.70947265625,0.3603515625,-0.02197265625,-144.08536585365854,57.07317073170732,-222.7439024390244,135,2
185,1.7060546875,0.341796875,0.00537109375,-142.4390243902439,60.304878048780495,-226.82926829268294,135,2
186,1.70068359375,0.3154296875,0.0029296875,-138.47560975609758,61.15853658536586,-228.59756097560978,135,2
187,1.64990234375,0.28125,-0.0068359375,-133.90243902439025,60.60975609756098,-231.09756097560978,135,2
188,1.64990234375,0.34130859375,0.04443359375,-125.85365853658537,60.54878048780488,-218.59756097560978,135,2
189,1.6796875,0.3720703125,0.08056640625,-121.34146341463416,60.1829268292683,-237.31707317073173,135,2
190,1.67236328125,0.33447265625,0.0263671875,-118.65853658536587,61.21951219512196,-239.45121951219514,135,2
191,1.6591796875,0.33544921875,0.0888671875,-114.57317073170732,59.81707317073171,-242.37804878048783,135,2
192,1.62158203125,0.3349609375,0.1416015625,-111.34146341463416,57.6829268292683,-243.65853658536588,135,2
193,1.56689453125,0.328125,0.17578125,-107.07317073170732,57.07317073170732,-246.70731707317074,135,2
194,1.5439453125,0.33740234375,0.19091796875,-101.89024390243904,55.91463414634147,-248.35365853658539,135,2
195,1.5029296875,0.34423828125,0.2177734375,-95.3658536585366,55.365853658536594,-250.18292682926833,135,2
196,1.53173828125,0.34716796875,0.2744140625,-87.7439024390244,56.951219512195124,-252.43902439024393,135,2
197,1.55859375,0.35107421875,0.3037109375,-80.79268292682927,58.23170731707317,-254.39024390243904,135,2
198,1.60107421875,0.3193359375,0.279296875,-75.0,60.00000000000001,-255.18292682926833,135,2
199,1.58251953125,0.25830078125,0.2890625,-70.79268292682927,61.707317073170735,-255.4268292682927,135,2
200,1.53759765625,0.17431640625,0.29150390625,-66.52439024390245,62.43902439024391,-253.90243902439028,135,2
201,1.48291015625,0.10107421875,0.37060546875,-63.23170731707317,64.45121951219512,-252.9268292682927,135,2
202,1.41650390625,0.0478515625,0.21875,-61.40243902439025,65.97560975609757,-250.7926829268293,135,2
203,1.34130859375,0.01416015625,0.21240234375,-60.54878048780488,66.46341463414635,-247.50000000000003,135,2
204,1.2666015625,-0.04638671875,0.21826171875,-60.54878048780488,67.07317073170732,-243.78048780487808,135,2
205,1.23583984375,-0.1357421875,0.1845703125,-60.67073170731708,68.10975609756098,-240.00000000000003,135,2
206,0.962890625,-0.1796875,0.171875,-59.451219512195124,68.29268292682927,-235.06097560975613,135,2
207,0.8203125,-0.208984375,0.14990234375,-56.89024390243903,69.69512195121952,-230.3048780487805,135,2
208,0.6943359375,-0.22802734375,0.16064453125,-55.1829268292683,72.13414634146342,-226.03658536585368,135,2
209,0.5908203125,-0.2734375,0.1455078125,-54.51219512195122,75.48780487804879,-219.26829268292684,135,2
210,0.46435546875,-0.32861328125,0.16015625,-51.03658536585366,76.64634146341464,-210.97560975609758,135,2
211,0.3583984375,-0.4208984375,0.2431640625,-41.890243902439025,73.04878048780489,-203.2317073170732,135,2
212,0.205078125,-0.3818359375,0.15478515625,-26.707317073170735,69.14634146341464,-195.4268292682927,135,2
213,0.197265625,-0.5205078125,0.2314453125,-10.30487804878049,77.6219512195122,-187.37804878048783,135,2
214,0.09033203125,-0.53076171875,0.24365234375,1.524390243902439,59.024390243902445,-178.96341463414635,135,2
215,0.06884765625,-0.625,0.27978515625,6.951219512195123,57.865853658536594,-172.6219512195122,135,2
216,0.03271484375,-0.5087890625,0.27490234375,6.52439024390244,59.75609756097562,-162.5609756097561,135,2
217,-0.03466796875,-0.54052734375,0.33837890625,0.1829268292682927,62.25609756097562,-151.95121951219514,135,2
218,-0.09814453125,-0.62939453125,0.3291015625,-7.682926829268293,66.40243902439025,-156.03658536585368,135,2
219,-0.1865234375,-0.76806640625,0.34228515625,-10.060975609756099,68.35365853658537,-127.8048780487805,135,2
220,-0.31201171875,-0.94091796875,0.2978515625,-5.670731707317073,65.79268292682927,-110.79268292682927,135,2
221,-0.275390625,-1.04931640625,0.248046875,5.3048780487804885,62.43902439024391,-95.00000000000001,135,2
222,-0.28662109375,-1.14794921875,0.2294921875,0.12195121951219513,56.951219512195124,-93.23170731707317,135,2
223,-0.53271484375,-1.17724609375,0.162109375,24.32926829268293,50.0609756097561,-59.268292682926834,135,2
224,-0.6455078125,-1.1875,0.23046875,28.963414634146343,43.78048780487805,-41.03658536585366,135,2
225,-0.6806640625,-1.212890625,0.3203125,29.451219512195124,41.58536585365854,-24.878048780487806,135,2
226,-0.61083984375,-1.23828125,0.35546875,30.121951219512198,41.58536585365854,-6.036585365853659,135,2
227,-0.66943359375,-1.3330078125,0.322265625,15.914634146341465,37.5,12.256097560975611,135,2
228,-0.66650390625,-1.43896484375,0.30859375,40.0609756097561,32.5609756097561,16.76829268292683,135,2
229,-0.54541015625,-1.54541015625,0.24658203125,52.804878048780495,25.54878048780488,53.65853658536586,135,2
230,-0.634765625,-1.52490234375,0.18896484375,68.53658536585367,16.585365853658537,71.40243902439025,135,2
231,-0.51513671875,-1.54833984375,0.17578125,82.92682926829269,9.02439024390244,88.78048780487805,135,2
232,-0.42236328125,-1.5458984375,0.14794921875,92.01219512195122,6.463414634146342,105.3048780487805,135,2
233,-0.33935546875,-1.5712890625,0.10107421875,97.07317073170732,8.109756097560977,124.45121951219514,135,2
234,-0.27783203125,-1.68115234375,0.05224609375,100.67073170731709,11.097560975609756,144.63414634146343,135,2
235,-0.18798828125,-1.83251953125,0.1005859375,107.43902439024392,13.109756097560977,167.19512195121953,135,2
236,-0.09912109375,-1.9814453125,0.1884765625,114.81707317073172,17.012195121951223,191.95121951219514,135,2
237,-0.03515625,-2.1513671875,0.27197265625,121.82926829268294,19.75609756097561,216.76829268292684,135,2
238,0.01416015625,-2.37353515625,0.31494140625,131.46341463414635,19.512195121951223,242.8048780487805,135,2
239,0.10400390625,-2.57373046875,0.31103515625,144.9390243902439,19.26829268292683,271.1585365853659,135,2
240,0.20166015625,-2.837890625,0.24365234375,157.6219512195122,22.98780487804878,299.32926829268297,135,2
241,0.3056640625,-3.10498046875,0.3662109375,170.85365853658539,27.621951219512198,331.5243902439025,135,2
242,0.45849609375,-3.4296875,0.19091796875,190.4878048780488,26.03658536585366,367.31707317073176,135,2
243,0.70947265625,-3.7294921875,0.00927734375,224.39024390243904,30.54878048780488,403.3536585365854,135,2
244,0.966796875,-4.07568359375,-0.11279296875,260.7926829268293,6.7682926829268295,422.9268292682927,135,2
245,1.44287109375,-4.26171875,-0.2880859375,293.2926829268293,-2.9268292682926833,472.43902439024396,135,2
246,2.025390625,-4.6787109375,-0.71240234375,297.25609756097566,-1.1585365853658538,503.4146341463415,135,2
247,2.7314453125,-4.89892578125,-0.85546875,321.70731707317077,18.170731707317074,524.2073170731708,135,2
248,3.32763671875,-5.23583984375,-0.625,324.0243902439025,45.97560975609756,532.3780487804878,135,2
249,4.13720703125,-5.4873046875,-0.58056640625,315.3048780487805,73.96341463414635,590.6707317073171,135,2
250,5.13916015625,-5.5810546875,-1.06201171875,307.13414634146346,119.45121951219514,627.6219512195122,135,2
251,5.95068359375,-5.32470703125,-1.8994140625,323.4146341463415,149.45121951219514,691.1585365853659,135,2
252,6.826171875,-4.99853515625,-2.56396484375,346.4024390243903,165.00000000000003,720.0000000000001,135,2
253,8.14990234375,-4.83154296875,-3.1572265625,350.3658536585366,164.45121951219514,789.6951219512196,135,2
254,8.646484375,-4.50634765625,-3.7998046875,338.5365853658537,165.00000000000003,836.0975609756098,135,2
255,9.68310546875,-3.677734375,-4.5205078125,354.93902439024396,135.2439024390244,870.8536585365854,135,2
256,10.470703125,-2.64892578125,-5.62158203125,404.39024390243907,51.28048780487806,875.548780487805,135,2
257,10.98876953125,-2.5390625,-6.1875,492.31707317073176,-28.475609756097562,849.1463414634147,135,2
258,10.85791015625,-2.060546875,-6.06396484375,587.3780487804878,-138.2317073170732,804.6341463414635,135,2
259,10.33740234375,-1.69677734375,-6.0263671875,711.0975609756098,-268.9634146341464,784.0853658536586,135,2
260,8.708984375,-2.71337890625,-6.767578125,894.2073170731708,-465.24390243902445,725.8536585365854,135,2
261,7.42626953125,-2.96826171875,-8.22607421875,1137.8048780487807,-672.6219512195122,632.8658536585366,135,2
262,6.81884765625,-2.40185546875,-8.6826171875,1404.6341463414635,-829.8780487804879,440.9146341463415,135,2
263,7.45654296875,-0.91015625,-9.875,1244.329268292683,-929.8780487804879,592.5,135,2
264,15.99951171875,-7.50146484375,4.83740234375,468.109756097561,-30.182926829268297,-157.9878048780488,135,2
265,2.7568359375,15.99951171875,-9.046875,1452.2560975609758,-333.109756097561,94.20731707317074,135,2
266,0.65234375,-0.2373046875,-8.72119140625,1039.878048780488,-366.76829268292687,-79.32926829268294,135,2
267,12.71484375,2.58349609375,2.04638671875,804.0243902439025,-98.78048780487806,-151.15853658536588,135,2
268,1.591796875,0.9599609375,-2.31787109375,946.829268292683,22.134146341463417,-233.1707317073171,135,2
269,3.45947265625,1.22802734375,0.22119140625,822.1951219512196,-145.97560975609758,-359.39024390243907,135,2
270,4.4814453125,0.95458984375,-2.03564453125,871.7073170731708,-168.35365853658539,-411.95121951219517,135,2
271,3.9423828125,-0.14501953125,-2.07177734375,809.8170731707318,-82.37804878048782,-507.50000000000006,135,2
272,3.681640625,-0.58935546875,-0.3828125,750.0609756097562,-82.50000000000001,-593.4756097560976,135,2
273,3.4189453125,-1.31884765625,-1.0,678.5365853658537,-38.78048780487805,-661.5853658536586,135,2
274,3.3046875,-1.15234375,-0.8671875,600.1829268292684,13.170731707317074,-706.0975609756098,135,2
275,3.14306640625,-1.30908203125,-1.19189453125,520.3658536585366,33.963414634146346,-736.0365853658537,135,2
276,3.19970703125,-1.12841796875,-1.43505859375,448.2317073170732,88.47560975609757,-753.8414634146342,135,2
277,3.1396484375,-1.23583984375,-1.54248046875,373.8414634146342,116.89024390243904,-754.0853658536586,135,2
278,2.7685546875,-1.36669921875,-1.3203125,284.8780487804878,164.08536585365854,-740.0000000000001,135,2
279,2.16455078125,-2.0830078125,-0.7578125,204.69512195121953,206.58536585365854,-710.0000000000001,135,2
280,1.94287109375,-2.25146484375,-0.65576171875,147.07317073170734,263.4146341463415,-662.9268292682927,135,2
281,1.7587890625,-2.03564453125,-0.7734375,138.90243902439025,281.3414634146342,-618.5365853658537,135,2
282,2.05029296875,-1.87255859375,-1.099609375,109.02439024390245,284.63414634146346,-579.939024390244,135,2
283,2.25244140625,-1.5966796875,-1.06689453125,50.00000000000001,276.76829268292687,-551.7682926829269,135,2
284,2.6171875,-1.6943359375,-0.90380859375,8.963414634146343,262.13414634146346,-532.7439024390244,135,2
285,2.26904296875,-1.78125,-0.63037109375,-30.182926829268297,275.2439024390244,-518.109756097561,135,2
286,2.09619140625,-1.97509765625,-0.3427734375,-69.02439024390245,301.3414634146342,-494.75609756097566,135,2
287,1.955078125,-2.0419921875,-0.26708984375,-105.73170731707317,317.8048780487805,-464.20731707317077,135,2
288,1.8291015625,-1.95263671875,-0.66259765625,-129.45121951219514,324.32926829268297,-427.50000000000006,135,2
289,1.5224609375,-1.87158203125,-0.82666015625,-132.9268292682927,319.63414634146346,-397.9268292682927,135,2
290,1.21728515625,-1.7890625,-0.80517578125,-114.51219512195122,305.4878048780488,-389.81707317073176,135,2
291,0.91015625,-1.54541015625,-0.78955078125,-99.45121951219512,290.4878048780488,-374.39024390243907,135,2
292,0.85107421875,-1.23583984375,-0.826171875,-102.7439024390244,286.219512195122,-346.1585365853659,135,2
293,0.8818359375,-0.83740234375,-0.91357421875,-123.65853658536587,290.5487804878049,-330.5487804878049,135,2
294,0.916015625,-0.53662109375,-0.8798828125,-153.2926829268293,302.9878048780488,-313.9634146341464,135,2
295,0.85791015625,-0.4873046875,-1.103515625,-175.00000000000003,314.93902439024396,-311.76829268292687,135,2
296,0.44921875,-0.53662109375,-1.2646484375,-182.13414634146343,315.3048780487805,-295.4268292682927,135,2
297,0.2939453125,-0.5908203125,-1.4033203125,-167.50000000000003,300.9146341463415,-262.9878048780488,135,2
298,0.158203125,-0.59912109375,-1.255859375,-143.59756097560978,282.5609756097561,-248.2926829268293,135,2
299,0.0146484375,-0.51318359375,-1.07568359375,-130.7926829268293,266.2804878048781,-249.45121951219514,135,2
300,-0.08740234375,-0.4814453125,-0.955078125,-134.63414634146343,252.25609756097563,-220.7926829268293,135,2
301,-0.09814453125,-0.21826171875,-0.87158203125,-147.01219512195124,248.35365853658539,-218.2926829268293,135,2
302,-0.1826171875,-0.150390625,-0.78369140625,-166.64634146341464,242.43902439024393,-184.14634146341464,135,2
303,-0.33154296875,-0.1865234375,-0.826171875,-173.84146341463415,234.20731707317074,-166.40243902439025,135,2
304,-0.4892578125,-0.25732421875,-0.736328125,-177.07317073170734,226.03658536585368,-155.1219512195122,135,2
305,-0.61328125,-0.2734375,-0.6767578125,-174.14634146341464,215.5487804878049,-146.82926829268294,135,2
306,-0.58642578125,-0.19921875,-0.70166015625,-168.71951219512198,204.14634146341464,-139.32926829268294,135,2
307,-0.49951171875,-0.1181640625,-0.72412109375,-166.34146341463415,195.3048780487805,-133.90243902439025,135,2
308,-0.46044921875,-0.0361328125,-0.74169921875,-164.75609756097563,188.41463414634148,-127.31707317073172,135,2
309,-0.4921875,0.0283203125,-0.5302734375,-168.59756097560978,183.71951219512198,-120.60975609756099,135,2
310,-0.5966796875,0.01025390625,-0.4453125,-172.31707317073173,180.7317073170732,-110.73170731707319,135,2
311,-0.732421875,-0.07861328125,-0.34912109375,-168.41463414634148,174.14634146341464,-100.2439024390244,135,2
312,-0.85107421875,-0.0849609375,-0.27685546875,-171.70731707317074,187.25609756097563,-87.92682926829269,135,2
313,-0.89111328125,-0.115234375,-0.3193359375,-151.46341463414635,174.02439024390245,-79.26829268292684,135,2
314,-1.08056640625,-0.3046875,-0.43212890625,-145.5487804878049,160.0,-84.81707317073172,135,2
315,-0.79443359375,0.00927734375,-0.39501953125,-122.92682926829269,140.5487804878049,-85.3048780487805,135,2
316,-0.79296875,0.1142578125,-0.5400390625,-96.40243902439025,137.9878048780488,-80.91463414634147,135,2
317,-0.7998046875,0.24072265625,-0.53759765625,-90.1219512195122,131.46341463414635,-78.78048780487805,135,2
318,-0.78125,0.3095703125,-0.3828125,-88.53658536585367,140.1829268292683,-76.70731707317074,135,2
319,-0.84765625,0.33056640625,-0.55322265625,-86.40243902439025,116.46341463414635,-67.01219512195122,135,2
320,-1.09716796875,0.17724609375,-0.52587890625,-78.90243902439025,110.1829268292683,-57.926829268292686,135,2
321,-1.22705078125,0.04052734375,-0.3798828125,-77.31707317073172,104.08536585365854,-51.28048780487806,135,2
322,-1.31591796875,-0.05078125,-0.43701171875,-72.8658536585366,98.47560975609757,-47.987804878048784,135,2
323,-1.279296875,-0.0400390625,-0.44287109375,-67.7439024390244,90.97560975609757,-45.79268292682927,135,2
324,-1.15576171875,0.05126953125,-0.3720703125,-64.02439024390245,81.70731707317074,-41.28048780487805,135,2
325,-1.00048828125,0.0908203125,-0.357421875,-59.268292682926834,71.76829268292684,-37.6219512195122,135,2
326,-1.10595703125,0.1142578125,-0.37109375,-57.01219512195122,63.65853658536586,-34.451219512195124,135,2
327,-1.11474609375,0.1611328125,-0.40673828125,-51.463414634146346,55.60975609756098,-31.76829268292683,135,2
328,-1.24658203125,0.162109375,-0.4482421875,-62.31707317073171,46.951219512195124,-29.08536585365854,135,2
329,-1.11376953125,0.18212890625,-0.41943359375,-41.890243902439025,39.57317073170732,-25.54878048780488,135,2
330,-1.1162109375,0.16796875,-0.412109375,-41.58536585365854,32.926829268292686,-21.097560975609756,135,2
331,-1.17578125,0.10400390625,-0.38720703125,-43.41463414634147,25.853658536585368,-16.463414634146343,135,2
332,-1.21728515625,0.01708984375,-0.3486328125,-40.426829268292686,20.54878048780488,-11.646341463414634,135,2
333,-1.30126953125,-0.04736328125,-0.31884765625,-36.463414634146346,11.646341463414634,-7.134146341463415,135,2
334,-1.2998046875,-0.06787109375,-0.26318359375,-30.182926829268297,3.414634146341464,-2.25609756097561,135,2
335,-1.30224609375,-0.05126953125,-0.23876953125,-25.0609756097561,-2.987804878048781,3.231707317073171,135,2
336,-1.2958984375,-0.00244140625,-0.22802734375,-20.853658536585368,-7.621951219512196,8.475609756097562,135,2
337,-1.37158203125,0.041015625,-0.24951171875,-31.09756097560976,-13.231707317073171,13.353658536585368,135,2
338,-1.1904296875,0.0751953125,-0.26025390625,-9.390243902439025,-18.78048780487805,17.5609756097561,135,2
339,-1.134765625,0.00146484375,-0.21630859375,-3.231707317073171,-23.29268292682927,21.402439024390247,135,2
340,-1.13623046875,0.11083984375,-0.220703125,-2.1341463414634148,-28.414634146341466,24.02439024390244,135,2
341,-1.0859375,0.15087890625,-0.2158203125,-0.06097560975609757,-31.402439024390247,25.30487804878049,135,2
342,-1.07177734375,0.15283203125,-0.16748046875,0.9756097560975611,-35.85365853658537,27.073170731707318,135,2
343,-1.08056640625,0.13134765625,-0.14306640625,3.2926829268292686,-40.60975609756098,27.80487804878049,135,2
344,-1.0791015625,0.1220703125,-0.0986328125,7.378048780487806,-45.00000000000001,28.658536585365855,135,2
345,-1.06298828125,0.1826171875,-0.0673828125,11.28048780487805,-48.29268292682927,29.695121951219516,135,2
346,-1.06494140625,0.18505859375,-0.0810546875,15.000000000000002,-50.60975609756098,31.463414634146343,135,2
347,-1.0458984375,0.22119140625,-0.07421875,19.634146341463417,-52.987804878048784,32.01219512195122,135,2
348,-1.021484375,0.23974609375,-0.04638671875,23.719512195121954,-53.10975609756098,33.109756097560975,135,2
349,-1.12451171875,0.26025390625,-0.03759765625,25.731707317073173,-54.146341463414636,34.207317073170735,135,2
350,-0.9970703125,0.27490234375,-0.0234375,27.25609756097561,-54.51219512195122,35.487804878048784,135,2
351,-0.9814453125,0.28515625,0.02294921875,29.02439024390244,-56.34146341463415,36.58536585365854,135,2
352,-0.97705078125,0.29248046875,0.03076171875,29.81707317073171,-59.085365853658544,37.987804878048784,135,2
353,-0.96826171875,0.29541015625,0.03271484375,30.365853658536587,-46.89024390243903,38.29268292682927,135,2
354,-0.9794921875,0.29736328125,0.0078125,31.03658536585366,-67.5,37.987804878048784,135,2
355,-0.97412109375,0.30615234375,0.01708984375,32.743902439024396,-72.8048780487805,37.86585365853659,135,2
356,-0.9833984375,0.2939453125,0.02392578125,34.63414634146342,-78.41463414634147,38.23170731707317,135,2
357,-0.9833984375,0.2900390625,0.04248046875,34.51219512195122,-81.03658536585367,38.53658536585366,135,2
358,-0.96630859375,0.28369140625,0.07373046875,34.51219512195122,-83.78048780487805,39.146341463414636,135,2
359,-0.9619140625,0.2939453125,0.0966796875,34.146341463414636,-86.34146341463415,40.304878048780495,135,2
360,-0.94287109375,0.275390625,0.11962890625,34.451219512195124,-89.02439024390245,41.463414634146346,135,2
361,-0.92822265625,0.2802734375,0.14794921875,35.0609756097561,-91.58536585365854,42.37804878048781,135,2
362,-0.91357421875,0.2880859375,0.17041015625,34.63414634146342,-93.10975609756099,43.04878048780488,135,2
363,-0.91259765625,0.31689453125,0.18408203125,32.86585365853659,-93.23170731707317,43.41463414634147,135,2
364,-0.8994140625,0.36279296875,0.19873046875,29.634146341463417,-92.8658536585366,43.35365853658537,135,2
365,-0.880859375,0.39599609375,0.18212890625,26.158536585365855,-93.29268292682927,43.10975609756098,135,2
366,-0.876953125,0.4013671875,0.1787109375,23.658536585365855,-96.76829268292684,42.804878048780495,135,2
367,-0.8857421875,0.37744140625,0.16748046875,24.32926829268293,-99.08536585365854,41.03658536585366,135,2
368,-0.8779296875,0.37744140625,0.1953125,26.58536585365854,-101.89024390243904,39.81707317073171,135,2
369,-0.85986328125,0.39306640625,0.20654296875,29.39024390243903,-104.93902439024392,39.63414634146342,135,2
370,-0.83203125,0.40478515625,0.24755859375,32.07317073170732,-107.98780487804879,40.79268292682927,135,2
371,-0.82763671875,0.39013671875,0.265625,34.75609756097561,-109.69512195121952,41.82926829268293,135,2
372,-0.8232421875,0.3818359375,0.28466796875,36.15853658536586,-109.39024390243904,42.743902439024396,135,2
373,-0.80712890625,0.38720703125,0.2939453125,34.32926829268293,-108.35365853658537,43.963414634146346,135,2
374,-0.78466796875,0.408203125,0.2890625,32.31707317073171,-107.31707317073172,45.54878048780488,135,2
375,-0.775390625,0.4189453125,0.32080078125,30.000000000000004,-106.95121951219514,46.768292682926834,135,2
376,-0.7626953125,0.42724609375,0.349609375,29.512195121951223,-108.10975609756099,47.987804878048784,135,2
377,-0.76318359375,0.4013671875,0.39404296875,30.121951219512198,-109.08536585365854,49.51219512195122,135,2
378,-0.7724609375,0.3837890625,0.3984375,32.25609756097561,-109.20731707317074,49.87804878048781,135,2
379,-0.7705078125,0.38232421875,0.3916015625,35.1219512195122,-110.42682926829269,49.57317073170732,135,2
380,-0.87451171875,0.39892578125,0.37451171875,38.170731707317074,-111.40243902439025,49.63414634146342,135,2
381,-0.71484375,0.4228515625,0.384765625,40.426829268292686,-112.7439024390244,50.91463414634147,135,2
382,-0.6875,0.42138671875,0.40771484375,41.524390243902445,-112.98780487804879,52.50000000000001,135,2
383,-0.658203125,0.43017578125,0.4306640625,41.463414634146346,-111.76829268292684,54.57317073170732,135,2
384,-0.626953125,0.4326171875,0.46044921875,40.0609756097561,-109.75609756097562,56.646341463414636,135,2
385,-0.61279296875,0.42529296875,0.47314453125,37.37804878048781,-106.89024390243904,59.146341463414636,135,2
386,-0.60205078125,0.41552734375,0.48486328125,35.0,-103.96341463414635,61.463414634146346,135,2
387,-0.5732421875,0.43310546875,0.490234375,33.41463414634146,-102.6829268292683,62.560975609756106,135,2
388,-0.552734375,0.45166015625,0.4853515625,33.41463414634146,-102.92682926829269,63.29268292682927,135,2
389,-0.54345703125,0.462890625,0.38037109375,33.78048780487805,-104.32926829268294,63.65853658536586,135,2
390,-0.5205078125,0.490234375,0.51220703125,34.69512195121951,-106.95121951219514,64.02439024390245,135,2
391,-0.51806640625,0.48291015625,0.49365234375,36.28048780487805,-93.78048780487806,64.39024390243902,135,2
392,-0.51513671875,0.466796875,0.51025390625,39.69512195121951,-112.56097560975611,64.75609756097562,135,2
393,-0.52294921875,0.46337890625,0.49365234375,43.84146341463415,-114.32926829268294,65.1829268292683,135,2
394,-0.62158203125,0.4755859375,0.4931640625,44.32926829268293,-113.23170731707319,65.2439024390244,135,2
395,-0.4541015625,0.3779296875,0.49560546875,40.85365853658537,-109.93902439024392,66.15853658536587,135,2
396,-0.44580078125,0.51318359375,0.5205078125,33.35365853658537,-104.87804878048782,67.37804878048782,135,2
397,-0.43359375,0.52490234375,0.52734375,26.52439024390244,-101.40243902439025,67.8658536585366,135,2
398,-0.42041015625,0.5341796875,0.556640625,23.59756097560976,-99.14634146341464,67.8658536585366,135,2
399,-0.42578125,0.53076171875,0.57373046875,23.84146341463415,-99.20731707317074,68.10975609756098,135,2
400,-0.4091796875,0.52978515625,0.568359375,25.121951219512198,-101.03658536585367,68.41463414634147,135,2
401,-0.4072265625,0.50732421875,0.5693359375,27.25609756097561,-102.01219512195122,68.78048780487805,135,2
402,-0.375,0.53173828125,0.55517578125,30.0609756097561,-104.32926829268294,68.53658536585367,135,2
403,-0.33447265625,0.5439453125,0.55224609375,33.47560975609756,-106.52439024390245,68.90243902439025,135,2
404,-0.29931640625,0.5615234375,0.5361328125,35.1219512195122,-107.07317073170732,68.53658536585367,135,2
405,-0.27734375,0.57275390625,0.54638671875,33.109756097560975,-104.87804878048782,67.98780487804879,135,2
406,-0.25341796875,0.58984375,0.544921875,29.695121951219516,-101.76829268292684,67.92682926829269,135,2
407,-0.24951171875,0.607421875,0.5771484375,25.975609756097562,-98.04878048780489,67.5609756097561,135,2
408,-0.375,0.60107421875,0.56640625,24.878048780487806,-95.54878048780489,67.25609756097562,135,2
409,-0.24462890625,0.60205078125,0.56005859375,26.34146341463415,-95.1219512195122,66.82926829268293,135,2
410,-0.24658203125,0.58837890625,0.5419921875,28.902439024390247,-96.34146341463415,67.07317073170732,135,2
411,-0.23388671875,0.6044921875,0.52490234375,33.41463414634146,-98.90243902439025,66.82926829268293,135,2
412,-0.20849609375,0.609375,0.50146484375,34.63414634146342,-99.08536585365854,66.15853658536587,135,2
413,-0.173828125,0.603515625,0.498046875,33.29268292682927,-98.47560975609757,65.67073170731707,135,2
414,-0.13818359375,0.63232421875,0.50634765625,30.0609756097561,-97.92682926829269,65.42682926829269,135,2
415,-0.11474609375,0.65966796875,0.53515625,28.414634146341466,-98.29268292682927,65.0,135,2
416,-0.10546875,0.67724609375,0.56689453125,27.865853658536587,-97.6829268292683,64.51219512195122,135,2
417,-0.10888671875,0.67431640625,0.56494140625,27.31707317073171,-96.46341463414635,63.90243902439025,135,2
418,-0.1181640625,0.6845703125,0.5712890625,26.646341463414636,-109.26829268292684,63.23170731707317,135,2
419,-0.1162109375,0.7177734375,0.5791015625,25.48780487804878,-92.37804878048782,62.926829268292686,135,2
420,-0.1201171875,0.71875,0.578125,27.012195121951223,-92.8048780487805,64.02439024390245,135,2
421,-0.12255859375,0.7109375,0.54345703125,29.02439024390244,-94.32926829268294,64.26829268292684,135,2
422,-0.00732421875,0.68310546875,0.53076171875,31.219512195121954,-94.20731707317074,64.32926829268293,135,2
423,-0.10498046875,0.6923828125,0.5322265625,32.43902439024391,-94.08536585365854,63.90243902439025,135,2
424,-0.05419921875,0.74755859375,0.50927734375,32.31707317073171,-94.69512195121952,77.8658536585366,135,2
425,-0.00244140625,0.79345703125,0.4599609375,30.975609756097565,-96.89024390243904,62.43902439024391,135,2
426,-0.0048828125,0.76025390625,0.44580078125,28.170731707317074,-97.8658536585366,63.78048780487806,135,2
427,0.01708984375,0.71337890625,0.44580078125,26.52439024390244,-99.75609756097562,64.69512195121952,135,2
428,0.044921875,0.681640625,0.4912109375,26.89024390243903,-101.40243902439025,64.69512195121952,135,2
429,0.07666015625,0.67138671875,0.53515625,25.670731707317074,-100.97560975609757,64.45121951219512,135,2
430,0.07958984375,0.69140625,0.56396484375,22.926829268292686,-99.08536585365854,63.963414634146346,135,2
431,0.08056640625,0.71923828125,0.591796875,20.914634146341466,-96.76829268292684,63.84146341463415,135,2
432,0.0556640625,0.74365234375,0.599609375,21.463414634146343,-95.42682926829269,64.20731707317074,135,2
433,0.05517578125,0.734375,0.6103515625,23.04878048780488,-94.51219512195122,64.9390243902439,135,2
434,0.08154296875,0.7109375,0.5869140625,25.54878048780488,-94.81707317073172,66.34146341463415,135,2
435,0.091796875,0.6845703125,0.57275390625,27.25609756097561,-94.08536585365854,67.25609756097562,135,2
436,0.10498046875,0.66357421875,0.55859375,26.646341463414636,-93.59756097560977,67.6219512195122,135,2
437,0.1240234375,0.64990234375,0.53564453125,25.792682926829272,-92.37804878048782,67.6219512195122,135,2
438,0.14892578125,0.654296875,0.53125,25.54878048780488,-91.89024390243904,67.01219512195122,135,2
439,0.17578125,0.6787109375,0.517578125,26.646341463414636,-93.35365853658537,66.70731707317074,135,2
440,0.2060546875,0.67919921875,0.5068359375,28.170731707317074,-94.20731707317074,67.31707317073172,135,2
441,0.224609375,0.66064453125,0.4658203125,26.951219512195124,-94.87804878048782,67.6219512195122,135,2
442,0.12744140625,0.66552734375,0.42822265625,24.878048780487806,-95.3048780487805,67.8658536585366,135,2
443,0.27783203125,0.693359375,0.40673828125,24.390243902439025,-97.19512195121952,68.29268292682927,135,2
444,0.283203125,0.6884765625,0.3935546875,24.573170731707318,-100.3048780487805,69.26829268292684,135,2
445,0.2958984375,0.6787109375,0.40625,26.646341463414636,-104.14634146341464,70.79268292682927,135,2
446,0.25927734375,0.64599609375,0.4462890625,29.695121951219516,-106.58536585365854,72.37804878048782,135,2
447,0.21923828125,0.60400390625,0.4580078125,30.182926829268297,-104.69512195121952,72.6829268292683,135,2
448,0.23583984375,0.59423828125,0.48095703125,30.792682926829272,-102.31707317073172,72.25609756097562,135,2
449,0.26708984375,0.60693359375,0.484375,31.09756097560976,-100.91463414634147,73.10975609756098,135,2
450,0.30126953125,0.61767578125,0.44384765625,32.743902439024396,-100.54878048780489,73.71951219512195,135,2
451,0.31884765625,0.6298828125,0.423828125,34.08536585365854,-100.85365853658537,73.65853658536587,135,2
452,0.3291015625,0.625,0.4169921875,34.51219512195122,-99.32926829268294,73.59756097560977,135,2
453,0.3466796875,0.654296875,0.40673828125,34.268292682926834,-97.6829268292683,74.20731707317074,135,2
454,0.33447265625,0.65234375,0.49853515625,33.170731707317074,-95.54878048780489,75.85365853658537,135,2
455,0.330078125,0.650390625,0.36376953125,32.43902439024391,-94.63414634146342,78.71951219512196,135,2
456,0.306640625,0.61962890625,0.3271484375,32.6829268292683,-94.08536585365854,81.58536585365854,135,2
457,0.30126953125,0.60498046875,0.32470703125,34.32926829268293,-94.26829268292684,83.90243902439025,135,2
458,0.32666015625,0.6005859375,0.3095703125,37.5,-95.67073170731709,86.09756097560977,135,2
459,0.34765625,0.58740234375,0.3095703125,39.32926829268293,-95.3658536585366,86.70731707317074,135,2
460,0.3916015625,0.59619140625,0.27197265625,39.93902439024391,-96.15853658536587,88.29268292682927,135,2
461,0.42724609375,0.60205078125,0.24169921875,40.79268292682927,-96.76829268292684,89.69512195121952,135,2
462,0.46484375,0.619140625,0.2197265625,41.21951219512196,-97.43902439024392,91.52439024390245,135,2
463,0.38134765625,0.6513671875,0.19091796875,41.09756097560976,-97.98780487804879,93.23170731707317,135,2
464,0.505859375,0.6630859375,0.16748046875,39.024390243902445,-97.37804878048782,95.73170731707317,135,2
465,0.52197265625,0.650390625,0.14697265625,35.85365853658537,-95.79268292682927,97.43902439024392,135,2
466,0.53515625,0.62939453125,0.1435546875,31.219512195121954,-92.92682926829269,97.31707317073172,135,2
467,0.55712890625,0.61767578125,0.14111328125,27.31707317073171,-91.58536585365854,98.35365853658537,135,2
468,0.5810546875,0.58642578125,0.15478515625,26.03658536585366,-91.46341463414635,100.54878048780489,135,2
469,0.59228515625,0.560546875,0.1806640625,27.926829268292686,-93.17073170731707,100.97560975609757,135,2
470,0.59228515625,0.5283203125,0.1845703125,30.914634146341466,-95.0609756097561,100.2439024390244,135,2
471,0.6162109375,0.52587890625,0.16845703125,35.0609756097561,-97.43902439024392,98.53658536585367,135,2
472,0.62353515625,0.517578125,0.17529296875,37.01219512195122,-99.26829268292684,96.64634146341464,135,2
473,0.6494140625,0.53662109375,0.15673828125,37.19512195121951,-99.81707317073172,96.03658536585367,135,2
474,0.6435546875,0.5361328125,0.13916015625,31.219512195121954,-98.17073170731709,95.73170731707317,135,2
475,0.6611328125,0.560546875,0.1318359375,24.085365853658537,-96.76829268292684,95.2439024390244,135,2
476,0.6806640625,0.5595703125,0.1455078125,18.414634146341466,-97.19512195121952,97.25609756097562,135,2
477,0.67236328125,0.515625,0.1640625,14.451219512195124,-97.92682926829269,97.5609756097561,135,2
478,0.6650390625,0.47314453125,0.18896484375,12.134146341463415,-98.59756097560977,97.50000000000001,135,2
479,0.6650390625,0.4453125,0.20458984375,11.951219512195124,-99.45121951219512,98.10975609756099,135,2
480,0.70361328125,0.453125,0.2197265625,13.170731707317074,-100.48780487804879,97.31707317073172,135,2
481,0.7109375,0.47802734375,0.2021484375,15.426829268292684,-102.92682926829269,96.46341463414635,135,2
482,0.7197265625,0.4765625,0.1962890625,15.243902439024392,-103.10975609756099,94.63414634146342,135,2
483,0.7158203125,0.48583984375,0.15283203125,11.158536585365855,-100.1829268292683,91.64634146341464,135,2
484,0.626953125,0.51025390625,0.1435546875,6.829268292682928,-96.03658536585367,89.20731707317074,135,2
485,0.76025390625,0.54541015625,0.1572265625,2.5609756097560976,-90.73170731707317,87.19512195121952,135,2
486,0.76171875,0.5439453125,0.16943359375,0.7317073170731708,-85.85365853658537,85.1829268292683,135,2
487,0.76123046875,0.5078125,0.15185546875,0.7926829268292683,-80.85365853658537,81.82926829268294,135,2
488,0.7490234375,0.4892578125,0.14892578125,3.9024390243902443,-77.5,78.17073170731707,135,2
489,0.74951171875,0.48193359375,0.11865234375,9.817073170731708,-76.34146341463415,75.0609756097561,135,2
490,0.7568359375,0.48779296875,0.09521484375,18.414634146341466,-76.40243902439025,71.89024390243902,135,2
491,0.76171875,0.49560546875,0.05615234375,26.09756097560976,-77.01219512195122,68.71951219512195,135,2
492,0.759765625,0.50634765625,0.00390625,15.609756097560977,-75.85365853658537,64.51219512195122,135,2
493,0.77490234375,0.52392578125,0.00634765625,31.76829268292683,-72.43902439024392,60.54878048780488,135,2
494,0.8154296875,0.57373046875,0.005859375,30.365853658536587,-68.29268292682927,58.10975609756098,135,2
495,0.8115234375,0.58056640625,0.017578125,27.378048780487806,-63.35365853658537,56.707317073170735,135,2
496,0.79345703125,0.560546875,0.029296875,22.98780487804878,-58.17073170731708,55.1219512195122,135,2
497,0.76123046875,0.51171875,0.0185546875,17.31707317073171,-53.23170731707317,52.987804878048784,135,2
498,0.76220703125,0.49951171875,0.0146484375,12.560975609756099,-48.47560975609756,50.85365853658537,135,2
499,0.77880859375,0.49755859375,-0.01025390625,10.060975609756099,-46.463414634146346,49.63414634146342,135,2
