,Ax,Ay,Az,Gx,Gy,Gz,distance,shot_type
0,0.55908203125,-0.73876953125,-0.32275390625,4.878048780487806,11.951219512195124,-15.487804878048783,70,8
1,0.552734375,-0.626953125,-0.31640625,5.7926829268292686,11.219512195121952,2.682926829268293,70,8
2,0.560546875,-0.720703125,-0.31396484375,5.121951219512195,12.256097560975611,4.329268292682928,70,8
3,0.5712890625,-0.70703125,-0.326171875,3.231707317073171,12.926829268292684,5.975609756097562,70,8
4,0.57666015625,-0.703125,-0.36181640625,15.54878048780488,14.390243902439027,7.682926829268293,70,8
5,0.587890625,-0.67431640625,-0.37451171875,-2.5609756097560976,13.658536585365855,9.26829268292683,70,8
6,0.59619140625,-0.685546875,-0.37060546875,-3.048780487804878,11.890243902439025,10.487804878048781,70,8
7,0.5859375,-0.7001953125,-0.38671875,-1.2195121951219514,8.658536585365855,11.097560975609756,70,8
8,0.57958984375,-0.69091796875,-0.41357421875,0.7317073170731708,6.2804878048780495,10.731707317073171,70,8
9,0.6015625,-0.6484375,-0.41650390625,0.6707317073170732,6.036585365853659,11.097560975609756,70,8
10,0.6162109375,-0.7431640625,-0.36279296875,-1.2804878048780488,7.317073170731708,11.036585365853659,70,8
11,0.6181640625,-0.57421875,-0.32080078125,-3.1707317073170733,8.048780487804878,10.365853658536587,70,8
12,0.6064453125,-0.54443359375,-0.2763671875,-2.5,6.890243902439025,9.451219512195122,70,8
13,0.6259765625,-0.50927734375,-0.25439453125,0.6097560975609757,4.51219512195122,8.048780487804878,70,8
14,0.6357421875,-0.4794921875,-0.23291015625,3.780487804878049,1.707317073170732,6.52439024390244,70,8
15,0.63671875,-0.46044921875,-0.24072265625,6.7682926829268295,-0.24390243902439027,4.817073170731708,70,8
16,0.666015625,-0.43701171875,-0.2412109375,8.902439024390244,-1.9512195121951221,3.1707317073170733,70,8
17,0.6806640625,-0.40966796875,-0.26171875,11.158536585365855,-3.536585365853659,0.9146341463414634,70,8
18,0.734375,-0.3642578125,-0.25341796875,12.500000000000002,-4.2682926829268295,-1.0975609756097562,70,8
19,0.75048828125,-0.337890625,-0.2314453125,13.414634146341465,-4.085365853658537,-2.439024390243903,70,8
20,0.7587890625,-0.33544921875,-0.21923828125,13.170731707317074,-3.353658536585366,-4.024390243902439,70,8
21,0.78857421875,-0.3037109375,-0.19091796875,11.463414634146343,-1.3414634146341464,-5.365853658536586,70,8
22,0.78369140625,-0.28662109375,-0.1923828125,8.78048780487805,0.7926829268292683,-6.219512195121951,70,8
23,0.79150390625,-0.30078125,-0.18994140625,6.890243902439025,2.1341463414634148,-7.01219512195122,70,8
24,0.80322265625,-0.32373046875,-0.205078125,5.731707317073171,3.536585365853659,-7.439024390243903,70,8
25,0.79736328125,-0.34228515625,-0.2080078125,4.695121951219512,4.817073170731708,-7.01219512195122,70,8
26,0.62744140625,-0.42431640625,-0.2158203125,3.963414634146342,6.341463414634147,-6.097560975609756,70,8
27,0.71875,-0.47265625,-0.234375,4.2682926829268295,6.951219512195123,-5.7926829268292686,70,8
28,0.703125,-0.490234375,-0.24609375,4.329268292682928,8.597560975609756,-6.585365853658537,70,8
29,0.71337890625,-0.46533203125,-0.2177734375,5.121951219512195,8.78048780487805,-7.560975609756098,70,8
30,0.72900390625,-0.4765625,-0.24462890625,5.3048780487804885,10.0,-8.536585365853659,70,8
31,0.724609375,-0.484375,-0.263671875,2.5,12.682926829268293,-9.02439024390244,70,8
32,0.7197265625,-0.49853515625,-0.26806640625,-1.524390243902439,14.878048780487806,-8.719512195121952,70,8
33,0.70263671875,-0.5283203125,-0.26171875,-3.658536585365854,15.731707317073171,-8.109756097560977,70,8
34,0.6767578125,-0.5634765625,-0.25830078125,-4.2682926829268295,15.975609756097562,-6.7682926829268295,70,8
35,0.654296875,-0.615234375,-0.24853515625,-4.024390243902439,15.731707317073171,-5.7926829268292686,70,8
36,0.62939453125,-0.64501953125,-0.2744140625,-2.8658536585365857,14.634146341463415,-4.817073170731708,70,8
37,0.609375,-0.6591796875,-0.28564453125,-1.402439024390244,12.987804878048781,-2.987804878048781,70,8
38,0.5986328125,-0.6689453125,-0.2802734375,-0.9756097560975611,12.80487804878049,-1.829268292682927,70,8
39,0.58837890625,-0.6748046875,-0.275390625,-1.524390243902439,12.682926829268293,-0.6097560975609757,70,8
40,0.57861328125,-0.68701171875,-0.2890625,-1.1585365853658538,11.707317073170733,0.7926829268292683,70,8
41,0.5537109375,-0.71435546875,-0.2958984375,-0.30487804878048785,10.30487804878049,2.1951219512195124,70,8
42,0.5361328125,-0.7041015625,-0.27880859375,1.3414634146341464,9.390243902439025,3.1707317073170733,70,8
43,0.53515625,-0.68212890625,-0.2529296875,1.2804878048780488,8.78048780487805,2.987804878048781,70,8
44,0.5654296875,-0.6162109375,-0.271484375,0.853658536585366,8.78048780487805,2.5,70,8
45,0.59228515625,-0.5859375,-0.25537109375,0.6097560975609757,8.475609756097562,2.682926829268293,70,8
46,0.6015625,-0.59521484375,-0.2607421875,-0.5487804878048781,8.414634146341465,3.353658536585366,70,8
47,0.5908203125,-0.595703125,-0.2412109375,-0.1829268292682927,6.890243902439025,3.5975609756097566,70,8
48,0.60546875,-0.5869140625,-0.24609375,1.9512195121951221,4.329268292682928,4.085365853658537,70,8
49,0.60791015625,-0.5791015625,-0.13037109375,3.9024390243902443,2.0121951219512195,5.2439024390243905,70,8
50,0.611328125,-0.56591796875,-0.24755859375,4.634146341463415,1.8902439024390245,5.365853658536586,70,8
51,0.63916015625,-0.541015625,-0.2392578125,4.817073170731708,2.378048780487805,5.365853658536586,70,8
52,0.64794921875,-0.52392578125,-0.20703125,4.634146341463415,3.1707317073170733,5.914634146341464,70,8
53,0.662109375,-0.51318359375,-0.1943359375,4.51219512195122,4.634146341463415,6.7682926829268295,70,8
54,0.6748046875,-0.5126953125,-0.2021484375,3.1097560975609757,6.402439024390245,7.621951219512196,70,8
55,0.6904296875,-0.4794921875,-0.205078125,1.0975609756097562,8.841463414634147,7.926829268292684,70,8
56,0.70361328125,-0.47265625,-0.20703125,-1.524390243902439,12.195121951219512,8.231707317073171,70,8
57,0.7275390625,-0.47265625,-0.22314453125,-3.1707317073170733,15.243902439024392,8.475609756097562,70,8
58,0.71533203125,-0.3779296875,-0.1982421875,-4.573170731707317,17.31707317073171,8.170731707317074,70,8
59,0.72607421875,-0.49365234375,-0.1884765625,-4.2682926829268295,18.170731707317074,6.951219512195123,70,8
60,0.7021484375,-0.5166015625,-0.16943359375,-4.451219512195122,19.695121951219512,6.646341463414635,70,8
61,0.7041015625,-0.5224609375,-0.138671875,-3.4756097560975614,19.81707317073171,5.731707317073171,70,8
62,0.697265625,-0.53662109375,-0.10888671875,-0.853658536585366,18.78048780487805,5.121951219512195,70,8
63,0.68017578125,-0.54833984375,-0.10400390625,2.6219512195121952,17.134146341463417,3.4756097560975614,70,8
64,0.7109375,-0.53955078125,-0.10009765625,4.878048780487806,15.731707317073171,3.1097560975609757,70,8
65,0.70703125,-0.53564453125,-0.1103515625,8.292682926829269,13.04878048780488,1.7682926829268295,70,8
66,0.71435546875,-0.55029296875,-0.08642578125,11.951219512195124,12.073170731707318,1.7682926829268295,70,8
67,0.70263671875,-0.56884765625,-0.0537109375,13.29268292682927,11.585365853658537,0.5487804878048781,70,8
68,0.71337890625,-0.57275390625,-0.05419921875,16.03658536585366,11.036585365853659,15.54878048780488,70,8
69,0.7060546875,-0.5654296875,-0.0478515625,18.902439024390244,9.695121951219512,0.06097560975609757,70,8
70,0.70947265625,-0.5830078125,-0.06298828125,21.28048780487805,10.24390243902439,0.426829268292683,70,8
71,0.703125,-0.60107421875,-0.04736328125,21.463414634146343,13.231707317073171,0.6707317073170732,70,8
72,0.69482421875,-0.60595703125,-0.04736328125,20.30487804878049,0.06097560975609757,0.6097560975609757,70,8
73,0.697265625,-0.57666015625,-0.08056640625,19.939024390243905,18.475609756097562,1.2804878048780488,70,8
74,0.71533203125,-0.56494140625,-0.08984375,17.134146341463417,22.98780487804878,1.8902439024390245,70,8
75,0.70361328125,-0.5693359375,-0.0810546875,13.04878048780488,29.32926829268293,2.5,70,8
76,0.6865234375,-0.56884765625,-0.05517578125,9.817073170731708,34.63414634146342,2.378048780487805,70,8
77,0.6767578125,-0.57958984375,-0.01708984375,8.719512195121952,37.5609756097561,2.987804878048781,70,8
78,0.68359375,-0.56787109375,-0.02734375,10.487804878048781,37.43902439024391,4.329268292682928,70,8
79,0.67578125,-0.57275390625,-0.0322265625,14.756097560975611,35.243902439024396,4.51219512195122,70,8
80,0.68359375,-0.5615234375,-0.05810546875,20.121951219512198,31.52439024390244,5.975609756097562,70,8
81,0.64013671875,-0.640625,-0.0107421875,24.207317073170735,23.59756097560976,9.756097560975611,70,8
82,0.6416015625,-0.5625,-0.20703125,27.80487804878049,20.731707317073173,11.707317073170733,70,8
83,0.6904296875,-0.51611328125,-0.20654296875,27.134146341463417,25.54878048780488,13.414634146341465,70,8
84,0.7021484375,-0.62451171875,-0.208984375,18.963414634146343,32.5609756097561,13.414634146341465,70,8
85,0.70068359375,-0.486328125,-0.2373046875,8.475609756097562,42.43902439024391,14.878048780487806,70,8
86,0.70458984375,-0.490234375,-0.193359375,-6.402439024390245,57.31707317073171,17.073170731707318,70,8
87,0.69970703125,-0.52685546875,-0.14208984375,-25.54878048780488,73.53658536585367,18.78048780487805,70,8
88,0.71337890625,-0.5458984375,-0.12451171875,-39.451219512195124,85.85365853658537,20.79268292682927,70,8
89,0.65771484375,-0.591796875,-0.0576171875,-43.170731707317074,89.69512195121952,23.231707317073173,70,8
90,0.59912109375,-0.68310546875,-0.12255859375,-35.670731707317074,85.42682926829269,25.914634146341466,70,8
91,0.55810546875,-0.7431640625,0.01416015625,-23.59756097560976,79.14634146341464,28.10975609756098,70,8
92,0.5625,-0.7138671875,-0.08056640625,-16.82926829268293,67.6829268292683,27.621951219512198,70,8
93,0.642578125,-0.62158203125,-0.2001953125,-10.853658536585368,61.524390243902445,25.000000000000004,70,8
94,0.74658203125,-0.35595703125,-0.25244140625,-12.439024390243903,60.91463414634147,22.134146341463417,70,8
95,0.783203125,-0.34228515625,-0.3408203125,-28.10975609756098,64.02439024390245,14.878048780487806,70,8
96,0.83154296875,-0.26025390625,-0.38037109375,-42.5609756097561,73.04878048780489,10.365853658536587,70,8
97,0.82373046875,-0.29052734375,-0.3232421875,-58.17073170731708,79.69512195121952,6.158536585365854,70,8
98,0.7685546875,-0.3701171875,-0.267578125,-67.6829268292683,83.35365853658537,3.8414634146341466,70,8
99,0.705078125,-0.47021484375,-0.171875,-67.92682926829269,81.89024390243902,4.634146341463415,70,8
100,0.63671875,-0.5859375,-0.0771484375,-60.1219512195122,76.52439024390245,8.353658536585366,70,8
101,0.58251953125,-0.63671875,-0.08984375,-62.13414634146342,68.59756097560977,10.30487804878049,70,8
102,0.59814453125,-0.5703125,-0.1220703125,-34.146341463414636,58.59756097560976,10.914634146341465,70,8
103,0.6328125,-0.45068359375,-0.2294921875,-25.853658536585368,51.524390243902445,11.158536585365855,70,8
104,0.677734375,-0.38818359375,-0.28466796875,-25.670731707317074,50.670731707317074,9.51219512195122,70,8
105,0.71728515625,-0.36328125,-0.33154296875,-30.182926829268297,49.69512195121952,6.890243902439025,70,8
106,0.72705078125,-0.33642578125,-0.37109375,-34.207317073170735,48.84146341463415,3.2926829268292686,70,8
107,0.7490234375,-0.3486328125,-0.3994140625,-39.51219512195122,48.04878048780488,-0.9146341463414634,70,8
108,0.76416015625,-0.33984375,-0.42041015625,-44.024390243902445,45.243902439024396,-5.487804878048781,70,8
109,0.73583984375,-0.33056640625,-0.3359375,-44.81707317073171,42.43902439024391,-7.743902439024391,70,8
110,0.73828125,-0.35400390625,-0.2890625,-46.524390243902445,40.1829268292683,-8.963414634146343,70,8
111,0.703125,-0.375,-0.26025390625,-49.39024390243903,39.207317073170735,-10.609756097560977,70,8
112,0.67236328125,-0.380859375,-0.2001953125,-50.79268292682927,38.29268292682927,-11.707317073170733,70,8
113,0.67724609375,-0.357421875,-0.2021484375,-50.85365853658537,34.451219512195124,-13.29268292682927,70,8
114,0.6875,-0.3447265625,-0.2216796875,-52.6219512195122,34.207317073170735,-15.182926829268293,70,8
115,0.68505859375,-0.3134765625,-0.23486328125,-55.243902439024396,32.987804878048784,-18.53658536585366,70,8
116,0.6728515625,-0.32470703125,-0.228515625,-56.09756097560976,31.402439024390247,-20.670731707317074,70,8
117,0.7099609375,-0.32080078125,-0.23779296875,-57.19512195121952,29.695121951219516,-22.5609756097561,70,8
118,0.7353515625,-0.31005859375,-0.2705078125,-59.024390243902445,28.475609756097562,-24.451219512195124,70,8
119,0.73583984375,-0.310546875,-0.2802734375,-62.43902439024391,28.353658536585368,-26.09756097560976,70,8
120,0.732421875,-0.29931640625,-0.31640625,-65.60975609756098,28.353658536585368,-28.53658536585366,70,8
121,0.724609375,-0.31201171875,-0.30810546875,-69.39024390243902,28.353658536585368,-31.03658536585366,70,8
122,0.7431640625,-0.2900390625,-0.29345703125,-72.5609756097561,28.10975609756098,-32.987804878048784,70,8
123,0.72509765625,-0.32373046875,-0.2685546875,-76.64634146341464,29.81707317073171,-33.84146341463415,70,8
124,0.73828125,-0.32666015625,-0.26171875,-80.2439024390244,29.939024390243905,-34.57317073170732,70,8
125,0.626953125,-0.29833984375,-0.2998046875,-83.29268292682927,30.121951219512198,-35.97560975609756,70,8
126,0.7734375,-0.27001953125,-0.28564453125,-87.6219512195122,31.76829268292683,-37.987804878048784,70,8
127,0.78466796875,-0.2783203125,-0.3017578125,-92.8048780487805,32.25609756097561,-39.87804878048781,70,8
128,0.8017578125,-0.27099609375,-0.31787109375,-95.3658536585366,32.37804878048781,-42.31707317073171,70,8
129,0.81201171875,-0.25927734375,-0.318359375,-98.65853658536587,32.987804878048784,-44.93902439024391,70,8
130,0.82275390625,-0.2763671875,-0.31689453125,-104.02439024390245,34.93902439024391,-31.34146341463415,70,8
131,0.822265625,-0.263671875,-0.3095703125,-93.96341463414635,36.646341463414636,-50.243902439024396,70,8
132,0.8203125,-0.2587890625,-0.29296875,-113.65853658536587,37.25609756097561,-53.41463414634147,70,8
133,0.82470703125,-0.26318359375,-0.3076171875,-116.15853658536587,37.31707317073171,-56.15853658536586,70,8
134,0.828125,-0.2822265625,-0.29931640625,-117.19512195121952,35.73170731707317,-58.23170731707317,70,8
135,0.8466796875,-0.25341796875,-0.30224609375,-117.8658536585366,33.71951219512196,-61.09756097560976,70,8
136,0.8466796875,-0.23193359375,-0.2900390625,-120.67073170731709,33.84146341463415,-63.41463414634147,70,8
137,0.85107421875,-0.24072265625,-0.28759765625,-122.7439024390244,32.86585365853659,-65.3048780487805,70,8
138,0.85400390625,-0.24853515625,-0.298828125,-122.7439024390244,32.37804878048781,-67.7439024390244,70,8
139,0.86669921875,-0.22802734375,-0.2978515625,-123.90243902439026,31.89024390243903,-70.3048780487805,70,8
140,0.8916015625,-0.1865234375,-0.306640625,-127.8048780487805,34.207317073170735,-72.92682926829269,70,8
141,0.89501953125,-0.19775390625,-0.30126953125,-132.07317073170734,37.01219512195122,-74.87804878048782,70,8
142,0.8935546875,-0.21826171875,-0.296875,-135.85365853658539,39.268292682926834,-76.34146341463415,70,8
143,0.888671875,-0.2314453125,-0.30419921875,-136.95121951219514,39.69512195121951,-77.98780487804879,70,8
144,0.91357421875,-0.205078125,-0.2607421875,-134.26829268292684,35.426829268292686,-80.2439024390244,70,8
145,0.9658203125,-0.13671875,-0.38427734375,-132.5609756097561,34.268292682926834,-82.37804878048782,70,8
146,0.98583984375,-0.154296875,-0.36279296875,-135.7317073170732,36.34146341463415,-83.84146341463415,70,8
147,1.00537109375,-0.1513671875,-0.3408203125,-139.75609756097563,38.53658536585366,-85.60975609756099,70,8
148,1.0146484375,-0.1279296875,-0.49658203125,-143.53658536585368,40.426829268292686,-89.69512195121952,70,8
149,1.0361328125,-0.07861328125,-0.35888671875,-146.46341463414635,42.6829268292683,-92.37804878048782,70,8
150,1.03076171875,-0.11279296875,-0.3564453125,-150.3048780487805,45.243902439024396,-95.42682926829269,70,8
151,1.09814453125,-0.06396484375,-0.4013671875,-153.65853658536588,46.463414634146346,-101.09756097560977,70,8
152,1.11669921875,-0.01220703125,-0.39794921875,-157.5,48.10975609756098,-106.40243902439025,70,8
153,1.1396484375,-0.0302734375,-0.498046875,-161.09756097560978,49.451219512195124,-110.48780487804879,70,8
154,1.14892578125,-0.0625,-0.33349609375,-160.0,48.41463414634147,-114.57317073170732,70,8
155,1.16162109375,-0.0537109375,-0.34716796875,-171.46341463414635,46.09756097560976,-119.81707317073172,70,8
156,1.1650390625,-0.04248046875,-0.2568359375,-151.70731707317074,42.804878048780495,-122.19512195121952,70,8
157,1.18017578125,-0.0166015625,-0.38818359375,-148.109756097561,40.1219512195122,-125.79268292682927,70,8
158,1.21630859375,0.0185546875,-0.3779296875,-146.09756097560978,40.426829268292686,-131.46341463414635,70,8
159,1.291015625,0.0732421875,-0.36962890625,-145.6707317073171,40.97560975609756,-137.5,70,8
160,1.33642578125,0.0888671875,-0.453125,-149.45121951219514,41.34146341463415,-144.32926829268294,70,8
161,1.33642578125,0.07177734375,-0.458984375,-152.6219512195122,43.65853658536586,-149.45121951219514,70,8
162,1.33544921875,0.0537109375,-0.41015625,-152.8048780487805,44.08536585365854,-154.08536585365854,70,8
163,1.3505859375,0.0478515625,-0.40771484375,-150.4878048780488,42.987804878048784,-158.71951219512198,70,8
164,1.35009765625,0.0419921875,-0.40625,-148.1707317073171,40.73170731707317,-162.5,70,8
165,1.359375,0.05029296875,-0.43603515625,-146.03658536585368,38.65853658536586,-167.25609756097563,70,8
166,1.4033203125,0.11376953125,-0.427734375,-142.8048780487805,36.28048780487805,-172.13414634146343,70,8
167,1.41064453125,0.11376953125,-0.443359375,-142.01219512195124,35.487804878048784,-176.76829268292684,70,8
168,1.443359375,0.10693359375,-0.4287109375,-140.91463414634148,35.54878048780488,-179.75609756097563,70,8
169,1.47705078125,0.1474609375,-0.41064453125,-139.75609756097563,34.81707317073171,-182.9878048780488,70,8
170,1.52001953125,0.1572265625,-0.4296875,-138.78048780487805,33.59756097560976,-185.609756097561,70,8
171,1.49169921875,0.10595703125,-0.478515625,-136.95121951219514,30.000000000000004,-186.89024390243904,70,8
172,1.4970703125,0.12744140625,-0.45556640625,-135.6707317073171,27.500000000000004,-189.39024390243904,70,8
173,1.515625,0.17578125,-0.43212890625,-135.7317073170732,24.573170731707318,-192.01219512195124,70,8
174,1.5380859375,0.216796875,-0.39013671875,-136.76829268292684,22.073170731707318,-195.3658536585366,70,8
175,1.54931640625,0.2568359375,-0.34765625,-138.0487804878049,20.182926829268293,-198.53658536585368,70,8
176,1.61572265625,0.29443359375,-0.3359375,-139.26829268292684,20.182926829268293,-203.53658536585368,70,8
177,1.69384765625,0.3115234375,-0.34423828125,-143.109756097561,21.463414634146343,-205.85365853658539,70,8
178,1.716796875,0.28271484375,-0.3369140625,-144.02439024390245,24.146341463414636,-209.14634146341464,70,8
179,1.74560546875,0.27783203125,-0.3115234375,-145.97560975609758,28.475609756097562,-212.7439024390244,70,8
180,1.78564453125,0.3017578125,-0.31640625,-146.89024390243904,31.707317073170735,-203.109756097561,70,8
181,1.82470703125,0.33837890625,-0.28271484375,-149.26829268292684,35.1219512195122,-222.25609756097563,70,8
182,1.8134765625,0.2890625,-0.2734375,-147.6219512195122,36.768292682926834,-228.59756097560978,70,8
183,1.83837890625,0.30126953125,-0.30859375,-146.21951219512195,39.207317073170735,-234.08536585365854,70,8
184,1.8388671875,0.2919921875,-0.2822265625,-146.40243902439025,42.01219512195122,-240.3658536585366,70,8
185,1.77490234375,0.20947265625,-0.29638671875,-146.76829268292684,45.487804878048784,-244.45121951219514,70,8
186,1.71630859375,0.15380859375,-0.228515625,-144.75609756097563,47.804878048780495,-248.96341463414637,70,8
187,1.64501953125,0.11669921875,-0.205078125,-142.37804878048783,49.81707317073171,-252.56097560975613,70,8
188,1.59912109375,0.1171875,-0.16162109375,-139.32926829268294,51.585365853658544,-255.85365853658539,70,8
189,1.53662109375,0.10009765625,-0.24755859375,-134.26829268292684,53.84146341463415,-258.6585365853659,70,8
190,1.4833984375,0.0888671875,-0.1279296875,-128.109756097561,54.93902439024391,-261.2804878048781,70,8
191,1.39794921875,0.0498046875,-0.09326171875,-119.63414634146342,53.53658536585366,-261.3414634146342,70,8
192,1.3486328125,0.06298828125,-0.01513671875,-124.75609756097562,52.31707317073171,-262.5609756097561,70,8
193,1.33642578125,0.001953125,0.02734375,-100.3658536585366,50.304878048780495,-264.9390243902439,70,8
194,1.32421875,0.189453125,0.06884765625,-95.2439024390244,49.32926829268293,-267.07317073170736,70,8
195,1.28955078125,0.1865234375,0.109375,-92.6219512195122,48.84146341463415,-269.69512195121956,70,8
196,1.2724609375,0.19091796875,0.15771484375,-86.58536585365854,46.82926829268293,-273.719512195122,70,8
197,1.25390625,0.17919921875,0.22216796875,-81.76829268292684,44.32926829268293,-276.76829268292687,70,8
198,1.19091796875,0.07373046875,0.19970703125,-76.46341463414635,43.84146341463415,-276.82926829268297,70,8
199,1.09423828125,0.00244140625,0.18505859375,-70.0609756097561,41.768292682926834,-272.8048780487805,70,8
200,1.04931640625,-0.01025390625,0.15673828125,-64.32926829268293,40.304878048780495,-267.9878048780488,70,8
201,0.97607421875,-0.04296875,0.07080078125,-62.926829268292686,39.024390243902445,-263.6585365853659,70,8
202,0.888671875,-0.05859375,0.0546875,-61.21951219512196,39.146341463414636,-259.0243902439025,70,8
203,0.79931640625,-0.09326171875,0.0634765625,-59.085365853658544,39.51219512195122,-252.9268292682927,70,8
204,0.72509765625,-0.0966796875,0.06640625,-56.89024390243903,40.304878048780495,-246.95121951219514,70,8
205,0.6416015625,-0.1337890625,0.1005859375,-55.365853658536594,40.54878048780488,-239.39024390243904,70,8
206,0.58349609375,-0.14892578125,0.1337890625,-51.89024390243903,39.75609756097561,-232.31707317073173,70,8
207,0.5595703125,-0.15478515625,0.22021484375,-47.37804878048781,39.87804878048781,-227.13414634146343,70,8
208,0.49658203125,-0.16748046875,0.279296875,-44.93902439024391,40.0609756097561,-222.01219512195124,70,8
209,0.4521484375,-0.18994140625,0.2998046875,-44.81707317073171,41.646341463414636,-218.0487804878049,70,8
210,0.4013671875,-0.236328125,0.33251953125,-45.0609756097561,44.08536585365854,-213.78048780487808,70,8
211,0.34716796875,-0.29345703125,0.365234375,-43.963414634146346,44.51219512195122,-207.50000000000003,70,8
212,0.26953125,-0.3642578125,0.4072265625,-40.73170731707317,44.51219512195122,-200.2439024390244,70,8
213,0.2626953125,-0.40087890625,0.4169921875,-34.024390243902445,43.84146341463415,-194.08536585365854,70,8
214,0.21435546875,-0.4677734375,0.3603515625,-30.000000000000004,42.804878048780495,-185.6707317073171,70,8
215,0.10546875,-0.5400390625,0.35107421875,-25.48780487804878,40.85365853658537,-176.70731707317074,70,8
216,-0.01171875,-0.6201171875,0.37451171875,-18.597560975609756,38.47560975609756,-166.28048780487805,70,8
217,-0.0810546875,-0.689453125,0.3974609375,-12.439024390243903,37.5,-153.41463414634148,70,8
218,-0.193359375,-0.70556640625,0.4111328125,-7.743902439024391,36.768292682926834,-140.6707317073171,70,8
219,-0.287109375,-0.712890625,0.46240234375,-7.01219512195122,40.73170731707317,-127.31707317073172,70,8
220,-0.34130859375,-0.74365234375,0.529296875,-11.036585365853659,45.97560975609756,-112.98780487804879,70,8
221,-0.47412109375,-0.86181640625,0.52099609375,-17.134146341463417,51.82926829268293,-95.73170731707317,70,8
222,-0.59765625,-0.88134765625,0.54052734375,-18.597560975609756,54.93902439024391,-78.53658536585367,70,8
223,-0.71044921875,-1.08984375,0.54248046875,-15.121951219512196,54.81707317073171,-77.13414634146342,70,8
224,-0.744140625,-1.19677734375,0.55322265625,-7.743902439024391,52.07317073170732,-44.75609756097561,70,8
225,-0.85693359375,-1.228515625,0.576171875,3.353658536585366,50.00000000000001,-29.02439024390244,70,8
226,-0.65576171875,-1.244140625,0.611328125,13.04878048780488,49.32926829268293,-12.926829268292684,70,8
227,-0.59521484375,-1.27587890625,0.59619140625,19.634146341463417,51.15853658536586,3.780487804878049,70,8
228,-0.56103515625,-1.33837890625,0.5234375,22.5609756097561,54.51219512195122,22.31707317073171,70,8
229,-0.59521484375,-1.4853515625,0.45458984375,27.012195121951223,56.15853658536586,43.29268292682927,70,8
230,-0.5986328125,-1.50146484375,0.40087890625,36.21951219512196,55.365853658536594,66.15853658536587,70,8
231,-0.57763671875,-1.7353515625,0.39306640625,50.670731707317074,51.21951219512196,90.00000000000001,70,8
232,-0.46240234375,-1.62841796875,0.390625,67.07317073170732,47.31707317073171,114.45121951219514,70,8
233,-0.3232421875,-1.75244140625,0.33837890625,78.53658536585367,46.15853658536586,136.70731707317074,70,8
234,-0.18896484375,-1.7919921875,0.30908203125,84.69512195121952,45.1219512195122,158.2926829268293,70,8
235,-0.24609375,-1.86181640625,0.24169921875,91.15853658536587,43.23170731707317,179.75609756097563,70,8
236,-0.02734375,-1.90966796875,0.22216796875,99.26829268292684,42.01219512195122,199.81707317073173,70,8
237,0.10546875,-1.93896484375,0.17333984375,105.1829268292683,41.951219512195124,204.39024390243904,70,8
238,0.2197265625,-2.05517578125,0.1337890625,109.26829268292684,45.73170731707317,244.26829268292684,70,8
239,0.29736328125,-2.27734375,0.126953125,108.90243902439025,51.524390243902445,273.109756097561,70,8
240,0.25634765625,-2.48974609375,0.13232421875,109.02439024390245,58.59756097560976,302.07317073170736,70,8
241,0.51318359375,-2.67578125,0.21435546875,109.39024390243904,65.1829268292683,332.19512195121956,70,8
242,0.7216796875,-2.82421875,0.3056640625,93.71951219512196,71.70731707317074,362.13414634146346,70,8
243,1.044921875,-2.99462890625,0.27880859375,110.54878048780489,75.67073170731707,393.3536585365854,70,8
244,1.44970703125,-3.19580078125,0.2060546875,113.23170731707319,77.92682926829269,407.68292682926835,70,8
245,1.77490234375,-3.4326171875,0.05810546875,118.84146341463416,92.92682926829269,456.4634146341464,70,8
246,2.32421875,-3.69873046875,-0.05908203125,124.57317073170732,60.85365853658537,495.7317073170732,70,8
247,2.8310546875,-4.02001953125,-0.46435546875,147.07317073170734,44.146341463414636,543.109756097561,70,8
248,3.3212890625,-4.2802734375,-0.79052734375,182.25609756097563,21.646341463414636,589.7560975609756,70,8
249,4.10302734375,-4.58447265625,-1.2509765625,230.85365853658539,7.560975609756098,611.6463414634147,70,8
250,5.07177734375,-4.47998046875,-1.322265625,276.0975609756098,14.695121951219514,659.4512195121952,70,8
251,5.96728515625,-4.26416015625,-1.26953125,311.6463414634147,24.939024390243905,686.3414634146342,70,8
252,6.58544921875,-3.91748046875,-1.51806640625,349.39024390243907,39.69512195121951,710.3048780487806,70,8
253,6.7451171875,-3.80908203125,-1.66748046875,384.51219512195127,57.6219512195122,718.048780487805,70,8
254,7.1923828125,-3.57421875,-2.18408203125,400.24390243902445,72.31707317073172,748.5975609756098,70,8
255,7.603515625,-2.8603515625,-3.06640625,418.1707317073171,86.15853658536587,749.3902439024391,70,8
256,7.93017578125,-2.48193359375,-3.740234375,447.50000000000006,96.09756097560977,791.4024390243903,70,8
257,8.2626953125,-2.48974609375,-4.333984375,467.25609756097566,85.97560975609757,805.2439024390245,70,8
258,8.81103515625,-2.087890625,-4.56494140625,523.8414634146342,62.31707317073171,823.3536585365854,70,8
259,8.79248046875,-1.76416015625,-5.19482421875,589.6341463414635,5.121951219512195,830.7317073170732,70,8
260,8.81201171875,-1.54296875,-5.7109375,635.548780487805,-58.17073170731708,831.7682926829269,70,8
261,7.7548828125,-1.55419921875,-5.70751953125,679.2073170731708,-151.70731707317074,821.829268292683,70,8
262,7.0703125,-2.7158203125,-5.4208984375,768.3536585365854,-269.8780487804878,801.4024390243903,70,8
263,6.220703125,-3.54150390625,-5.6142578125,964.939024390244,-451.2804878048781,758.2926829268293,70,8
264,5.58056640625,-4.68408203125,-6.30419921875,1158.4146341463415,-648.109756097561,642.3170731707318,70,8
265,8.7314453125,-2.119140625,5.435546875,1695.6707317073171,-1562.6829268292684,1033.4756097560976,70,8
266,-7.625,-16.0,-6.5595703125,1228.658536585366,389.93902439024396,-914.1463414634147,70,8
267,15.99951171875,15.99951171875,-3.89453125,466.89024390243907,-5.0,331.0975609756098,70,8
268,-15.494140625,-15.94384765625,-5.43603515625,1619.878048780488,-720.609756097561,-116.89024390243904,70,8
269,12.03759765625,0.62646484375,-0.2724609375,1090.7926829268295,-287.25609756097566,-271.5853658536586,70,8
270,4.990234375,5.55322265625,-4.4541015625,970.7317073170733,-110.91463414634147,-254.93902439024393,70,8
271,4.12109375,-1.4169921875,-3.0048828125,841.1585365853659,-220.6707317073171,-442.68292682926835,70,8
272,4.24267578125,3.84228515625,-1.09716796875,834.8780487804879,-120.97560975609757,-422.74390243902445,70,8
273,4.21044921875,0.07861328125,-0.55810546875,753.5365853658537,-50.304878048780495,-498.2926829268293,70,8
274,2.908203125,-1.234375,-0.83984375,670.7926829268293,-53.35365853658537,-578.2926829268293,70,8
275,2.677734375,-1.09814453125,-0.83837890625,579.939024390244,-4.207317073170732,-623.8414634146342,70,8
276,2.79638671875,-0.400390625,-1.39697265625,523.9024390243903,39.81707317073171,-610.3048780487806,70,8
277,2.7392578125,-1.06396484375,-1.5458984375,466.4024390243903,52.987804878048784,-629.6341463414635,70,8
278,2.5869140625,-0.994140625,-1.36474609375,419.0243902439025,75.97560975609757,-639.2073170731708,70,8
279,2.54443359375,-1.296875,-0.904296875,370.8536585365854,100.79268292682927,-652.1341463414635,70,8
280,2.87158203125,-1.255859375,-1.13916015625,268.4146341463415,147.13414634146343,-673.7804878048781,70,8
281,3.74853515625,-1.013671875,-1.2626953125,161.82926829268294,180.5487804878049,-646.8902439024391,70,8
282,2.83154296875,-1.626953125,-1.2939453125,101.40243902439025,196.52439024390245,-622.3170731707318,70,8
283,2.58154296875,-1.7802734375,-0.91357421875,55.365853658536594,225.5487804878049,-609.5121951219513,70,8
284,2.189453125,-1.56494140625,-0.72802734375,28.719512195121954,235.7926829268293,-589.0853658536586,70,8
285,1.8896484375,-1.5107421875,-0.85400390625,13.29268292682927,275.6707317073171,-572.5609756097562,70,8
286,1.7919921875,-1.42822265625,-0.75537109375,-6.707317073170732,288.7804878048781,-553.1707317073171,70,8
287,1.7509765625,-1.30419921875,-0.8193359375,-22.012195121951223,291.0975609756098,-544.8780487804878,70,8
288,1.73974609375,-1.08251953125,-0.849609375,-33.84146341463415,288.2317073170732,-507.50000000000006,70,8
289,1.76220703125,-0.98974609375,-0.79443359375,-48.71951219512196,282.5609756097561,-486.4634146341464,70,8
290,1.6025390625,-1.05712890625,-0.6923828125,-69.45121951219512,278.109756097561,-482.98780487804885,70,8
291,1.416015625,-0.9052734375,-0.74462890625,-88.78048780487805,282.7439024390244,-447.56097560975616,70,8
292,1.400390625,-0.74267578125,-0.57861328125,-122.07317073170732,297.9878048780488,-428.9634146341464,70,8
293,1.4208984375,-0.57421875,-0.66162109375,-163.65853658536588,297.8658536585366,-409.32926829268297,70,8
294,1.49560546875,-0.56640625,-0.736328125,-195.06097560975613,322.5,-383.2317073170732,70,8
295,1.10791015625,-0.6787109375,-0.8369140625,-207.07317073170734,312.5609756097561,-362.01219512195127,70,8
296,0.97412109375,-0.79345703125,-0.8203125,-204.63414634146343,332.25609756097566,-347.25609756097566,70,8
297,0.89990234375,-0.8798828125,-0.76171875,-200.5487804878049,332.37804878048786,-333.1707317073171,70,8
298,0.841796875,-0.970703125,-1.052734375,-197.07317073170734,323.4146341463415,-312.8658536585366,70,8
299,0.783203125,-0.90966796875,-1.10400390625,-184.63414634146343,314.57317073170736,-290.5487804878049,70,8
300,0.5966796875,-0.86279296875,-1.0869140625,-172.8048780487805,303.5975609756098,-270.4878048780488,70,8
301,0.4111328125,-0.83447265625,-0.962890625,-168.35365853658539,298.4146341463415,-253.0487804878049,70,8
302,0.28759765625,-0.6904296875,-0.86279296875,-169.02439024390245,290.0,-237.56097560975613,70,8
303,0.19921875,-0.6005859375,-0.8525390625,-170.97560975609758,278.9634146341464,-221.15853658536588,70,8
304,0.2080078125,-0.29736328125,-0.8759765625,-174.39024390243904,268.6585365853659,-218.0487804878049,70,8
305,0.0634765625,-0.36767578125,-0.9267578125,-172.6829268292683,255.91463414634148,-183.2926829268293,70,8
306,-0.04541015625,-0.36181640625,-1.001953125,-195.609756097561,242.8048780487805,-163.47560975609758,70,8
307,-0.017578125,-0.158203125,-0.91259765625,-187.56097560975613,227.56097560975613,-148.2317073170732,70,8
308,-0.341796875,-0.39306640625,-0.8828125,-199.32926829268294,220.2439024390244,-129.14634146341464,70,8
309,-0.52587890625,-0.4130859375,-0.8447265625,-198.35365853658539,201.40243902439025,-121.40243902439025,70,8
310,-0.60595703125,-0.33154296875,-0.74169921875,-186.95121951219514,189.75609756097563,-119.02439024390245,70,8
311,-0.62841796875,-0.10498046875,-0.56787109375,-188.1707317073171,173.59756097560978,-111.15853658536587,70,8
312,-0.693359375,-0.0400390625,-0.54345703125,-194.45121951219514,172.13414634146343,-106.64634146341464,70,8
313,-0.6494140625,-0.12451171875,-0.6201171875,-194.75609756097563,164.26829268292684,-99.14634146341464,70,8
314,-0.6982421875,-0.05712890625,-0.6572265625,-199.20731707317074,156.15853658536588,-92.01219512195122,70,8
315,-0.76318359375,-0.03125,-0.65185546875,-194.26829268292684,148.1707317073171,-86.03658536585367,70,8
316,-0.806640625,-0.0283203125,-0.62939453125,-191.03658536585368,139.08536585365854,-82.43902439024392,70,8
317,-0.86328125,-0.001953125,-0.611328125,-177.07317073170734,127.25609756097562,-93.53658536585367,70,8
318,-0.87451171875,0.103515625,-0.53369140625,-161.58536585365854,117.19512195121952,-73.59756097560977,70,8
319,-0.943359375,0.0712890625,-0.513671875,-155.2439024390244,112.6829268292683,-70.54878048780489,70,8
320,-0.92626953125,0.1142578125,-0.44970703125,-152.07317073170734,114.02439024390245,-65.79268292682927,70,8
321,-0.9794921875,0.07177734375,-0.3544921875,-148.65853658536588,112.01219512195122,-58.71951219512196,70,8
322,-1.06103515625,0.00927734375,-0.3720703125,-155.7317073170732,105.06097560975611,-50.79268292682927,70,8
323,-1.09423828125,-0.044921875,-0.4013671875,-127.98780487804879,96.89024390243904,-44.69512195121952,70,8
324,-1.11669921875,-0.09814453125,-0.47119140625,-116.34146341463416,90.2439024390244,-37.743902439024396,70,8
325,-1.07568359375,-0.111328125,-0.47998046875,-102.37804878048782,81.21951219512196,-30.000000000000004,70,8
326,-1.07470703125,-0.09814453125,-0.39794921875,-87.6219512195122,72.92682926829269,-20.30487804878049,70,8
327,-1.19287109375,-0.1572265625,-0.396484375,-82.01219512195122,64.9390243902439,-15.121951219512196,70,8
328,-1.18798828125,-0.0693359375,-0.31005859375,-72.6219512195122,58.71951219512196,-12.80487804878049,70,8
329,-1.20166015625,-0.0126953125,-0.34228515625,-67.25609756097562,48.170731707317074,-9.939024390243903,70,8
330,-1.1875,0.02587890625,-0.38623046875,-62.50000000000001,39.451219512195124,-7.500000000000001,70,8
331,-1.158203125,0.025390625,-0.42529296875,-58.963414634146346,29.939024390243905,-4.878048780487806,70,8
332,-1.146484375,0.03369140625,-0.423828125,-52.6829268292683,20.54878048780488,-0.5487804878048781,70,8
333,-1.19775390625,-0.01806640625,-0.4091796875,-48.170731707317074,11.951219512195124,3.780487804878049,70,8
334,-1.2353515625,-0.072265625,-0.43017578125,-44.51219512195122,3.7195121951219514,6.158536585365854,70,8
335,-1.23388671875,-0.0791015625,-0.384765625,-35.97560975609756,-4.390243902439025,7.621951219512196,70,8
336,-1.20068359375,-0.0517578125,-0.32421875,-27.500000000000004,-11.463414634146343,11.646341463414634,70,8
337,-1.2109375,-0.03759765625,-0.27294921875,-22.5609756097561,-16.585365853658537,16.463414634146343,70,8
338,-1.22412109375,-0.0068359375,-0.13037109375,-18.10975609756098,-21.402439024390247,20.30487804878049,70,8
339,-1.23046875,0.01611328125,-0.2763671875,-14.451219512195124,-26.158536585365855,24.085365853658537,70,8
340,-1.22900390625,0.0244140625,-0.27880859375,-9.939024390243903,-30.182926829268297,26.58536585365854,70,8
341,-1.212890625,0.05908203125,-0.25732421875,-5.365853658536586,-34.08536585365854,30.60975609756098,70,8
342,-1.1962890625,0.0703125,-0.22900390625,-0.6097560975609757,-39.57317073170732,34.268292682926834,70,8
343,-1.17724609375,0.0673828125,-0.21240234375,4.207317073170732,-43.65853658536586,36.40243902439025,70,8
344,-1.15576171875,0.07763671875,-0.21533203125,9.695121951219512,-48.71951219512196,37.80487804878049,70,8
345,-1.09423828125,0.0,-0.21728515625,15.000000000000002,-53.84146341463415,38.29268292682927,70,8
346,-1.056640625,0.15771484375,-0.19873046875,19.451219512195124,-57.743902439024396,38.59756097560976,70,8
347,-1.01220703125,0.185546875,-0.16650390625,22.012195121951223,-46.89024390243903,38.71951219512196,70,8
348,-0.98193359375,0.20263671875,-0.16162109375,24.81707317073171,-67.37804878048782,38.53658536585366,70,8
349,-0.98046875,0.22412109375,-0.13720703125,28.780487804878053,-72.07317073170732,38.65853658536586,70,8
350,-0.9853515625,0.22705078125,-0.10791015625,32.43902439024391,-77.13414634146342,38.10975609756098,70,8
351,-0.9921875,0.224609375,-0.0830078125,34.390243902439025,-79.93902439024392,37.19512195121951,70,8
352,-1.00244140625,0.2236328125,-0.08056640625,34.146341463414636,-82.13414634146342,35.97560975609756,70,8
353,-1.02978515625,0.2333984375,-0.08056640625,33.84146341463415,-85.97560975609757,35.54878048780488,70,8
354,-1.02978515625,0.22705078125,-0.08056640625,37.13414634146342,-91.58536585365854,35.36585365853659,70,8
355,-1.02783203125,0.20751953125,-0.07568359375,40.73170731707317,-96.34146341463415,35.79268292682927,70,8
356,-1.03076171875,0.20361328125,-0.0517578125,43.23170731707317,-100.97560975609757,36.03658536585366,70,8
357,-1.0322265625,0.21044921875,-0.03271484375,44.51219512195122,-104.93902439024392,36.646341463414636,70,8
358,-1.02001953125,0.2333984375,-0.001953125,45.0609756097561,-108.96341463414635,37.926829268292686,70,8
359,-1.01171875,0.2470703125,0.0302734375,46.28048780487805,-115.3658536585366,39.69512195121951,70,8
360,-0.99365234375,0.2666015625,0.0234375,50.00000000000001,-122.92682926829269,41.21951219512196,70,8
361,-1.001953125,0.24609375,0.03076171875,53.84146341463415,-127.8048780487805,42.25609756097561,70,8
362,-0.97021484375,0.259765625,0.046875,55.54878048780488,-131.34146341463415,43.47560975609756,70,8
363,-0.91064453125,0.30078125,0.068359375,55.60975609756098,-132.5,44.81707317073171,70,8
364,-0.841796875,0.326171875,0.115234375,52.6219512195122,-132.6829268292683,45.91463414634147,70,8
365,-0.82568359375,0.33251953125,0.1455078125,49.57317073170732,-132.31707317073173,46.58536585365854,70,8
366,-0.7822265625,0.359375,0.15869140625,47.804878048780495,-133.47560975609758,47.25609756097561,70,8
367,-0.865234375,0.375,0.16015625,48.59756097560976,-138.59756097560978,47.926829268292686,70,8
368,-0.72705078125,0.36572265625,0.1875,50.0609756097561,-142.8658536585366,47.804878048780495,70,8
369,-0.72119140625,0.34326171875,0.22900390625,50.91463414634147,-145.3658536585366,47.743902439024396,70,8
370,-0.6953125,0.3310546875,0.28759765625,52.926829268292686,-146.70731707317074,48.65853658536586,70,8
371,-0.681640625,0.330078125,0.3408203125,54.024390243902445,-147.31707317073173,50.0609756097561,70,8
372,-0.64697265625,0.3515625,0.3515625,55.426829268292686,-149.32926829268294,51.768292682926834,70,8
373,-0.64404296875,0.34228515625,0.359375,56.89024390243903,-150.0609756097561,51.707317073170735,70,8
374,-0.62255859375,0.357421875,0.25146484375,59.207317073170735,-150.1829268292683,51.03658536585366,70,8
375,-0.57958984375,0.38720703125,0.376953125,61.03658536585366,-150.5487804878049,51.768292682926834,70,8
376,-0.5244140625,0.4248046875,0.38232421875,60.67073170731708,-150.2439024390244,52.6219512195122,70,8
377,-0.4814453125,0.427734375,0.40234375,58.59756097560976,-148.84146341463415,53.65853658536586,70,8
378,-0.4755859375,0.40478515625,0.3916015625,56.09756097560976,-146.76829268292684,53.53658536585366,70,8
379,-0.47119140625,0.4052734375,0.40869140625,54.75609756097561,-145.91463414634148,52.804878048780495,70,8
380,-0.45263671875,0.40576171875,0.455078125,56.34146341463415,-146.40243902439025,53.10975609756098,70,8
381,-0.45068359375,0.38232421875,0.50927734375,58.04878048780488,-147.5,53.90243902439025,70,8
382,-0.45166015625,0.37841796875,0.53662109375,60.365853658536594,-147.5,54.63414634146342,70,8
383,-0.455078125,0.39013671875,0.54931640625,46.89024390243903,-146.46341463414635,55.426829268292686,70,8
384,-0.42578125,0.4130859375,0.5595703125,64.45121951219512,-145.1219512195122,56.585365853658544,70,8
385,-0.38623046875,0.43505859375,0.55224609375,65.85365853658537,-143.96341463414635,57.31707317073171,70,8
386,-0.333984375,0.46630859375,0.54345703125,66.82926829268293,-143.71951219512195,58.47560975609757,70,8
387,-0.310546875,0.45556640625,0.5302734375,65.67073170731707,-142.7439024390244,58.71951219512196,70,8
388,-0.29150390625,0.4775390625,0.5068359375,64.39024390243902,-142.5609756097561,58.04878048780488,70,8
389,-0.25927734375,0.490234375,0.48388671875,60.85365853658537,-141.28048780487805,57.31707317073171,70,8
390,-0.2197265625,0.51708984375,0.4736328125,57.31707317073171,-140.7317073170732,57.01219512195122,70,8
391,-0.19287109375,0.501953125,0.51220703125,53.41463414634147,-140.2439024390244,57.50000000000001,70,8
392,-0.201171875,0.453125,0.5458984375,51.15853658536586,-139.02439024390245,57.31707317073171,70,8
393,-0.20458984375,0.43994140625,0.568359375,51.768292682926834,-137.8048780487805,56.646341463414636,70,8
394,-0.2021484375,0.43310546875,0.5908203125,54.024390243902445,-136.89024390243904,56.15853658536586,70,8
395,-0.16796875,0.4462890625,0.5830078125,57.07317073170732,-135.91463414634148,55.97560975609757,70,8
396,-0.12646484375,0.48779296875,0.57421875,57.865853658536594,-134.51219512195124,55.487804878048784,70,8
397,-0.07958984375,0.50341796875,0.568359375,56.82926829268293,-132.9878048780488,54.75609756097561,70,8
398,-0.06103515625,0.53271484375,0.57568359375,54.93902439024391,-131.76829268292684,53.90243902439025,70,8
399,-0.0400390625,0.54833984375,0.5634765625,52.43902439024391,-130.609756097561,53.10975609756098,70,8
400,-0.01708984375,0.56640625,0.54296875,49.75609756097561,-131.15853658536585,52.5609756097561,70,8
401,-0.0009765625,0.572265625,0.53125,62.37804878048781,-132.25609756097563,51.707317073170735,70,8
402,0.00341796875,0.57763671875,0.53662109375,43.84146341463415,-133.0487804878049,50.670731707317074,70,8
403,0.0205078125,0.5869140625,0.55615234375,40.426829268292686,-132.9878048780488,49.146341463414636,70,8
404,0.03662109375,0.59375,0.580078125,36.34146341463415,-132.37804878048783,47.6829268292683,70,8
405,0.0419921875,0.5966796875,0.51220703125,33.41463414634146,-131.58536585365854,47.01219512195122,70,8
406,0.0361328125,0.548828125,0.662109375,32.5,-130.85365853658539,46.768292682926834,70,8
407,0.03173828125,0.521484375,0.650390625,34.32926829268293,-129.69512195121953,46.646341463414636,70,8
408,0.04150390625,0.52685546875,0.61767578125,37.743902439024396,-129.9390243902439,46.524390243902445,70,8
409,0.0927734375,0.55126953125,0.56884765625,41.646341463414636,-131.58536585365854,46.646341463414636,70,8
410,0.1220703125,0.5712890625,0.53466796875,42.43902439024391,-132.9268292682927,46.646341463414636,70,8
411,0.166015625,0.611328125,0.50439453125,41.15853658536586,-134.08536585365854,47.13414634146342,70,8
412,0.177734375,0.623046875,0.48486328125,37.19512195121951,-134.32926829268294,48.10975609756098,70,8
413,0.19287109375,0.65869140625,0.4599609375,33.109756097560975,-135.1829268292683,48.59756097560976,70,8
414,0.19287109375,0.68408203125,0.49658203125,29.08536585365854,-136.34146341463415,49.39024390243903,70,8
415,0.1640625,0.66650390625,0.55419921875,25.30487804878049,-135.3048780487805,50.73170731707317,70,8
416,0.13134765625,0.64453125,0.509765625,22.378048780487806,-133.109756097561,52.31707317073171,70,8
417,0.08935546875,0.744140625,0.671875,21.219512195121954,-130.6707317073171,54.63414634146342,70,8
418,0.0546875,0.603515625,0.72021484375,22.682926829268293,-128.53658536585368,57.43902439024391,70,8
419,0.04443359375,0.59375,0.7236328125,25.975609756097562,-125.97560975609757,60.73170731707317,70,8
420,0.0498046875,0.587890625,0.6875,29.207317073170735,-126.52439024390245,65.97560975609757,70,8
421,0.06640625,0.5986328125,0.6328125,15.79268292682927,-126.21951219512196,69.87804878048782,70,8
422,0.10009765625,0.6240234375,0.568359375,31.82926829268293,-126.46341463414635,73.04878048780489,70,8
423,0.1455078125,0.67822265625,0.51220703125,30.365853658536587,-126.52439024390245,75.2439024390244,70,8
424,0.2001953125,0.73291015625,0.47607421875,24.512195121951223,-125.2439024390244,76.21951219512196,70,8
425,0.13427734375,0.78125,0.4833984375,30.914634146341466,-123.35365853658537,77.37804878048782,70,8
426,0.29150390625,0.8017578125,0.49755859375,4.817073170731708,-122.19512195121952,78.29268292682927,70,8
427,0.3017578125,0.77685546875,0.529296875,-3.231707317073171,-121.15853658536587,78.23170731707317,70,8
428,0.314453125,0.8701171875,0.59619140625,-6.097560975609756,-121.03658536585367,93.59756097560977,70,8
429,0.29638671875,0.701171875,0.61376953125,-4.634146341463415,-122.01219512195124,78.17073170731707,70,8
430,0.26904296875,0.6708984375,0.5947265625,-1.0365853658536586,-122.43902439024392,77.07317073170732,70,8
431,0.29150390625,0.67431640625,0.5751953125,2.1951219512195124,-122.98780487804879,77.25609756097562,70,8
432,0.3076171875,0.67626953125,0.5654296875,5.365853658536586,-123.53658536585367,78.53658536585367,70,8
433,0.3486328125,0.693359375,0.564453125,6.402439024390245,-121.76829268292684,78.78048780487805,70,8
434,0.37451171875,0.6865234375,0.54638671875,4.817073170731708,-118.35365853658537,78.35365853658537,70,8
435,0.4208984375,0.71240234375,0.53564453125,2.378048780487805,-114.93902439024392,77.01219512195122,70,8
436,0.46142578125,0.74072265625,0.52685546875,0.853658536585366,-112.56097560975611,75.79268292682927,70,8
437,0.5048828125,0.76513671875,0.6240234375,-0.426829268292683,-110.67073170731709,74.39024390243902,70,8
438,0.54638671875,0.75390625,0.48876953125,-2.1341463414634148,-111.52439024390245,73.04878048780489,70,8
439,0.5673828125,0.72705078125,0.43408203125,-3.4756097560975614,-112.98780487804879,70.1829268292683,70,8
440,0.58837890625,0.72021484375,0.4287109375,-3.4756097560975614,-115.3048780487805,67.25609756097562,70,8
441,0.58642578125,0.708984375,0.4619140625,-2.682926829268293,-116.46341463414635,64.87804878048782,70,8
442,0.5849609375,0.6962890625,0.4638671875,-2.073170731707317,-116.89024390243904,62.865853658536594,70,8
443,0.591796875,0.67529296875,0.44189453125,-3.9024390243902443,-116.09756097560977,61.585365853658544,70,8
444,0.578125,0.634765625,0.45654296875,-6.585365853658537,-114.02439024390245,61.09756097560976,70,8
445,0.59130859375,0.59033203125,0.45947265625,-8.475609756097562,-112.43902439024392,61.21951219512196,70,8
446,0.5927734375,0.55078125,0.4697265625,-9.573170731707318,-112.25609756097562,61.646341463414636,70,8
447,0.58642578125,0.4931640625,0.4716796875,-9.695121951219512,-111.40243902439025,61.21951219512196,70,8
448,0.6015625,0.49267578125,0.4921875,-6.951219512195123,-110.79268292682927,60.243902439024396,70,8
449,0.619140625,0.49365234375,0.47900390625,-4.817073170731708,-111.82926829268294,60.060975609756106,70,8
450,0.64111328125,0.49169921875,0.49609375,-3.353658536585366,-112.37804878048782,60.487804878048784,70,8
451,0.66259765625,0.4755859375,0.5185546875,-2.3170731707317076,-112.19512195121952,61.09756097560976,70,8
452,0.6708984375,0.4755859375,0.5419921875,1.402439024390244,-111.64634146341464,61.34146341463415,70,8
453,0.63671875,0.451171875,0.5625,4.207317073170732,-111.46341463414635,60.365853658536594,70,8
454,0.74658203125,0.44970703125,0.46435546875,6.585365853658537,-112.50000000000001,60.54878048780488,70,8
455,0.60205078125,0.43115234375,0.4267578125,9.02439024390244,-111.82926829268294,59.451219512195124,70,8
456,0.74755859375,0.4423828125,0.4072265625,11.463414634146343,-111.82926829268294,59.93902439024391,70,8
457,0.66650390625,0.44873046875,0.361328125,11.219512195121952,-112.56097560975611,62.804878048780495,70,8
458,0.66015625,0.45068359375,0.32763671875,7.560975609756098,-113.35365853658537,65.85365853658537,70,8
459,0.658203125,0.42529296875,0.29736328125,4.329268292682928,-113.78048780487806,68.71951219512195,70,8
460,0.63525390625,0.38916015625,0.37158203125,6.2804878048780495,-115.3048780487805,70.1219512195122,70,8
461,0.62646484375,0.36669921875,0.42578125,11.219512195121952,-116.64634146341464,72.07317073170732,70,8
462,0.505859375,0.353515625,0.4599609375,19.512195121951223,-116.15853658536587,72.5609756097561,70,8
463,0.65576171875,0.322265625,0.380859375,27.25609756097561,-113.53658536585367,74.75609756097562,70,8
464,0.6328125,0.28955078125,0.5078125,30.975609756097565,-107.8658536585366,75.3658536585366,70,8
465,0.6513671875,0.326171875,0.46533203125,32.5609756097561,-103.41463414634147,77.31707317073172,70,8
466,0.6767578125,0.34716796875,0.48486328125,32.6829268292683,-96.28048780487806,80.0609756097561,70,8
467,0.66259765625,0.31103515625,0.4541015625,28.475609756097562,-88.90243902439025,83.96341463414635,70,8
468,0.6669921875,0.29150390625,0.49755859375,23.59756097560976,-82.92682926829269,87.7439024390244,70,8
469,0.6533203125,0.2822265625,0.34912109375,23.170731707317074,-81.09756097560977,91.58536585365854,70,8
470,0.63623046875,0.2607421875,0.37548828125,29.573170731707318,-83.41463414634147,96.09756097560977,70,8
471,0.615234375,0.2158203125,0.37109375,33.29268292682927,-82.37804878048782,97.37804878048782,70,8
472,0.6220703125,0.193359375,0.31884765625,31.646341463414636,-76.70731707317074,96.82926829268294,70,8
473,0.68212890625,0.23095703125,0.2939453125,25.182926829268293,-70.85365853658537,96.28048780487806,70,8
474,0.74853515625,0.294921875,0.267578125,18.597560975609756,-65.91463414634147,96.34146341463415,70,8
475,0.75341796875,0.298828125,0.23828125,12.317073170731708,-61.82926829268293,101.03658536585367,70,8
476,0.74169921875,0.2685546875,0.2353515625,9.207317073170733,-59.39024390243903,103.96341463414635,70,8
477,0.71728515625,0.22900390625,0.240234375,10.975609756097562,-59.024390243902445,107.13414634146342,70,8
478,0.71337890625,0.2001953125,0.2001953125,12.865853658536587,-59.268292682926834,108.78048780487806,70,8
479,0.705078125,0.17578125,0.1484375,14.756097560975611,-59.51219512195122,110.67073170731709,70,8
480,0.73193359375,0.166015625,0.09521484375,15.060975609756099,-58.41463414634147,111.70731707317074,70,8
481,0.77880859375,0.205078125,0.10009765625,13.902439024390246,-55.79268292682927,111.58536585365854,70,8
482,0.81884765625,0.21728515625,0.12890625,11.219512195121952,-52.43902439024391,112.6829268292683,70,8
483,0.830078125,0.20361328125,0.103515625,8.109756097560977,-49.51219512195122,113.90243902439025,70,8
484,0.81298828125,0.17041015625,0.09228515625,5.914634146341464,-45.426829268292686,113.04878048780489,70,8
485,0.7978515625,0.13427734375,0.076171875,-0.853658536585366,-37.25609756097561,110.3048780487805,70,8
486,0.85986328125,0.15673828125,0.04443359375,-8.048780487804878,-30.670731707317074,107.01219512195122,70,8
487,0.94140625,0.19677734375,0.009765625,-14.26829268292683,-26.03658536585366,105.3658536585366,70,8
488,0.92431640625,0.16552734375,-0.0234375,-18.414634146341466,-25.670731707317074,105.1829268292683,70,8
489,0.8857421875,0.09619140625,-0.05078125,-17.804878048780488,-28.84146341463415,105.1829268292683,70,8
490,0.8486328125,0.04833984375,-0.0341796875,-11.402439024390246,-32.926829268292686,104.39024390243904,70,8
491,0.83642578125,0.0322265625,-0.0078125,-2.439024390243903,-38.23170731707317,103.47560975609757,70,8
492,0.86376953125,0.01708984375,-0.021484375,5.731707317073171,-44.024390243902445,103.96341463414635,70,8
493,0.84716796875,0.0146484375,-0.0654296875,10.914634146341465,-47.13414634146342,103.41463414634147,70,8
494,0.857421875,0.01171875,-0.0751953125,13.719512195121952,-48.84146341463415,101.21951219512196,70,8
495,0.8974609375,0.0322265625,-0.12060546875,8.902439024390244,-45.73170731707317,97.01219512195122,70,8
496,0.95556640625,0.0712890625,-0.1611328125,-1.1585365853658538,-41.34146341463415,94.26829268292684,70,8
497,0.9716796875,0.0869140625,-0.197265625,-10.609756097560977,-35.670731707317074,90.54878048780489,70,8
498,0.97900390625,0.0927734375,-0.16552734375,-17.5,-31.646341463414636,87.50000000000001,70,8
499,0.96923828125,0.0693359375,-0.16845703125,-23.53658536585366,-30.182926829268297,86.15853658536587,70,8
