,Ax,Ay,Az,Gx,Gy,Gz,distance,shot_type
0,0.6083984375,-0.61181640625,-0.34619140625,-0.48780487804878053,0.6707317073170732,17.621951219512198,60,8
1,0.607421875,-0.59619140625,-0.32763671875,-0.06097560975609757,-0.3658536585365854,16.402439024390244,60,8
2,0.6025390625,-0.5810546875,-0.28369140625,2.5,-2.378048780487805,13.719512195121952,60,8
3,0.63037109375,-0.5087890625,-0.25244140625,6.890243902439025,-5.0,10.121951219512196,60,8
4,0.68603515625,-0.419921875,-0.24462890625,10.0,-6.7682926829268295,7.987804878048781,60,8
5,0.68505859375,-0.3828125,-0.22216796875,11.890243902439025,-7.378048780487806,6.341463414634147,60,8
6,0.6953125,-0.3623046875,-0.20068359375,13.719512195121952,-7.01219512195122,3.9024390243902443,60,8
7,0.71044921875,-0.337890625,-0.19287109375,15.54878048780488,-6.7682926829268295,2.25609756097561,60,8
8,0.72412109375,-0.3017578125,-0.1943359375,16.28048780487805,-6.036585365853659,0.48780487804878053,60,8
9,0.76708984375,-0.26513671875,-0.21630859375,16.097560975609756,-4.146341463414634,-1.7682926829268295,60,8
10,0.80322265625,-0.22021484375,-0.2216796875,14.756097560975611,-1.524390243902439,-3.353658536585366,60,8
11,0.82421875,-0.18994140625,-0.22802734375,12.073170731707318,1.402439024390244,-5.3048780487804885,60,8
12,0.8544921875,-0.1845703125,-0.2431640625,8.475609756097562,5.060975609756098,-6.52439024390244,60,8
13,0.861328125,-0.18896484375,-0.24462890625,6.097560975609756,7.195121951219513,-6.707317073170732,60,8
14,0.84130859375,-0.24755859375,-0.24609375,5.975609756097562,8.048780487804878,-5.914634146341464,60,8
15,0.78955078125,-0.34912109375,-0.23876953125,5.7926829268292686,9.756097560975611,-4.024390243902439,60,8
16,0.73291015625,-0.40283203125,-0.21875,6.52439024390244,11.28048780487805,-3.536585365853659,60,8
17,0.71533203125,-0.40087890625,-0.2216796875,7.926829268292684,12.134146341463415,-3.2926829268292686,60,8
18,0.73779296875,-0.38623046875,-0.224609375,7.317073170731708,14.51219512195122,-3.963414634146342,60,8
19,0.76025390625,-0.380859375,-0.24169921875,4.573170731707317,17.621951219512198,-4.817073170731708,60,8
20,0.74609375,-0.4169921875,-0.26025390625,15.30487804878049,20.0,-5.365853658536586,60,8
21,0.625,-0.42724609375,-0.24267578125,-3.4756097560975614,21.585365853658537,-6.7682926829268295,60,8
22,0.86767578125,-0.44287109375,-0.20361328125,-4.878048780487806,21.951219512195124,-7.134146341463415,60,8
23,0.71533203125,-0.3818359375,-0.19677734375,-2.6219512195121952,20.365853658536587,-7.621951219512196,60,8
24,0.70263671875,-0.5966796875,-0.244140625,2.3170731707317076,17.743902439024392,-6.951219512195123,60,8
25,0.66162109375,-0.64990234375,-0.287109375,7.500000000000001,14.26829268292683,-5.3048780487804885,60,8
26,0.63330078125,-0.67822265625,-0.29150390625,11.829268292682928,11.036585365853659,-4.024390243902439,60,8
27,0.61572265625,-0.685546875,-0.291015625,13.04878048780488,9.329268292682928,-1.8902439024390245,60,8
28,0.5947265625,-0.6875,-0.30126953125,11.585365853658537,9.939024390243903,-0.7926829268292683,60,8
29,0.578125,-0.7001953125,-0.3046875,6.707317073170732,12.317073170731708,1.2804878048780488,60,8
30,0.57568359375,-0.71435546875,-0.33544921875,2.0121951219512195,14.085365853658537,3.048780487804878,60,8
31,0.57763671875,-0.7109375,-0.341796875,-1.524390243902439,14.634146341463415,5.060975609756098,60,8
32,0.560546875,-0.71484375,-0.3388671875,-3.658536585365854,14.878048780487806,6.707317073170732,60,8
33,0.54052734375,-0.7197265625,-0.322265625,-4.75609756097561,13.29268292682927,7.500000000000001,60,8
34,0.53759765625,-0.69189453125,-0.3505859375,-4.51219512195122,12.256097560975611,7.134146341463415,60,8
35,0.578125,-0.6474609375,-0.369140625,-1.8902439024390245,9.51219512195122,6.341463414634147,60,8
36,0.61767578125,-0.619140625,-0.37060546875,0.7926829268292683,6.829268292682928,6.219512195121951,60,8
37,0.619140625,-0.603515625,-0.36865234375,2.3170731707317076,5.121951219512195,5.914634146341464,60,8
38,0.607421875,-0.57470703125,-0.34814453125,3.9024390243902443,3.353658536585366,5.609756097560976,60,8
39,0.60595703125,-0.55126953125,-0.3095703125,4.695121951219512,2.25609756097561,5.914634146341464,60,8
40,0.60205078125,-0.52197265625,-0.2744140625,6.158536585365854,1.5853658536585367,5.609756097560976,60,8
41,0.61279296875,-0.4970703125,-0.248046875,7.8048780487804885,0.6097560975609757,4.75609756097561,60,8
42,0.63720703125,-0.45068359375,-0.25146484375,8.536585365853659,0.30487804878048785,3.9024390243902443,60,8
43,0.65966796875,-0.4228515625,-0.26171875,8.658536585365855,1.0365853658536586,3.2926829268292686,60,8
44,0.6796875,-0.4208984375,-0.2646484375,7.987804878048781,2.439024390243903,2.5609756097560976,60,8
45,0.693359375,-0.4169921875,-0.26806640625,7.01219512195122,4.146341463414634,1.707317073170732,60,8
46,0.71630859375,-0.39990234375,-0.2568359375,5.182926829268293,6.463414634146342,1.2804878048780488,60,8
47,0.716796875,-0.4052734375,-0.234375,5.609756097560976,7.621951219512196,0.7317073170731708,60,8
48,0.7177734375,-0.4228515625,-0.2236328125,7.01219512195122,7.743902439024391,0.7317073170731708,60,8
49,0.7255859375,-0.43359375,-0.232421875,6.951219512195123,8.597560975609756,0.48780487804878053,60,8
50,0.78466796875,-0.39794921875,-0.23193359375,5.121951219512195,11.28048780487805,1.7682926829268295,60,8
51,0.732421875,-0.4482421875,-0.21826171875,0.6097560975609757,14.085365853658537,2.8658536585365857,60,8
52,0.69287109375,-0.490234375,-0.236328125,-1.4634146341463417,13.963414634146343,3.5975609756097566,60,8
53,0.67529296875,-0.5302734375,-0.2490234375,1.2804878048780488,10.792682926829269,3.231707317073171,60,8
54,0.705078125,-0.51220703125,-0.24169921875,5.3048780487804885,8.841463414634147,3.353658536585366,60,8
55,0.71435546875,-0.51171875,-0.19580078125,5.2439024390243905,9.573170731707318,3.048780487804878,60,8
56,0.6943359375,-0.50927734375,-0.193359375,5.182926829268293,9.817073170731708,2.073170731707317,60,8
57,0.67333984375,-0.533203125,-0.20458984375,6.097560975609756,8.536585365853659,1.524390243902439,60,8
58,0.6748046875,-0.5380859375,-0.21875,7.743902439024391,7.378048780487806,0.7317073170731708,60,8
59,0.6669921875,-0.541015625,-0.216796875,8.841463414634147,7.560975609756098,0.06097560975609757,60,8
60,0.65673828125,-0.5595703125,-0.22216796875,9.207317073170733,7.500000000000001,-0.426829268292683,60,8
61,0.6748046875,-0.55322265625,-0.2177734375,10.060975609756099,8.048780487804878,-0.426829268292683,60,8
62,0.65673828125,-0.572265625,-0.203125,11.341463414634147,7.865853658536586,-0.1829268292682927,60,8
63,0.6484375,-0.56396484375,-0.22021484375,12.926829268292684,7.073170731707318,-0.1829268292682927,60,8
64,0.6650390625,-0.55419921875,-0.2138671875,13.170731707317074,7.8048780487804885,0.3658536585365854,60,8
65,0.6650390625,-0.54541015625,-0.19189453125,12.317073170731708,9.878048780487806,1.0975609756097562,60,8
66,0.64892578125,-0.56005859375,-0.17529296875,10.792682926829269,11.402439024390246,1.2804878048780488,60,8
67,0.6533203125,-0.560546875,-0.18701171875,9.573170731707318,12.621951219512196,2.1951219512195124,60,8
68,0.64892578125,-0.5595703125,-0.19482421875,8.78048780487805,12.80487804878049,2.5609756097560976,60,8
69,0.64013671875,-0.57568359375,-0.1796875,9.695121951219512,12.926829268292684,3.414634146341464,60,8
70,0.6396484375,-0.60205078125,-0.16259765625,11.76829268292683,12.500000000000002,3.4756097560975614,60,8
71,0.6748046875,-0.57421875,-0.146484375,13.597560975609758,12.80487804878049,2.439024390243903,60,8
72,0.7080078125,-0.53369140625,-0.14453125,13.841463414634148,13.597560975609758,1.4634146341463417,60,8
73,0.73046875,-0.505859375,-0.15869140625,13.353658536585368,14.02439024390244,0.3658536585365854,60,8
74,0.71484375,-0.51171875,-0.15673828125,11.463414634146343,15.487804878048783,0.48780487804878053,60,8
75,0.68798828125,-0.53125,-0.158203125,8.658536585365855,17.012195121951223,0.426829268292683,60,8
76,0.6787109375,-0.53271484375,-0.14404296875,6.646341463414635,18.414634146341466,1.0365853658536586,60,8
77,0.646484375,-0.57470703125,-0.126953125,6.52439024390244,21.82926829268293,4.146341463414634,60,8
78,0.607421875,-0.62548828125,-0.076171875,6.951219512195123,25.731707317073173,6.829268292682928,60,8
79,0.5947265625,-0.63232421875,-0.0537109375,7.8048780487804885,27.621951219512198,6.707317073170732,60,8
80,0.623046875,-0.5693359375,-0.1015625,11.76829268292683,27.621951219512198,7.25609756097561,60,8
81,0.71044921875,-0.5322265625,-0.072265625,12.256097560975611,30.365853658536587,9.695121951219512,60,8
82,0.72705078125,-0.56298828125,-0.03076171875,4.75609756097561,40.304878048780495,12.073170731707318,60,8
83,0.69189453125,-0.57177734375,-0.0244140625,-5.731707317073171,47.19512195121952,11.646341463414634,60,8
84,0.69580078125,-0.52783203125,-0.087890625,-12.378048780487806,50.304878048780495,10.792682926829269,60,8
85,0.68701171875,-0.50244140625,-0.12353515625,-0.12195121951219513,51.15853658536586,11.036585365853659,60,8
86,0.7197265625,-0.47509765625,-0.13134765625,-15.731707317073171,51.03658536585366,11.158536585365855,60,8
87,0.7158203125,-0.46875,-0.10986328125,-16.219512195121954,52.25609756097561,11.341463414634147,60,8
88,0.70849609375,-0.47607421875,-0.0068359375,-19.02439024390244,53.84146341463415,10.731707317073171,60,8
89,0.7119140625,-0.4580078125,-0.1689453125,-20.975609756097562,57.6219512195122,9.756097560975611,60,8
90,0.72607421875,-0.43896484375,-0.1875,-23.719512195121954,61.28048780487806,9.085365853658537,60,8
91,0.71142578125,-0.439453125,-0.18212890625,-27.439024390243905,64.20731707317074,8.414634146341465,60,8
92,0.7177734375,-0.42919921875,-0.23046875,-29.695121951219516,66.34146341463415,8.841463414634147,60,8
93,0.703125,-0.45361328125,-0.2158203125,-32.07317073170732,67.37804878048782,10.365853658536587,60,8
94,0.701171875,-0.4521484375,-0.29052734375,-33.65853658536586,66.46341463414635,11.646341463414634,60,8
95,0.72216796875,-0.421875,-0.32666015625,-34.51219512195122,67.25609756097562,12.256097560975611,60,8
96,0.736328125,-0.3935546875,-0.31201171875,-41.40243902439025,68.90243902439025,10.975609756097562,60,8
97,0.74609375,-0.361328125,-0.32080078125,-48.10975609756098,70.60975609756098,9.756097560975611,60,8
98,0.7275390625,-0.3427734375,-0.3525390625,-53.17073170731708,70.85365853658537,7.926829268292684,60,8
99,0.73095703125,-0.341796875,-0.40771484375,-56.951219512195124,69.45121951219512,5.365853658536586,60,8
100,0.724609375,-0.34765625,-0.41796875,-58.10975609756098,67.5,3.1707317073170733,60,8
101,0.6845703125,-0.404296875,-0.41015625,-59.57317073170732,64.57317073170732,2.5609756097560976,60,8
102,0.6787109375,-0.40576171875,-0.4208984375,-58.78048780487806,60.60975609756098,1.0975609756097562,60,8
103,0.68505859375,-0.419921875,-0.41748046875,-54.75609756097561,52.743902439024396,0.7926829268292683,60,8
104,0.65869140625,-0.4052734375,-0.49951171875,-49.207317073170735,62.31707317073171,0.6097560975609757,60,8
105,0.6904296875,-0.32177734375,-0.384765625,-47.01219512195122,41.646341463414636,-1.8902439024390245,60,8
106,0.7099609375,-0.27294921875,-0.39453125,-49.51219512195122,38.59756097560976,-3.1707317073170733,60,8
107,0.6923828125,-0.2919921875,-0.40869140625,-53.17073170731708,37.5609756097561,-4.207317073170732,60,8
108,0.69482421875,-0.296875,-0.3955078125,-55.79268292682927,35.0609756097561,-6.585365853658537,60,8
109,0.7119140625,-0.27490234375,-0.4228515625,-57.25609756097561,32.6219512195122,-9.695121951219512,60,8
110,0.7080078125,-0.2646484375,-0.41015625,-60.60975609756098,46.707317073170735,-11.951219512195124,60,8
111,0.712890625,-0.28466796875,-0.43310546875,-63.963414634146346,29.939024390243905,-13.597560975609758,60,8
112,0.7333984375,-0.29931640625,-0.43505859375,-65.2439024390244,27.987804878048784,-15.365853658536587,60,8
113,0.69921875,-0.306640625,-0.419921875,-65.2439024390244,24.390243902439025,-17.134146341463417,60,8
114,0.69482421875,-0.302734375,-0.42626953125,-64.9390243902439,21.82926829268293,-18.658536585365855,60,8
115,0.69482421875,-0.2978515625,-0.38427734375,-64.87804878048782,19.085365853658537,-19.146341463414636,60,8
116,0.70361328125,-0.3017578125,-0.3681640625,-66.09756097560977,18.29268292682927,-20.426829268292686,60,8
117,0.7216796875,-0.2958984375,-0.3642578125,-69.93902439024392,18.353658536585368,-22.439024390243905,60,8
118,0.689453125,-0.30859375,-0.3759765625,-73.96341463414635,17.98780487804878,-23.84146341463415,60,8
119,0.693359375,-0.31884765625,-0.38916015625,-76.28048780487805,16.463414634146343,-25.792682926829272,60,8
120,0.7109375,-0.3173828125,-0.38818359375,-77.25609756097562,14.634146341463415,-28.04878048780488,60,8
121,0.71435546875,-0.33203125,-0.40625,-79.63414634146342,13.475609756097562,-30.182926829268297,60,8
122,0.7373046875,-0.30859375,-0.3876953125,-83.17073170731707,12.682926829268293,-32.31707317073171,60,8
123,0.7373046875,-0.3134765625,-0.38427734375,-86.76829268292684,12.195121951219512,-34.207317073170735,60,8
124,0.74755859375,-0.30419921875,-0.36474609375,-90.67073170731707,12.317073170731708,-35.97560975609756,60,8
125,0.7431640625,-0.31689453125,-0.34326171875,-92.8658536585366,11.646341463414634,-37.43902439024391,60,8
126,0.7548828125,-0.32177734375,-0.37109375,-94.39024390243904,11.341463414634147,-39.451219512195124,60,8
127,0.7802734375,-0.29638671875,-0.376953125,-97.37804878048782,11.158536585365855,-41.768292682926834,60,8
128,0.80419921875,-0.2763671875,-0.388671875,-102.01219512195122,12.926829268292684,-44.207317073170735,60,8
129,0.8134765625,-0.28369140625,-0.40625,-107.43902439024392,15.000000000000002,-46.524390243902445,60,8
130,0.82421875,-0.2802734375,-0.412109375,-113.53658536585367,17.682926829268293,-48.84146341463415,60,8
131,0.84912109375,-0.28173828125,-0.421875,-118.84146341463416,19.02439024390244,-51.09756097560976,60,8
132,0.8525390625,-0.271484375,-0.4130859375,-123.71951219512196,20.914634146341466,-52.804878048780495,60,8
133,0.86279296875,-0.267578125,-0.3876953125,-128.96341463414635,22.98780487804878,-54.39024390243903,60,8
134,0.84521484375,-0.2861328125,-0.39990234375,-132.6219512195122,24.085365853658537,-55.79268292682927,60,8
135,0.8330078125,-0.283203125,-0.3984375,-135.0,24.32926829268293,-57.13414634146342,60,8
136,0.826171875,-0.29150390625,-0.400390625,-136.58536585365854,24.085365853658537,-58.41463414634147,60,8
137,0.83935546875,-0.27294921875,-0.412109375,-137.6219512195122,23.04878048780488,-60.85365853658537,60,8
138,0.86083984375,-0.228515625,-0.4404296875,-140.1219512195122,23.231707317073173,-64.45121951219512,60,8
139,0.888671875,-0.201171875,-0.44677734375,-144.57317073170734,23.84146341463415,-67.8048780487805,60,8
140,0.92724609375,-0.17626953125,-0.47119140625,-148.59756097560978,24.573170731707318,-71.58536585365854,60,8
141,0.94921875,-0.17431640625,-0.4453125,-153.41463414634148,26.646341463414636,-75.3658536585366,60,8
142,0.96337890625,-0.17578125,-0.44970703125,-158.35365853658539,27.134146341463417,-79.02439024390245,60,8
143,0.9609375,-0.17236328125,-0.43603515625,-162.19512195121953,28.292682926829272,-82.43902439024392,60,8
144,0.9697265625,-0.1591796875,-0.40673828125,-167.25609756097563,30.243902439024392,-86.15853658536587,60,8
145,0.958984375,-0.15185546875,-0.361328125,-173.1707317073171,33.35365853658537,-89.81707317073172,60,8
146,0.9716796875,-0.1201171875,-0.32861328125,-178.59756097560978,36.34146341463415,-94.14634146341464,60,8
147,0.87548828125,-0.09326171875,-0.3115234375,-183.47560975609758,39.32926829268293,-98.35365853658537,60,8
148,1.0224609375,-0.09375,-0.318359375,-185.6707317073171,41.15853658536586,-103.10975609756099,60,8
149,1.0498046875,-0.099609375,-0.31396484375,-183.41463414634148,41.890243902439025,-107.25609756097562,60,8
150,1.072265625,-0.09619140625,-0.34912109375,-176.52439024390245,37.6829268292683,-111.03658536585367,60,8
151,1.1337890625,-0.0400390625,-0.390625,-168.41463414634148,33.65853658536586,-113.90243902439025,60,8
152,1.16796875,-0.021484375,-0.4306640625,-166.09756097560978,33.35365853658537,-116.34146341463416,60,8
153,1.18212890625,-0.0146484375,-0.48681640625,-167.25609756097563,33.65853658536586,-119.75609756097562,60,8
154,1.20751953125,0.03076171875,-0.501953125,-169.08536585365854,35.54878048780488,-123.23170731707319,60,8
155,1.228515625,0.03955078125,-0.4931640625,-173.109756097561,39.87804878048781,-126.34146341463416,60,8
156,1.21630859375,0.10693359375,-0.52392578125,-179.69512195121953,43.04878048780488,-128.59756097560978,60,8
157,1.17724609375,-0.00146484375,-0.509765625,-180.91463414634148,44.69512195121952,-132.25609756097563,60,8
158,1.17041015625,0.029296875,-0.490234375,-176.64634146341464,44.51219512195122,-135.5487804878049,60,8
159,1.1982421875,0.06005859375,-0.4716796875,-172.9268292682927,44.268292682926834,-137.01219512195124,60,8
160,1.20263671875,0.02734375,-0.4697265625,-172.37804878048783,45.36585365853659,-138.84146341463415,60,8
161,1.20068359375,0.03662109375,-0.490234375,-156.21951219512198,46.646341463414636,-142.9878048780488,60,8
162,1.2275390625,0.078125,-0.48681640625,-156.15853658536588,47.31707317073171,-146.15853658536588,60,8
163,1.27587890625,0.099609375,-0.47998046875,-173.41463414634148,49.75609756097561,-149.93902439024393,60,8
164,1.287109375,0.08349609375,-0.47998046875,-176.15853658536588,51.585365853658544,-152.9878048780488,60,8
165,1.28173828125,0.07080078125,-0.44921875,-176.76829268292684,51.768292682926834,-140.5487804878049,60,8
166,1.271484375,0.06103515625,-0.44189453125,-174.39024390243904,51.15853658536586,-158.2317073170732,60,8
167,1.25927734375,0.07763671875,-0.3818359375,-170.7317073170732,50.36585365853659,-161.03658536585368,60,8
168,1.29345703125,0.12158203125,-0.349609375,-166.09756097560978,49.451219512195124,-165.4268292682927,60,8
169,1.33251953125,0.1826171875,-0.33251953125,-161.64634146341464,48.23170731707317,-169.81707317073173,60,8
170,1.3466796875,0.21826171875,-0.310546875,-160.4878048780488,48.04878048780488,-173.65853658536588,60,8
171,1.34228515625,0.2451171875,-0.29345703125,-159.93902439024393,49.451219512195124,-178.84146341463415,60,8
172,1.36669921875,0.27099609375,-0.283203125,-159.32926829268294,50.54878048780488,-184.08536585365854,60,8
173,1.2548828125,0.28466796875,-0.2412109375,-157.13414634146343,50.36585365853659,-188.41463414634148,60,8
174,1.41650390625,0.2900390625,-0.25537109375,-153.84146341463415,48.71951219512196,-192.37804878048783,60,8
175,1.4208984375,0.2978515625,-0.2646484375,-151.58536585365854,49.93902439024391,-196.09756097560978,60,8
176,1.42578125,0.3095703125,-0.24658203125,-150.7926829268293,52.13414634146342,-198.109756097561,60,8
177,1.40576171875,0.318359375,-0.3740234375,-150.91463414634148,55.73170731707317,-200.4878048780488,60,8
178,1.3974609375,0.33837890625,-0.22216796875,-153.109756097561,60.1219512195122,-202.13414634146343,60,8
179,1.38671875,0.359375,-0.21484375,-156.40243902439025,63.71951219512196,-203.1707317073171,60,8
180,1.35107421875,0.3720703125,-0.177734375,-156.82926829268294,65.60975609756098,-204.39024390243904,60,8
181,1.330078125,0.35791015625,-0.13427734375,-154.57317073170734,65.1219512195122,-206.21951219512198,60,8
182,1.32080078125,0.3642578125,-0.11376953125,-149.69512195121953,63.84146341463415,-208.90243902439028,60,8
183,1.318359375,0.35888671875,-0.087890625,-145.3048780487805,61.707317073170735,-212.8048780487805,60,8
184,1.29833984375,0.35986328125,-0.01611328125,-155.6707317073171,60.487804878048784,-217.19512195121953,60,8
185,1.27880859375,0.3681640625,0.05517578125,-132.8658536585366,57.31707317073171,-221.40243902439028,60,8
186,1.25732421875,0.3623046875,0.10498046875,-125.54878048780489,54.268292682926834,-225.3048780487805,60,8
187,1.2255859375,0.33203125,0.10400390625,-118.53658536585367,51.89024390243903,-229.32926829268294,60,8
188,1.18603515625,0.31494140625,0.095703125,-124.69512195121952,48.10975609756098,-232.25609756097563,60,8
189,1.15087890625,0.32470703125,0.1337890625,-99.02439024390245,45.1219512195122,-234.75609756097563,60,8
190,1.12744140625,0.31640625,0.10888671875,-91.21951219512196,43.53658536585366,-236.64634146341464,60,8
191,1.09423828125,0.3154296875,0.0751953125,-83.65853658536587,42.5609756097561,-237.31707317073173,60,8
192,1.05810546875,0.33447265625,0.0615234375,-93.47560975609757,43.29268292682927,-237.31707317073173,60,8
193,1.03515625,0.37060546875,0.1171875,-73.53658536585367,44.57317073170732,-237.19512195121953,60,8
194,1.0380859375,0.4130859375,0.1552734375,-70.73170731707317,46.09756097560976,-238.78048780487808,60,8
195,1.04296875,0.4736328125,0.189453125,-67.98780487804879,47.6219512195122,-240.00000000000003,60,8
196,1.01953125,0.4765625,0.16064453125,-63.71951219512196,47.6219512195122,-242.19512195121953,60,8
197,0.99609375,0.455078125,0.18798828125,-59.57317073170732,48.35365853658537,-244.20731707317074,60,8
198,0.94970703125,0.40966796875,0.193359375,-54.63414634146342,48.04878048780488,-245.7926829268293,60,8
199,0.890625,0.3798828125,0.1845703125,-47.6829268292683,46.09756097560976,-245.12195121951223,60,8
200,0.833984375,0.357421875,0.17236328125,-40.0609756097561,42.987804878048784,-243.53658536585368,60,8
201,0.76806640625,0.3525390625,0.16748046875,-33.84146341463415,40.60975609756098,-242.50000000000003,60,8
202,0.72119140625,0.3564453125,0.16015625,-29.939024390243905,39.451219512195124,-240.4268292682927,60,8
203,0.6904296875,0.37890625,0.1591796875,-29.02439024390244,39.93902439024391,-239.14634146341464,60,8
204,0.67724609375,0.36376953125,0.1767578125,-29.32926829268293,40.36585365853659,-237.31707317073173,60,8
205,0.50341796875,0.3115234375,0.16064453125,-29.451219512195124,39.268292682926834,-234.81707317073173,60,8
206,0.58203125,0.25439453125,0.2099609375,-27.195121951219516,39.146341463414636,-232.37804878048783,60,8
207,0.51025390625,0.1689453125,0.3740234375,-24.32926829268293,37.19512195121951,-228.41463414634148,60,8
208,0.4521484375,0.0908203125,0.12744140625,-19.146341463414636,34.81707317073171,-223.2317073170732,60,8
209,0.4404296875,0.05126953125,0.23388671875,-11.890243902439025,30.182926829268297,-217.43902439024393,60,8
210,0.39111328125,0.01513671875,0.27099609375,-5.853658536585367,28.475609756097562,-209.75609756097563,60,8
211,0.35986328125,-0.04248046875,0.2333984375,-2.0121951219512195,25.0609756097561,-200.91463414634148,60,8
212,0.31201171875,-0.0966796875,0.16796875,1.707317073170732,22.073170731707318,-191.89024390243904,60,8
213,0.21533203125,-0.16455078125,0.1923828125,5.121951219512195,19.75609756097561,-182.56097560975613,60,8
214,0.15966796875,-0.189453125,0.25341796875,6.219512195121951,20.0,-187.19512195121953,60,8
215,0.091796875,-0.263671875,0.25146484375,4.634146341463415,20.975609756097562,-160.85365853658539,60,8
216,0.0126953125,-0.3232421875,0.25439453125,3.4756097560975614,20.365853658536587,-150.7317073170732,60,8
217,-0.0947265625,-0.4189453125,0.28466796875,5.426829268292684,17.25609756097561,-155.7926829268293,60,8
218,-0.16845703125,-0.48388671875,0.3681640625,8.536585365853659,15.54878048780488,-127.8658536585366,60,8
219,-0.234375,-0.55029296875,0.412109375,9.329268292682928,13.597560975609758,-114.20731707317074,60,8
220,-0.33984375,-0.6513671875,0.4091796875,9.573170731707318,13.719512195121952,-100.97560975609757,60,8
221,-0.41943359375,-0.6923828125,0.486328125,11.585365853658537,11.463414634146343,-85.2439024390244,60,8
222,-0.44189453125,-0.7783203125,0.380859375,13.170731707317074,11.402439024390246,-68.10975609756098,60,8
223,-0.4541015625,-0.86279296875,0.50830078125,14.878048780487806,12.621951219512196,-50.1219512195122,60,8
224,-0.4833984375,-0.97021484375,0.462890625,17.31707317073171,12.621951219512196,-46.463414634146346,60,8
225,-0.4814453125,-1.078125,0.48095703125,22.682926829268293,13.719512195121952,-10.30487804878049,60,8
226,-0.4501953125,-1.146484375,0.53759765625,27.31707317073171,17.195121951219512,9.695121951219512,60,8
227,-0.47900390625,-1.12646484375,0.55859375,30.60975609756098,21.28048780487805,15.670731707317074,60,8
228,-0.52392578125,-1.365234375,0.55078125,35.54878048780488,21.82926829268293,51.82926829268293,60,8
229,-0.52978515625,-1.48876953125,0.5458984375,42.25609756097561,21.646341463414636,71.46341463414635,60,8
230,-0.50048828125,-1.53466796875,0.53857421875,44.390243902439025,25.30487804878049,90.42682926829269,60,8
231,-0.443359375,-1.58349609375,0.53369140625,43.23170731707317,32.25609756097561,109.14634146341464,60,8
232,-0.3720703125,-1.689453125,0.54541015625,41.951219512195124,41.03658536585366,130.3048780487805,60,8
233,-0.28955078125,-1.78369140625,0.5791015625,44.390243902439025,31.52439024390244,149.63414634146343,60,8
234,-0.2041015625,-1.919921875,0.56884765625,53.04878048780488,50.36585365853659,169.87804878048783,60,8
235,-0.13427734375,-2.0986328125,0.5830078125,67.37804878048782,49.87804878048781,190.5487804878049,60,8
236,-0.07421875,-2.23974609375,0.57080078125,85.97560975609757,48.59756097560976,213.1707317073171,60,8
237,-0.0048828125,-2.35595703125,0.4560546875,100.3048780487805,47.6829268292683,237.9878048780488,60,8
238,0.0732421875,-2.42431640625,0.43896484375,110.85365853658537,50.1829268292683,262.8048780487805,60,8
239,0.1669921875,-2.38330078125,0.4599609375,117.7439024390244,55.97560975609757,292.9878048780488,60,8
240,0.2978515625,-2.68115234375,0.44775390625,122.31707317073172,61.34146341463415,312.25609756097566,60,8
241,0.4296875,-2.7724609375,0.41748046875,129.45121951219514,64.39024390243902,346.0365853658537,60,8
242,0.68115234375,-3.01611328125,0.333984375,144.81707317073173,66.46341463414635,398.7804878048781,60,8
243,0.98681640625,-3.380859375,0.16162109375,166.89024390243904,66.34146341463415,436.95121951219517,60,8
244,1.31689453125,-3.65087890625,-0.005859375,198.35365853658539,61.03658536585366,471.5243902439025,60,8
245,1.6279296875,-3.85205078125,-0.1318359375,218.84146341463418,57.560975609756106,486.70731707317077,60,8
246,2.27392578125,-4.0625,-0.34619140625,252.8658536585366,45.97560975609756,527.3170731707318,60,8
247,2.9375,-4.23974609375,-0.4248046875,282.5,60.00000000000001,551.9512195121952,60,8
248,3.4228515625,-4.54052734375,-0.3388671875,323.719512195122,81.28048780487805,572.1951219512196,60,8
249,4.13037109375,-4.98828125,-0.193359375,345.00000000000006,106.21951219512196,602.5,60,8
250,5.0302734375,-5.4267578125,-0.37353515625,377.7439024390244,137.01219512195124,649.0243902439025,60,8
251,5.796875,-5.72021484375,-0.63525390625,401.6463414634147,158.109756097561,697.0121951219513,60,8
252,6.31494140625,-6.08447265625,-1.24609375,420.00000000000006,174.81707317073173,758.9634146341464,60,8
253,6.97216796875,-6.28564453125,-2.12744140625,430.8536585365854,162.31707317073173,819.0853658536586,60,8
254,8.1357421875,-6.234375,-2.95849609375,447.07317073170736,157.6219512195122,866.0365853658537,60,8
255,9.0791015625,-6.1611328125,-4.1044921875,464.75609756097566,158.84146341463415,899.1463414634147,60,8
256,10.599609375,-5.44775390625,-5.36669921875,493.4146341463415,138.2317073170732,915.1219512195123,60,8
257,11.548828125,-4.40625,-6.2451171875,543.1707317073171,102.01219512195122,897.1341463414635,60,8
258,11.76123046875,-3.2724609375,-7.07080078125,566.7073170731708,47.5609756097561,863.1097560975611,60,8
259,11.65625,-2.9482421875,-7.7861328125,694.6951219512196,-61.82926829268293,842.1951219512196,60,8
260,10.271484375,-3.13623046875,-7.97509765625,786.9512195121952,-204.69512195121953,783.8414634146342,60,8
261,8.51220703125,-3.6591796875,-7.82421875,961.9512195121952,-414.20731707317077,722.9268292682927,60,8
262,6.6435546875,-4.29052734375,-8.96533203125,1234.939024390244,-707.0121951219513,606.0975609756098,60,8
263,8.83837890625,-3.4853515625,-15.97314453125,1623.3536585365855,-1411.4024390243903,1163.109756097561,60,8
264,-16.0,-16.0,-16.0,1418.8414634146343,-369.57317073170736,-386.1585365853659,60,8
265,15.99951171875,15.99951171875,-13.875,-295.1829268292683,-146.03658536585368,168.53658536585368,60,8
266,5.541015625,3.02490234375,1.794921875,1309.329268292683,-333.109756097561,-163.78048780487805,60,8
267,-1.3447265625,-8.6259765625,3.27587890625,1359.878048780488,-260.2439024390244,-190.5487804878049,60,8
268,2.810546875,4.06396484375,-6.2763671875,937.9268292682927,-191.95121951219514,-179.32926829268294,60,8
269,6.75927734375,1.34716796875,-4.59765625,1183.8414634146343,-152.6219512195122,-440.36585365853665,60,8
270,3.44921875,4.49072265625,-1.80029296875,830.7317073170732,-117.98780487804879,-320.8536585365854,60,8
271,3.61572265625,-1.515625,-2.04833984375,858.9634146341464,-129.32926829268294,-443.9634146341464,60,8
272,4.08447265625,-0.64697265625,-2.244140625,778.719512195122,-147.13414634146343,-541.7682926829269,60,8
273,2.44482421875,-3.966796875,-2.6640625,680.6707317073171,-213.109756097561,-625.4878048780488,60,8
274,1.97021484375,-1.462890625,-2.775390625,562.1951219512196,-160.7317073170732,-659.5121951219513,60,8
275,2.00244140625,-1.64013671875,-2.42822265625,425.00000000000006,-114.63414634146342,-679.5121951219513,60,8
276,1.03173828125,-1.6787109375,-1.77734375,333.4146341463415,-76.09756097560977,-709.5731707317074,60,8
277,0.86962890625,-1.27734375,-1.05615234375,320.9756097560976,-5.121951219512195,-742.9268292682927,60,8
278,1.23583984375,-0.89111328125,-0.62890625,327.07317073170736,20.121951219512198,-756.219512195122,60,8
279,2.029296875,-0.51416015625,-0.623046875,286.5243902439025,40.304878048780495,-764.6341463414635,60,8
280,2.39892578125,-0.50244140625,-0.95263671875,219.20731707317074,72.01219512195122,-751.7073170731708,60,8
281,2.3759765625,-0.7119140625,-0.98876953125,148.84146341463415,95.85365853658537,-737.8658536585366,60,8
282,2.42041015625,-1.0849609375,-0.62451171875,74.02439024390245,138.78048780487805,-709.939024390244,60,8
283,2.13916015625,-1.2626953125,-0.47265625,9.695121951219512,147.5,-680.0609756097562,60,8
284,2.05419921875,-1.24658203125,-0.59912109375,-36.951219512195124,164.57317073170734,-649.0853658536586,60,8
285,2.1826171875,-1.0361328125,-0.7578125,-118.04878048780489,189.51219512195124,-619.4512195121952,60,8
286,2.35009765625,-0.8310546875,-0.86669921875,-167.13414634146343,205.1829268292683,-606.8902439024391,60,8
287,2.2734375,-0.9931640625,-0.666015625,-201.64634146341464,216.21951219512198,-563.9634146341464,60,8
288,2.09814453125,-1.0888671875,-0.515625,-214.87804878048783,213.96341463414635,-537.439024390244,60,8
289,1.85498046875,-1.060546875,-0.380859375,-223.1707317073171,221.82926829268294,-503.4756097560976,60,8
290,1.43505859375,-1.1162109375,-0.52392578125,-238.90243902439028,230.18292682926833,-476.0365853658537,60,8
291,1.30029296875,-1.01025390625,-0.6962890625,-249.32926829268294,243.71951219512198,-456.5853658536586,60,8
292,1.13232421875,-0.98388671875,-0.6884765625,-239.45121951219514,254.39024390243904,-440.42682926829275,60,8
293,1.017578125,-0.70703125,-0.720703125,-223.109756097561,252.8658536585366,-426.219512195122,60,8
294,1.03271484375,-0.703125,-0.8984375,-224.45121951219514,243.78048780487808,-410.8536585365854,60,8
295,1.17041015625,-0.5458984375,-1.2900390625,-233.1707317073171,233.84146341463418,-385.7926829268293,60,8
296,1.2255859375,-0.3994140625,-1.23583984375,-207.8658536585366,219.69512195121953,-352.31707317073176,60,8
297,0.67236328125,-0.61279296875,-1.0068359375,-206.34146341463418,230.7926829268293,-326.95121951219517,60,8
298,0.3701171875,-0.8359375,-0.90478515625,-213.41463414634148,236.64634146341464,-282.9268292682927,60,8
299,-0.14013671875,-0.76025390625,-0.78076171875,-213.1707317073171,237.37804878048783,-260.4878048780488,60,8
300,-0.3740234375,-0.72314453125,-0.67236328125,-229.02439024390245,236.95121951219514,-244.63414634146343,60,8
301,-0.4033203125,-0.45849609375,-0.59521484375,-234.02439024390245,229.14634146341464,-229.63414634146343,60,8
302,-0.169921875,-0.03955078125,-0.53515625,-224.51219512195124,219.75609756097563,-215.7317073170732,60,8
303,-0.01611328125,0.21875,-0.74609375,-240.4878048780488,209.08536585365854,-204.87804878048783,60,8
304,-0.0341796875,-0.15576171875,-0.80615234375,-227.07317073170734,198.109756097561,-184.51219512195124,60,8
305,-0.01123046875,-0.25341796875,-0.75634765625,-223.1707317073171,182.8048780487805,-167.5609756097561,60,8
306,-0.2109375,-0.31103515625,-0.859375,-219.93902439024393,169.39024390243904,-150.3658536585366,60,8
307,-0.35791015625,-0.4521484375,-0.736328125,-205.91463414634148,162.01219512195124,-135.4268292682927,60,8
308,-0.44873046875,-0.44873046875,-0.7412109375,-201.76829268292684,156.21951219512198,-122.25609756097562,60,8
309,-0.49951171875,-0.33349609375,-0.69775390625,-198.2317073170732,147.37804878048783,-116.64634146341464,60,8
310,-0.35302734375,-0.158203125,-0.69873046875,-185.2439024390244,140.4878048780488,-110.1219512195122,60,8
311,-0.29248046875,-0.08837890625,-0.6728515625,-178.96341463414635,126.09756097560977,-101.89024390243904,60,8
312,-0.3623046875,-0.14697265625,-0.7763671875,-169.02439024390245,115.48780487804879,-94.75609756097562,60,8
313,-0.48046875,-0.28271484375,-0.82421875,-161.58536585365854,108.23170731707317,-87.50000000000001,60,8
314,-0.57177734375,-0.474609375,-0.86328125,-153.2317073170732,104.02439024390245,-93.53658536585367,60,8
315,-0.66943359375,-0.53515625,-0.640625,-141.89024390243904,99.26829268292684,-68.78048780487805,60,8
316,-0.63525390625,-0.42822265625,-0.50048828125,-129.20731707317074,97.50000000000001,-56.707317073170735,60,8
317,-0.94287109375,-0.4404296875,-0.43212890625,-120.3048780487805,97.19512195121952,-45.97560975609756,60,8
318,-1.03466796875,-0.3671875,-0.40771484375,-112.01219512195122,92.50000000000001,-39.08536585365854,60,8
319,-1.06640625,-0.2783203125,-0.48876953125,-101.89024390243904,89.87804878048782,-32.926829268292686,60,8
320,-1.0625,-0.267578125,-0.5048828125,-87.8658536585366,79.63414634146342,-26.76829268292683,60,8
321,-1.09814453125,-0.2666015625,-0.47314453125,-77.01219512195122,72.98780487804879,-20.670731707317074,60,8
322,-1.1162109375,-0.275390625,-0.48828125,-70.73170731707317,67.8658536585366,-15.182926829268293,60,8
323,-1.12744140625,-0.30029296875,-0.458984375,-65.1219512195122,64.32926829268293,-9.451219512195122,60,8
324,-1.14599609375,-0.28173828125,-0.439453125,-60.487804878048784,58.35365853658537,-3.963414634146342,60,8
325,-1.17236328125,-0.2724609375,-0.39013671875,-55.54878048780488,51.768292682926834,0.853658536585366,60,8
326,-1.18310546875,-0.2294921875,-0.3837890625,-54.32926829268293,45.91463414634147,4.146341463414634,60,8
327,-1.1630859375,-0.1455078125,-0.37353515625,-54.75609756097561,40.670731707317074,6.707317073170732,60,8
328,-1.1748046875,-0.099609375,-0.36669921875,-54.75609756097561,35.85365853658537,9.207317073170733,60,8
329,-1.18505859375,-0.08642578125,-0.31982421875,-54.81707317073171,46.646341463414636,11.463414634146343,60,8
330,-1.224609375,-0.08349609375,-0.306640625,-52.5609756097561,23.29268292682927,12.74390243902439,60,8
331,-1.22705078125,-0.07568359375,-0.3291015625,-48.59756097560976,16.097560975609756,13.109756097560977,60,8
332,-1.2060546875,-0.04443359375,-0.337890625,-42.19512195121951,8.841463414634147,15.243902439024392,60,8
333,-1.20068359375,-0.05078125,-0.34375,-36.28048780487805,0.853658536585366,18.902439024390244,60,8
334,-1.205078125,-0.0654296875,-0.35498046875,-27.987804878048784,-4.817073170731708,22.012195121951223,60,8
335,-1.18212890625,-0.0361328125,-0.33251953125,-18.353658536585368,-10.24390243902439,26.09756097560976,60,8
336,-1.1728515625,-0.001953125,-0.3017578125,-11.585365853658537,-14.817073170731708,29.81707317073171,60,8
337,-1.1689453125,0.03076171875,-0.30078125,-8.048780487804878,-17.5609756097561,32.13414634146342,60,8
338,-1.18017578125,0.06201171875,-0.2744140625,-7.01219512195122,-20.731707317073173,33.963414634146346,60,8
339,-1.1923828125,0.10009765625,-0.28173828125,-7.378048780487806,-24.146341463414636,35.243902439024396,60,8
340,-1.19677734375,0.12939453125,-0.244140625,-7.073170731707318,-27.25609756097561,36.768292682926834,60,8
341,-1.20751953125,0.13720703125,-0.20068359375,-6.097560975609756,-30.243902439024392,38.53658536585366,60,8
342,-1.2177734375,0.13818359375,-0.18408203125,-2.7439024390243905,-34.69512195121951,40.243902439024396,60,8
343,-1.232421875,0.13916015625,-0.1845703125,2.1341463414634148,-39.51219512195122,40.79268292682927,60,8
344,-1.22509765625,0.17822265625,-0.2001953125,10.548780487804878,-45.54878048780488,40.85365853658537,60,8
345,-1.20947265625,0.20166015625,-0.17626953125,19.085365853658537,-51.21951219512196,40.60975609756098,60,8
346,-1.18798828125,0.23193359375,-0.13671875,26.03658536585366,-56.34146341463415,40.0609756097561,60,8
347,-1.16845703125,0.259765625,-0.126953125,29.87804878048781,-59.63414634146342,39.51219512195122,60,8
348,-1.14794921875,0.2919921875,-0.119140625,31.219512195121954,-62.31707317073171,39.93902439024391,60,8
349,-1.162109375,0.306640625,-0.0947265625,31.951219512195124,-65.97560975609757,40.1829268292683,60,8
350,-1.16455078125,0.30419921875,-0.07470703125,31.82926829268293,-69.81707317073172,39.451219512195124,60,8
351,-1.1572265625,0.291015625,-0.04931640625,32.13414634146342,-72.19512195121952,38.53658536585366,60,8
352,-1.15185546875,0.28466796875,-0.03076171875,29.939024390243905,-72.43902439024392,36.707317073170735,60,8
353,-1.11474609375,0.31201171875,-0.02294921875,29.08536585365854,-73.23170731707317,35.91463414634147,60,8
354,-1.1064453125,0.31494140625,-0.021484375,28.84146341463415,-75.73170731707317,35.0,60,8
355,-1.095703125,0.31396484375,-0.033203125,32.19512195121951,-80.48780487804879,34.32926829268293,60,8
356,-1.08447265625,0.30419921875,-0.0302734375,36.707317073170735,-84.45121951219512,34.207317073170735,60,8
357,-1.0732421875,0.30078125,-0.013671875,41.524390243902445,-87.6219512195122,34.146341463414636,60,8
358,-1.0517578125,0.31396484375,-0.00830078125,46.09756097560976,-90.85365853658537,34.63414634146342,60,8
359,-1.0390625,0.31982421875,0.0205078125,49.51219512195122,-92.8658536585366,34.87804878048781,60,8
360,-1.01025390625,0.32275390625,0.025390625,52.19512195121952,-95.2439024390244,34.93902439024391,60,8
361,-0.97216796875,0.34375,0.04638671875,55.0609756097561,-98.35365853658537,34.268292682926834,60,8
362,-0.9755859375,0.3271484375,0.05712890625,56.585365853658544,-99.26829268292684,33.109756097560975,60,8
363,-0.9453125,0.33740234375,0.0576171875,57.6829268292683,-100.3048780487805,32.31707317073171,60,8
364,-0.92822265625,0.35986328125,0.0712890625,58.78048780487806,-100.85365853658537,31.402439024390247,60,8
365,-0.8935546875,0.3916015625,0.076171875,60.1829268292683,-101.58536585365854,30.853658536585368,60,8
366,-0.86376953125,0.41796875,0.11181640625,61.03658536585366,-102.13414634146342,30.0609756097561,60,8
367,-0.83056640625,0.4296875,0.12890625,61.40243902439025,-103.10975609756099,30.121951219512198,60,8
368,-0.82373046875,0.42822265625,0.14892578125,61.707317073170735,-106.15853658536587,29.939024390243905,60,8
369,-0.85888671875,0.39794921875,0.1494140625,60.67073170731708,-107.13414634146342,27.500000000000004,60,8
370,-0.857421875,0.4150390625,0.1240234375,60.85365853658537,-109.45121951219514,25.792682926829272,60,8
371,-0.8515625,0.40869140625,0.142578125,60.1219512195122,-110.1829268292683,24.02439024390244,60,8
372,-0.79833984375,0.41259765625,0.173828125,59.207317073170735,-110.60975609756099,23.231707317073173,60,8
373,-0.767578125,0.4189453125,0.1845703125,58.04878048780488,-111.40243902439025,23.658536585365855,60,8
374,-0.76025390625,0.388671875,0.1845703125,57.13414634146342,-111.46341463414635,23.353658536585368,60,8
375,-0.75341796875,0.38427734375,0.18212890625,58.47560975609757,-112.13414634146342,22.682926829268293,60,8
376,-0.72216796875,0.4169921875,0.18115234375,61.34146341463415,-114.14634146341464,21.82926829268293,60,8
377,-0.66845703125,0.46142578125,0.189453125,64.32926829268293,-116.64634146341464,21.097560975609756,60,8
378,-0.63720703125,0.47607421875,0.20166015625,63.71951219512196,-117.6829268292683,20.48780487804878,60,8
379,-0.638671875,0.4833984375,0.21728515625,61.21951219512196,-116.95121951219514,19.81707317073171,60,8
380,-0.65087890625,0.478515625,0.2255859375,57.987804878048784,-115.91463414634147,18.84146341463415,60,8
381,-0.6494140625,0.47900390625,0.23193359375,55.1829268292683,-114.69512195121952,18.10975609756098,60,8
382,-0.6328125,0.484375,0.2470703125,55.0609756097561,-115.79268292682927,17.439024390243905,60,8
383,-0.63134765625,0.4765625,0.23046875,55.60975609756098,-117.7439024390244,16.52439024390244,60,8
384,-0.60888671875,0.3779296875,0.2294921875,57.13414634146342,-119.14634146341464,14.451219512195124,60,8
385,-0.5537109375,0.52783203125,0.2353515625,57.926829268292686,-121.46341463414635,13.536585365853659,60,8
386,-0.62353515625,0.56005859375,0.2578125,57.43902439024391,-122.25609756097562,12.682926829268293,60,8
387,-0.4794921875,0.537109375,0.27734375,55.487804878048784,-121.46341463414635,12.317073170731708,60,8
388,-0.4716796875,0.53271484375,0.28662109375,54.69512195121952,-121.34146341463416,11.219512195121952,60,8
389,-0.4619140625,0.56103515625,0.30029296875,55.67073170731708,-122.01219512195124,9.756097560975611,60,8
390,-0.43896484375,0.60693359375,0.31201171875,56.463414634146346,-121.46341463414635,8.536585365853659,60,8
391,-0.427734375,0.61572265625,0.3310546875,54.085365853658544,-119.08536585365854,9.51219512195122,60,8
392,-0.4248046875,0.59033203125,0.30322265625,51.463414634146346,-119.75609756097562,10.914634146341465,60,8
393,-0.4609375,0.5419921875,0.28662109375,49.51219512195122,-121.46341463414635,11.341463414634147,60,8
394,-0.5048828125,0.544921875,0.27685546875,51.15853658536586,-124.26829268292684,10.121951219512196,60,8
395,-0.51220703125,0.57373046875,0.322265625,54.63414634146342,-127.43902439024392,9.26829268292683,60,8
396,-0.45947265625,0.5732421875,0.35498046875,54.93902439024391,-127.98780487804879,8.170731707317074,60,8
397,-0.390625,0.5908203125,0.3720703125,53.10975609756098,-127.37804878048782,6.829268292682928,60,8
398,-0.3466796875,0.623046875,0.39990234375,51.82926829268293,-128.65853658536585,5.670731707317073,60,8
399,-0.32958984375,0.6591796875,0.40869140625,51.524390243902445,-129.69512195121953,4.207317073170732,60,8
400,-0.32568359375,0.677734375,0.4482421875,49.51219512195122,-128.71951219512195,4.085365853658537,60,8
401,-0.33837890625,0.6650390625,0.43212890625,46.21951219512196,-128.47560975609758,4.390243902439025,60,8
402,-0.32275390625,0.66455078125,0.43212890625,45.60975609756098,-128.84146341463415,2.25609756097561,60,8
403,-0.29248046875,0.70458984375,0.42578125,47.6219512195122,-129.63414634146343,15.487804878048783,60,8
404,-0.25830078125,0.74462890625,0.4130859375,48.65853658536586,-131.03658536585368,-1.3414634146341464,60,8
405,-0.24609375,0.7744140625,0.36279296875,46.21951219512196,-132.9878048780488,-0.48780487804878053,60,8
406,-0.25390625,0.77294921875,0.38671875,42.25609756097561,-135.0609756097561,-1.524390243902439,60,8
407,-0.26318359375,0.76171875,0.4404296875,40.0,-137.5609756097561,-1.8902439024390245,60,8
408,-0.2822265625,0.873046875,0.51318359375,39.207317073170735,-139.69512195121953,-2.378048780487805,60,8
409,-0.275390625,0.75634765625,0.5634765625,40.60975609756098,-142.13414634146343,-3.353658536585366,60,8
410,-0.2685546875,0.75390625,0.60107421875,43.29268292682927,-144.69512195121953,-4.695121951219512,60,8
411,-0.25830078125,0.86962890625,0.5859375,31.280487804878053,-146.95121951219514,-6.646341463414635,60,8
412,-0.22998046875,0.74365234375,0.58984375,51.585365853658544,-149.02439024390245,-7.926829268292684,60,8
413,-0.1943359375,0.78466796875,0.5732421875,57.926829268292686,-149.69512195121953,-8.353658536585366,60,8
414,-0.240234375,0.72216796875,0.52685546875,57.31707317073171,-147.9878048780488,-5.3048780487804885,60,8
415,-0.25439453125,0.693359375,0.56005859375,54.75609756097561,-144.75609756097563,-3.048780487804878,60,8
416,-0.23681640625,0.70263671875,0.56201171875,54.146341463414636,-142.7439024390244,-1.5853658536585367,60,8
417,-0.2216796875,0.72021484375,0.5595703125,52.987804878048784,-141.09756097560978,-0.48780487804878053,60,8
418,-0.19482421875,0.75146484375,0.578125,49.75609756097561,-137.9268292682927,-0.6097560975609757,60,8
419,-0.142578125,0.76171875,0.61083984375,45.00000000000001,-135.6707317073171,0.12195121951219513,60,8
420,-0.1494140625,0.7373046875,0.63671875,39.08536585365854,-133.109756097561,1.707317073170732,60,8
421,-0.17236328125,0.70947265625,0.65966796875,33.29268292682927,-131.46341463414635,3.414634146341464,60,8
422,-0.22021484375,0.6845703125,0.63037109375,29.02439024390244,-130.3658536585366,5.7926829268292686,60,8
423,-0.1826171875,0.78759765625,0.671875,15.609756097560977,-135.0,4.390243902439025,60,8
424,-0.18359375,0.83203125,0.64453125,32.6219512195122,-137.5609756097561,4.939024390243903,60,8
425,-0.13671875,0.837890625,0.50439453125,34.146341463414636,-138.84146341463415,7.987804878048781,60,8
426,-0.14501953125,0.71435546875,0.6787109375,33.59756097560976,-140.91463414634148,13.902439024390246,60,8
427,-0.20654296875,0.63720703125,0.703125,32.5609756097561,-140.3048780487805,17.073170731707318,60,8
428,-0.2216796875,0.65185546875,0.67041015625,29.02439024390244,-138.2317073170732,18.53658536585366,60,8
429,-0.1904296875,0.681640625,0.630859375,23.59756097560976,-136.52439024390245,20.0609756097561,60,8
430,-0.09814453125,0.74755859375,0.6435546875,17.804878048780488,-135.0609756097561,21.158536585365855,60,8
431,-0.076171875,0.76611328125,0.65771484375,9.02439024390244,-131.76829268292684,23.78048780487805,60,8
432,-0.0888671875,0.728515625,0.6767578125,0.853658536585366,-129.9390243902439,27.012195121951223,60,8
433,-0.1005859375,0.73681640625,0.72216796875,-5.7926829268292686,-132.4390243902439,28.780487804878053,60,8
434,-0.15185546875,0.71435546875,0.5927734375,-15.487804878048783,-132.37804878048783,29.573170731707318,60,8
435,-0.10107421875,0.685546875,0.3759765625,-22.25609756097561,-132.8658536585366,29.26829268292683,60,8
436,-0.0498046875,0.66845703125,0.53125,-24.573170731707318,-133.96341463414635,26.76829268292683,60,8
437,0.03955078125,0.7197265625,0.60400390625,-23.04878048780488,-135.3048780487805,21.951219512195124,60,8
438,0.09814453125,0.73193359375,0.6689453125,-23.658536585365855,-135.0,18.353658536585368,60,8
439,0.1162109375,0.71337890625,0.69921875,-29.573170731707318,-131.03658536585368,15.000000000000002,60,8
440,0.15087890625,0.7412109375,0.7021484375,-36.21951219512196,-128.2926829268293,13.109756097560977,60,8
441,0.13720703125,0.76416015625,0.7177734375,-40.1219512195122,-126.52439024390245,14.207317073170733,60,8
442,0.10595703125,0.71533203125,0.7939453125,-40.79268292682927,-124.20731707317074,15.975609756097562,60,8
443,0.08154296875,0.669921875,0.84716796875,-37.31707317073171,-122.25609756097562,15.853658536585368,60,8
444,0.07421875,0.6416015625,0.85546875,-29.87804878048781,-122.62195121951221,15.487804878048783,60,8
445,0.0595703125,0.58544921875,0.76123046875,-24.26829268292683,-119.08536585365854,14.451219512195124,60,8
446,0.0625,0.59033203125,0.87841796875,-21.82926829268293,-114.81707317073172,12.073170731707318,60,8
447,0.0625,0.50244140625,0.8515625,-21.097560975609756,-111.21951219512196,12.439024390243903,60,8
448,0.0458984375,0.6572265625,0.8603515625,-26.219512195121954,-103.10975609756099,11.829268292682928,60,8
449,0.09521484375,0.68896484375,0.7763671875,-36.890243902439025,-95.00000000000001,11.158536585365855,60,8
450,0.16748046875,0.71484375,0.736328125,-46.524390243902445,-89.51219512195122,10.731707317073171,60,8
451,0.1689453125,0.71826171875,0.7158203125,-55.304878048780495,-85.3658536585366,9.817073170731708,60,8
452,0.17333984375,0.71484375,0.6982421875,-47.13414634146342,-81.21951219512196,8.109756097560977,60,8
453,0.20068359375,0.7021484375,0.6943359375,-70.97560975609757,-76.89024390243902,3.9024390243902443,60,8
454,0.26513671875,0.74267578125,0.6279296875,-79.02439024390245,-71.52439024390245,-0.9756097560975611,60,8
455,0.28271484375,0.75830078125,0.80712890625,-84.87804878048782,-64.32926829268293,-4.390243902439025,60,8
456,0.2607421875,0.87255859375,0.85888671875,-92.19512195121952,-56.463414634146346,-6.158536585365854,60,8
457,0.2275390625,0.87158203125,0.791015625,-98.90243902439025,-50.670731707317074,-8.536585365853659,60,8
458,0.22314453125,0.8017578125,0.74609375,-94.02439024390245,-52.13414634146342,-12.195121951219512,60,8
459,0.2392578125,0.82373046875,0.71435546875,-92.7439024390244,-59.39024390243903,-14.146341463414636,60,8
460,0.2578125,0.82763671875,0.7431640625,-57.6219512195122,-64.26829268292684,-16.28048780487805,60,8
461,0.27734375,0.85595703125,0.85205078125,-42.804878048780495,-66.70731707317074,-15.243902439024392,60,8
462,0.26220703125,0.8330078125,0.818359375,-35.79268292682927,-65.42682926829269,-17.31707317073171,60,8
463,0.22998046875,0.7548828125,0.78759765625,-33.90243902439025,-61.585365853658544,-23.902439024390247,60,8
464,0.1337890625,0.92724609375,0.75341796875,-46.768292682926834,-60.060975609756106,-30.487804878048784,60,8
465,0.2607421875,0.9462890625,0.7578125,-25.853658536585368,-59.75609756097562,-35.36585365853659,60,8
466,0.22021484375,0.91259765625,0.7568359375,-17.926829268292686,-60.365853658536594,-39.51219512195122,60,8
467,0.171875,0.85595703125,0.73046875,-13.719512195121952,-55.85365853658537,-46.40243902439025,60,8
468,0.16259765625,0.84521484375,0.75830078125,-21.158536585365855,-49.268292682926834,-51.646341463414636,60,8
469,0.15185546875,0.845703125,0.73876953125,-27.012195121951223,-42.804878048780495,-56.463414634146346,60,8
470,0.1484375,0.84326171875,0.71240234375,-30.487804878048784,-38.59756097560976,-61.21951219512196,60,8
471,0.14990234375,0.8349609375,0.6708984375,-29.08536585365854,-38.170731707317074,-64.26829268292684,60,8
472,0.2431640625,0.798828125,0.666015625,-21.585365853658537,-40.36585365853659,-64.69512195121952,60,8
473,0.04931640625,0.70751953125,0.68603515625,-13.353658536585368,-43.84146341463415,-63.78048780487806,60,8
474,-0.001953125,0.65478515625,0.65234375,-5.975609756097562,-42.804878048780495,-65.2439024390244,60,8
475,0.0146484375,0.64892578125,0.619140625,-7.25609756097561,-40.36585365853659,-64.20731707317074,60,8
476,-0.00830078125,0.6064453125,0.6181640625,-6.463414634146342,-40.91463414634147,-62.6829268292683,60,8
477,-0.0283203125,0.55224609375,0.60693359375,-0.853658536585366,-43.71951219512196,-60.60975609756098,60,8
478,-0.03955078125,0.52392578125,0.61083984375,7.560975609756098,-48.04878048780488,-56.34146341463415,60,8
479,-0.0244140625,0.515625,0.59814453125,16.219512195121954,-52.6829268292683,-52.01219512195122,60,8
480,-0.01220703125,0.50341796875,0.56591796875,16.585365853658537,-49.451219512195124,-50.487804878048784,60,8
481,0.0302734375,0.498046875,0.564453125,9.451219512195122,-45.670731707317074,-47.01219512195122,60,8
482,0.05908203125,0.51806640625,0.53759765625,6.036585365853659,-43.90243902439025,-44.75609756097561,60,8
483,0.10107421875,0.5322265625,0.53369140625,5.853658536585367,-44.69512195121952,-43.10975609756098,60,8
484,0.14697265625,0.54248046875,0.50244140625,9.146341463414634,-48.59756097560976,-40.0,60,8
485,0.16845703125,0.57373046875,0.4736328125,18.78048780487805,-56.646341463414636,-37.926829268292686,60,8
486,0.16650390625,0.5537109375,0.4228515625,30.0609756097561,-64.14634146341464,-36.15853658536586,60,8
487,0.16064453125,0.54931640625,0.44287109375,43.170731707317074,-73.65853658536587,-34.024390243902445,60,8
488,0.16015625,0.58447265625,0.46435546875,52.987804878048784,-76.09756097560977,-34.75609756097561,60,8
489,0.1865234375,0.5830078125,0.541015625,42.01219512195122,-67.8658536585366,-37.43902439024391,60,8
490,0.28271484375,0.62548828125,0.5556640625,25.0609756097561,-58.41463414634147,-38.90243902439025,60,8
491,0.287109375,0.677734375,0.56396484375,10.975609756097562,-52.50000000000001,-38.65853658536586,60,8
492,0.31103515625,0.71728515625,0.5205078125,8.719512195121952,-52.6829268292683,-40.79268292682927,60,8
493,0.31982421875,0.732421875,0.47314453125,17.378048780487806,-60.60975609756098,-41.768292682926834,60,8
494,0.28857421875,0.7138671875,0.46630859375,35.85365853658537,-73.71951219512195,-39.87804878048781,60,8
495,0.2880859375,0.703125,0.453125,60.00000000000001,-89.26829268292684,-40.0,60,8
496,0.2734375,0.732421875,0.43408203125,80.85365853658537,-100.1829268292683,-40.85365853658537,60,8
497,0.2509765625,0.732421875,0.46240234375,98.84146341463415,-124.45121951219514,-41.463414634146346,60,8
498,0.64697265625,0.6044921875,0.490234375,86.58536585365854,-101.70731707317074,-42.31707317073171,60,8
499,0.23583984375,0.60888671875,0.4248046875,69.81707317073172,-95.97560975609757,-43.35365853658537,60,8
