,Ax,Ay,Az,Gx,Gy,Gz,distance,shot_type
0,0.734375,-0.2880859375,-0.333984375,20.426829268292686,13.353658536585368,6.707317073170732,130,4
1,0.74462890625,-0.2802734375,-0.287109375,18.04878048780488,15.000000000000002,8.841463414634147,130,4
2,0.7734375,-0.2744140625,-0.32958984375,18.84146341463415,14.939024390243905,9.085365853658537,130,4
3,0.8076171875,-0.2587890625,-0.337890625,20.243902439024392,15.000000000000002,8.475609756097562,130,4
4,0.82275390625,-0.244140625,-0.3330078125,20.121951219512198,14.756097560975611,7.317073170731708,130,4
5,0.8486328125,-0.2236328125,-0.32861328125,19.02439024390244,13.29268292682927,6.829268292682928,130,4
6,0.8525390625,-0.232421875,-0.35986328125,18.658536585365855,10.609756097560977,4.024390243902439,130,4
7,0.84765625,-0.28515625,-0.37890625,18.78048780487805,9.573170731707318,1.1585365853658538,130,4
8,0.84228515625,-0.30859375,-0.361328125,18.902439024390244,6.829268292682928,-1.0975609756097562,130,4
9,0.8466796875,-0.30908203125,-0.34619140625,19.02439024390244,5.0,-3.1097560975609757,130,4
10,0.83642578125,-0.32373046875,-0.35546875,17.31707317073171,1.8902439024390245,-5.121951219512195,130,4
11,0.8154296875,-0.35107421875,-0.33642578125,15.30487804878049,1.1585365853658538,-6.646341463414635,130,4
12,0.7734375,-0.38330078125,-0.25390625,15.914634146341465,-3.2926829268292686,-7.25609756097561,130,4
13,0.73681640625,-0.376953125,-0.18408203125,19.02439024390244,-5.182926829268293,-8.475609756097562,130,4
14,0.73583984375,-0.3603515625,-0.12744140625,19.451219512195124,-5.609756097560976,-7.8048780487804885,130,4
15,0.71923828125,-0.34326171875,-0.06640625,19.32926829268293,-5.3048780487804885,-5.975609756097562,130,4
16,0.68505859375,-0.36181640625,-0.0732421875,18.414634146341466,-4.390243902439025,-5.3048780487804885,130,4
17,0.67431640625,-0.3642578125,-0.025390625,17.25609756097561,-2.378048780487805,-3.2926829268292686,130,4
18,0.66650390625,-0.34375,-0.0400390625,15.853658536585368,-3.1097560975609757,-1.707317073170732,130,4
19,0.681640625,-0.3291015625,-0.08349609375,15.365853658536587,-1.5853658536585367,-1.402439024390244,130,4
20,0.6865234375,-0.33642578125,-0.06982421875,14.51219512195122,-2.5609756097560976,0.7317073170731708,130,4
21,0.68994140625,-0.3388671875,-0.1064453125,12.134146341463415,-1.5853658536585367,0.853658536585366,130,4
22,0.71044921875,-0.32373046875,-0.087890625,10.914634146341465,-2.378048780487805,1.2804878048780488,130,4
23,0.73779296875,-0.31884765625,-0.0869140625,11.341463414634147,-4.634146341463415,1.5853658536585367,130,4
24,0.73388671875,-0.33984375,-0.09130859375,13.78048780487805,-7.926829268292684,1.524390243902439,130,4
25,0.755859375,-0.3388671875,-0.10546875,16.28048780487805,-10.914634146341465,0.6707317073170732,130,4
26,0.79345703125,-0.33447265625,-0.1337890625,17.012195121951223,-12.987804878048781,0.06097560975609757,130,4
27,0.81201171875,-0.3349609375,-0.15380859375,16.463414634146343,-15.365853658536587,-0.6707317073170732,130,4
28,0.81884765625,-0.3388671875,-0.17041015625,16.219512195121954,-16.52439024390244,-0.7926829268292683,130,4
29,0.82470703125,-0.3525390625,-0.1689453125,14.939024390243905,-17.926829268292686,-0.7926829268292683,130,4
30,0.83251953125,-0.3525390625,-0.15087890625,13.04878048780488,-19.32926829268293,-0.1829268292682927,130,4
31,0.80419921875,-0.39990234375,-0.18359375,10.853658536585368,-20.48780487804878,15.54878048780488,130,4
32,0.76318359375,-0.4169921875,-0.1708984375,8.597560975609756,-19.939024390243905,0.30487804878048785,130,4
33,0.759765625,-0.39794921875,-0.1689453125,6.158536585365854,-20.30487804878049,1.6463414634146343,130,4
34,0.751953125,-0.38671875,-0.17578125,2.1951219512195124,-20.731707317073173,3.536585365853659,130,4
35,0.75830078125,-0.36083984375,-0.21435546875,-1.7682926829268295,-19.81707317073171,5.487804878048781,130,4
36,0.75146484375,-0.36279296875,-0.24951171875,-5.7926829268292686,-18.719512195121954,7.317073170731708,130,4
37,0.73486328125,-0.37158203125,-0.29150390625,-8.841463414634147,-18.414634146341466,7.8048780487804885,130,4
38,0.72509765625,-0.36474609375,-0.28173828125,-10.121951219512196,-20.0,9.146341463414634,130,4
39,0.67919921875,-0.404296875,-0.26318359375,-6.402439024390245,-23.658536585365855,10.487804878048781,130,4
40,0.6767578125,-0.4189453125,-0.2900390625,-3.1707317073170733,-24.695121951219516,10.792682926829269,130,4
41,0.6806640625,-0.4091796875,-0.2998046875,-1.5853658536585367,-24.512195121951223,11.463414634146343,130,4
42,0.70263671875,-0.3896484375,-0.32666015625,-2.6219512195121952,-22.500000000000004,11.76829268292683,130,4
43,0.7177734375,-0.35107421875,-0.30859375,-5.731707317073171,-19.634146341463417,13.29268292682927,130,4
44,0.72265625,-0.32763671875,-0.31591796875,-9.390243902439025,-16.28048780487805,13.414634146341465,130,4
45,0.72021484375,-0.34423828125,-0.3154296875,-11.219512195121952,-14.329268292682928,14.207317073170733,130,4
46,0.708984375,-0.36181640625,-0.333984375,-10.975609756097562,-14.26829268292683,15.243902439024392,130,4
47,0.70703125,-0.35693359375,-0.3876953125,-10.670731707317074,-13.04878048780488,14.451219512195124,130,4
48,0.74951171875,-0.33642578125,-0.4140625,-11.158536585365855,-10.975609756097562,13.353658536585368,130,4
49,0.767578125,-0.32861328125,-0.4306640625,-11.829268292682928,-8.963414634146343,12.073170731707318,130,4
50,0.77197265625,-0.33544921875,-0.4365234375,-12.195121951219512,-6.7682926829268295,10.30487804878049,130,4
51,0.771484375,-0.3232421875,-0.466796875,-13.536585365853659,-3.658536585365854,8.597560975609756,130,4
52,0.734375,-0.33203125,-0.46240234375,-15.060975609756099,-0.5487804878048781,7.560975609756098,130,4
53,0.6865234375,-0.345703125,-0.466796875,-15.975609756097562,1.8902439024390245,6.646341463414635,130,4
54,0.65283203125,-0.3525390625,-0.48486328125,-15.426829268292684,3.780487804878049,5.609756097560976,130,4
55,0.630859375,-0.3466796875,-0.51513671875,-15.121951219512196,5.609756097560976,4.939024390243903,130,4
56,0.60595703125,-0.33837890625,-0.517578125,-14.451219512195124,6.585365853658537,4.939024390243903,130,4
57,0.591796875,-0.345703125,-0.54833984375,-14.146341463414636,7.378048780487806,4.146341463414634,130,4
58,0.572265625,-0.3369140625,-0.55322265625,-13.597560975609758,9.573170731707318,3.658536585365854,130,4
59,0.5615234375,-0.3359375,-0.57275390625,-13.536585365853659,10.426829268292684,3.353658536585366,130,4
60,0.54638671875,-0.33349609375,-0.576171875,-12.926829268292684,11.76829268292683,3.414634146341464,130,4
61,0.53125,-0.33935546875,-0.560546875,-12.987804878048781,13.353658536585368,2.9268292682926833,130,4
62,0.5283203125,-0.333984375,-0.56201171875,-13.04878048780488,15.426829268292684,2.3170731707317076,130,4
63,0.54052734375,-0.3134765625,-0.5615234375,-13.109756097560977,17.25609756097561,1.402439024390244,130,4
64,0.5595703125,-0.2890625,-0.57421875,-13.353658536585368,19.146341463414636,0.48780487804878053,130,4
65,0.5712890625,-0.30712890625,-0.57275390625,-12.621951219512196,20.670731707317074,-0.7926829268292683,130,4
66,0.580078125,-0.3095703125,-0.56591796875,-10.853658536585368,20.975609756097562,-1.829268292682927,130,4
67,0.56591796875,-0.3212890625,-0.56005859375,-9.207317073170733,21.097560975609756,-2.804878048780488,130,4
68,0.57666015625,-0.3095703125,-0.57568359375,-6.707317073170732,20.975609756097562,-3.5975609756097566,130,4
69,0.583984375,-0.3173828125,-0.59033203125,-3.231707317073171,18.78048780487805,-4.817073170731708,130,4
70,0.595703125,-0.34033203125,-0.6181640625,0.48780487804878053,17.5,-6.646341463414635,130,4
71,0.6396484375,-0.32421875,-0.6494140625,1.9512195121951221,16.951219512195124,-9.146341463414634,130,4
72,0.6904296875,-0.29052734375,-0.625,2.0121951219512195,16.463414634146343,-10.24390243902439,130,4
73,0.67578125,-0.2890625,-0.607421875,2.073170731707317,15.975609756097562,-10.914634146341465,130,4
74,0.65966796875,-0.302734375,-0.5439453125,3.4756097560975614,15.609756097560977,-11.585365853658537,130,4
75,0.6513671875,-0.31201171875,-0.52001953125,4.2682926829268295,14.817073170731708,-12.500000000000002,130,4
76,0.658203125,-0.30029296875,-0.5263671875,5.426829268292684,14.573170731707318,-13.78048780487805,130,4
77,0.6865234375,-0.26708984375,-0.5205078125,5.3048780487804885,14.02439024390244,-15.121951219512196,130,4
78,0.70654296875,-0.25830078125,-0.53125,4.390243902439025,12.256097560975611,-16.402439024390244,130,4
79,0.72900390625,-0.25,-0.53564453125,4.146341463414634,11.219512195121952,-17.5,130,4
80,0.7314453125,-0.2705078125,-0.5146484375,4.695121951219512,11.097560975609756,-19.207317073170735,130,4
81,0.7421875,-0.2666015625,-0.50390625,5.487804878048781,10.548780487804878,-21.03658536585366,130,4
82,0.76953125,-0.251953125,-0.47998046875,7.195121951219513,9.329268292682928,-22.31707317073171,130,4
83,0.76025390625,-0.27197265625,-0.46142578125,9.207317073170733,8.475609756097562,-23.170731707317074,130,4
84,0.7333984375,-0.29736328125,-0.45703125,10.121951219512196,8.414634146341465,-24.573170731707318,130,4
85,0.734375,-0.296875,-0.4326171875,10.792682926829269,8.475609756097562,-25.731707317073173,130,4
86,0.7431640625,-0.30615234375,-0.4150390625,9.207317073170733,9.26829268292683,-26.646341463414636,130,4
87,0.73779296875,-0.29931640625,-0.4091796875,8.536585365853659,9.756097560975611,-27.500000000000004,130,4
88,0.73828125,-0.28564453125,-0.3828125,9.817073170731708,9.390243902439025,-28.84146341463415,130,4
89,0.7490234375,-0.2763671875,-0.365234375,12.865853658536587,6.890243902439025,-30.365853658536587,130,4
90,0.759765625,-0.28515625,-0.255859375,16.097560975609756,3.1707317073170733,-31.951219512195124,130,4
91,0.75244140625,-0.2900390625,-0.38427734375,18.231707317073173,-0.1829268292682927,-33.78048780487805,130,4
92,0.759765625,-0.2822265625,-0.40673828125,16.890243902439025,-0.6097560975609757,-36.58536585365854,130,4
93,0.80517578125,-0.22607421875,-0.37939453125,14.939024390243905,-1.1585365853658538,-37.6829268292683,130,4
94,0.82421875,-0.2080078125,-0.341796875,11.158536585365855,-1.2804878048780488,-37.5609756097561,130,4
95,0.80224609375,-0.2158203125,-0.29248046875,7.743902439024391,-1.9512195121951221,-36.707317073170735,130,4
96,0.7373046875,-0.26708984375,-0.26220703125,5.670731707317073,-1.829268292682927,-35.670731707317074,130,4
97,0.68896484375,-0.29345703125,-0.21337890625,4.390243902439025,-2.0121951219512195,-34.63414634146342,130,4
98,0.66650390625,-0.29541015625,-0.1767578125,3.658536585365854,-1.8902439024390245,-33.109756097560975,130,4
99,0.681640625,-0.26416015625,-0.14599609375,2.9268292682926833,-2.1341463414634148,-30.914634146341466,130,4
100,0.68115234375,-0.251953125,-0.13671875,2.5,-2.9268292682926833,-28.780487804878053,130,4
101,0.70751953125,-0.24267578125,-0.13916015625,1.7682926829268295,-3.658536585365854,-27.073170731707318,130,4
102,0.7314453125,-0.22119140625,-0.15185546875,0.24390243902439027,-5.670731707317073,-25.670731707317074,130,4
103,0.744140625,-0.21875,-0.1787109375,-1.402439024390244,-7.439024390243903,-24.207317073170735,130,4
104,0.75927734375,-0.21630859375,-0.2099609375,-3.9024390243902443,-10.060975609756099,-22.195121951219512,130,4
105,0.75341796875,-0.24169921875,-0.24462890625,-7.439024390243903,-11.52439024390244,-20.670731707317074,130,4
106,0.759765625,-0.2470703125,-0.25830078125,-10.487804878048781,-11.707317073170733,-19.02439024390244,130,4
107,0.7607421875,-0.12939453125,-0.23095703125,-13.902439024390246,-11.28048780487805,-17.5,130,4
108,0.77587890625,-0.2587890625,-0.23291015625,-16.097560975609756,-10.365853658536587,-15.000000000000002,130,4
109,0.76220703125,-0.2734375,-0.24169921875,-17.31707317073171,-9.939024390243903,-12.865853658536587,130,4
110,0.765625,-0.28369140625,-0.3740234375,-17.31707317073171,-9.207317073170733,-11.646341463414634,130,4
111,0.76904296875,-0.2841796875,-0.26708984375,-16.585365853658537,-8.231707317073171,-10.365853658536587,130,4
112,0.779296875,-0.29931640625,-0.2763671875,-15.975609756097562,-6.646341463414635,-9.451219512195122,130,4
113,0.787109375,-0.294921875,-0.3173828125,-16.219512195121954,-5.3048780487804885,-8.048780487804878,130,4
114,0.79833984375,-0.302734375,-0.25341796875,-17.926829268292686,-2.9268292682926833,-7.621951219512196,130,4
115,0.8046875,-0.28759765625,-0.39453125,-19.207317073170735,-0.853658536585366,-6.219512195121951,130,4
116,0.826171875,-0.28271484375,-0.4375,-21.52439024390244,1.524390243902439,-4.024390243902439,130,4
117,0.83349609375,-0.25439453125,-0.44091796875,-24.451219512195124,3.1707317073170733,-0.48780487804878053,130,4
118,0.85546875,-0.236328125,-0.447265625,-27.31707317073171,5.975609756097562,0.5487804878048781,130,4
119,0.8251953125,-0.126953125,-0.4384765625,-28.292682926829272,7.621951219512196,0.12195121951219513,130,4
120,0.78955078125,-0.27880859375,-0.4345703125,-26.463414634146343,8.597560975609756,-1.0365853658536586,130,4
121,0.7685546875,-0.29150390625,-0.46142578125,-22.195121951219512,5.670731707317073,-2.5,130,4
122,0.869140625,-0.3056640625,-0.4853515625,-20.731707317073173,6.890243902439025,-4.75609756097561,130,4
123,0.7763671875,-0.2822265625,-0.544921875,-23.902439024390247,9.939024390243903,-8.353658536585366,130,4
124,0.837890625,-0.1767578125,-0.58544921875,-31.03658536585366,13.109756097560977,-9.634146341463415,130,4
125,0.78857421875,-0.17626953125,-0.61328125,-36.28048780487805,17.621951219512198,-9.085365853658537,130,4
126,0.7236328125,-0.23876953125,-0.61328125,-40.85365853658537,20.914634146341466,-10.121951219512196,130,4
127,0.68701171875,-0.26953125,-0.638671875,-42.86585365853659,24.81707317073171,-8.109756097560977,130,4
128,0.70703125,-0.21337890625,-0.6943359375,-45.60975609756098,26.28048780487805,-11.463414634146343,130,4
129,0.740234375,-0.1416015625,-0.69287109375,-49.63414634146342,29.451219512195124,-10.0,130,4
130,0.744140625,-0.189453125,-0.63330078125,-51.15853658536586,29.75609756097561,-10.487804878048781,130,4
131,0.55615234375,-0.2333984375,-0.525390625,-43.963414634146346,29.26829268292683,-9.085365853658537,130,4
132,0.52783203125,-0.28955078125,-0.41943359375,-32.19512195121951,27.134146341463417,-10.182926829268293,130,4
133,0.5166015625,-0.291015625,-0.4111328125,-20.365853658536587,25.000000000000004,-12.621951219512196,130,4
134,0.56884765625,-0.255859375,-0.4892578125,-13.658536585365855,23.10975609756098,-16.82926829268293,130,4
135,0.69091796875,-0.11572265625,-0.58349609375,-13.231707317073171,21.463414634146343,-20.60975609756098,130,4
136,0.69970703125,-0.08203125,-0.60888671875,-14.817073170731708,21.890243902439025,-19.81707317073171,130,4
137,0.6416015625,-0.10546875,-0.591796875,-14.939024390243905,22.25609756097561,-18.902439024390244,130,4
138,0.634765625,-0.126953125,-0.51318359375,-13.841463414634148,22.98780487804878,-18.719512195121954,130,4
139,0.62060546875,-0.12060546875,-0.42626953125,-10.182926829268293,22.743902439024392,-18.658536585365855,130,4
140,0.6083984375,-0.1064453125,-0.3935546875,-3.963414634146342,22.621951219512198,-18.53658536585366,130,4
141,0.6103515625,-0.0966796875,-0.390625,0.7317073170731708,19.81707317073171,-19.207317073170735,130,4
142,0.646484375,-0.091796875,-0.4033203125,4.207317073170732,17.682926829268293,-20.670731707317074,130,4
143,0.697265625,-0.07421875,-0.47216796875,2.6219512195121952,31.03658536585366,-25.670731707317074,130,4
144,0.77294921875,-0.01806640625,-0.521484375,1.5853658536585367,15.243902439024392,-28.53658536585366,130,4
145,0.7421875,-0.01953125,-0.546875,15.365853658536587,11.585365853658537,-32.01219512195122,130,4
146,0.76708984375,-0.01953125,-0.50341796875,-2.9268292682926833,11.585365853658537,-36.34146341463415,130,4
147,0.765625,0.0087890625,-0.51123046875,-5.2439024390243905,10.792682926829269,-37.80487804878049,130,4
148,0.73779296875,-0.0517578125,-0.435546875,-7.926829268292684,13.29268292682927,-40.79268292682927,130,4
149,0.734375,-0.06201171875,-0.34814453125,-8.231707317073171,12.74390243902439,-42.804878048780495,130,4
150,0.6875,-0.06884765625,-0.3115234375,-5.060975609756098,17.804878048780488,-43.59756097560976,130,4
151,0.68017578125,-0.08837890625,-0.2216796875,-15.243902439024392,22.500000000000004,-41.21951219512196,130,4
152,0.65234375,-0.13818359375,-0.19287109375,4.634146341463415,23.04878048780488,-39.57317073170732,130,4
153,0.61474609375,-0.15625,-0.17822265625,13.109756097560977,23.04878048780488,-38.65853658536586,130,4
154,0.50537109375,-0.1513671875,-0.1279296875,19.512195121951223,22.682926829268293,-36.890243902439025,130,4
155,0.6376953125,-0.16259765625,-0.12841796875,19.81707317073171,23.170731707317074,-34.390243902439025,130,4
156,0.65576171875,-0.16748046875,-0.14111328125,18.231707317073173,23.84146341463415,-32.6829268292683,130,4
157,0.63330078125,-0.16162109375,-0.1083984375,19.695121951219512,20.60975609756098,-29.695121951219516,130,4
158,0.62451171875,-0.24560546875,-0.06884765625,21.951219512195124,18.170731707317074,-29.146341463414636,130,4
159,0.70361328125,-0.2119140625,-0.18017578125,16.158536585365855,23.658536585365855,-29.39024390243903,130,4
160,0.71728515625,-0.111328125,-0.18994140625,5.670731707317073,26.463414634146343,-25.792682926829272,130,4
161,0.708984375,-0.1220703125,-0.18212890625,-0.7926829268292683,26.646341463414636,-24.512195121951223,130,4
162,0.732421875,-0.12646484375,-0.14013671875,-0.7317073170731708,23.170731707317074,-23.719512195121954,130,4
163,0.7529296875,-0.12353515625,-0.0654296875,1.3414634146341464,19.878048780487806,-22.195121951219512,130,4
164,0.732421875,-0.1484375,-0.0068359375,4.2682926829268295,16.951219512195124,-21.463414634146343,130,4
165,0.74169921875,-0.13818359375,0.05126953125,9.329268292682928,14.451219512195124,-20.54878048780488,130,4
166,0.71435546875,-0.17333984375,0.0654296875,16.951219512195124,8.475609756097562,-18.10975609756098,130,4
167,0.65283203125,-0.1259765625,0.04150390625,25.182926829268293,2.6219512195121952,-17.012195121951223,130,4
168,0.640625,-0.25048828125,0.0087890625,28.719512195121954,-0.48780487804878053,-14.817073170731708,130,4
169,0.6826171875,-0.162109375,0.00830078125,24.573170731707318,-1.0975609756097562,-10.0,130,4
170,0.72900390625,-0.0927734375,-0.02001953125,13.719512195121952,2.6219512195121952,-4.817073170731708,130,4
171,0.734375,-0.03857421875,-0.0556640625,0.30487804878048785,11.829268292682928,-15.30487804878049,130,4
172,0.7431640625,-0.0126953125,-0.0244140625,-13.963414634146343,22.682926829268293,4.634146341463415,130,4
173,0.7392578125,-0.0390625,-0.12255859375,-21.52439024390244,22.134146341463417,7.134146341463415,130,4
174,0.65771484375,-0.099609375,-0.1875,-25.60975609756098,22.31707317073171,6.585365853658537,130,4
175,0.6279296875,-0.0693359375,-0.18310546875,-21.34146341463415,20.426829268292686,6.158536585365854,130,4
176,0.64697265625,-0.0107421875,-0.11083984375,-14.878048780487806,18.04878048780488,6.890243902439025,130,4
177,0.6435546875,0.0009765625,-0.0830078125,-7.01219512195122,18.658536585365855,8.841463414634147,130,4
178,0.6103515625,-0.0205078125,-0.05126953125,2.9268292682926833,19.512195121951223,11.951219512195124,130,4
179,0.51171875,-0.0712890625,-0.08544921875,6.951219512195123,20.0,14.695121951219514,130,4
180,0.662109375,-0.04736328125,-0.1611328125,8.902439024390244,20.79268292682927,17.98780487804878,130,4
181,0.66845703125,-0.0517578125,-0.20556640625,11.52439024390244,19.451219512195124,22.621951219512198,130,4
182,0.70703125,-0.0693359375,-0.3671875,21.463414634146343,4.634146341463415,27.987804878048784,130,4
183,0.73828125,-0.14501953125,-0.54150390625,20.30487804878049,-1.2195121951219514,27.5609756097561,130,4
184,0.759765625,-0.1796875,-0.64697265625,18.414634146341466,-5.548780487804878,28.04878048780488,130,4
185,0.82177734375,-0.18017578125,-0.59130859375,14.573170731707318,-9.146341463414634,29.26829268292683,130,4
186,0.96435546875,-0.0419921875,-0.4833984375,5.853658536585367,-11.097560975609756,28.780487804878053,130,4
187,0.8779296875,0.00390625,-0.505859375,-5.731707317073171,-10.670731707317074,26.76829268292683,130,4
188,1.02734375,0.06494140625,-0.55078125,-6.585365853658537,-0.48780487804878053,26.158536585365855,130,4
189,0.9150390625,-0.06787109375,-0.4580078125,1.2804878048780488,-25.121951219512198,27.439024390243905,130,4
190,0.77099609375,-0.24072265625,-0.47119140625,11.28048780487805,-35.30487804878049,27.80487804878049,130,4
191,0.673828125,-0.35205078125,-0.4755859375,18.414634146341466,-37.37804878048781,24.451219512195124,130,4
192,0.70849609375,-0.3154296875,-0.41357421875,24.634146341463417,-37.926829268292686,21.158536585365855,130,4
193,0.7392578125,-0.26025390625,-0.37158203125,30.30487804878049,-39.08536585365854,21.646341463414636,130,4
194,0.69482421875,-0.251953125,-0.3251953125,34.268292682926834,-36.21951219512196,23.59756097560976,130,4
195,0.6826171875,-0.26220703125,-0.296875,36.28048780487805,-32.987804878048784,26.951219512195124,130,4
196,0.6513671875,-0.310546875,-0.30029296875,35.426829268292686,-28.84146341463415,28.414634146341466,130,4
197,0.66796875,-0.27392578125,-0.328125,33.04878048780488,-24.26829268292683,29.39024390243903,130,4
198,0.685546875,-0.234375,-0.35986328125,31.280487804878053,-21.951219512195124,30.914634146341466,130,4
199,0.66552734375,-0.22412109375,-0.38037109375,29.26829268292683,-19.634146341463417,32.37804878048781,130,4
200,0.646484375,-0.23681640625,-0.404296875,28.170731707317074,-20.0,33.90243902439025,130,4
201,0.6103515625,-0.26611328125,-0.45947265625,27.621951219512198,-21.097560975609756,33.78048780487805,130,4
202,0.5966796875,-0.26025390625,-0.47900390625,28.658536585365855,-22.012195121951223,32.86585365853659,130,4
203,0.59033203125,-0.2314453125,-0.48291015625,32.6219512195122,-26.82926829268293,32.13414634146342,130,4
204,0.62255859375,-0.22607421875,-0.55029296875,33.65853658536586,-27.865853658536587,30.182926829268297,130,4
205,0.6396484375,-0.21728515625,-0.55322265625,33.90243902439025,-28.658536585365855,30.0609756097561,130,4
206,0.6162109375,-0.240234375,-0.5673828125,34.08536585365854,-30.975609756097565,30.121951219512198,130,4
207,0.61767578125,-0.37451171875,-0.57421875,32.31707317073171,-29.451219512195124,29.02439024390244,130,4
208,0.63330078125,-0.25927734375,-0.5703125,15.609756097560977,-27.743902439024392,29.08536585365854,130,4
209,0.6318359375,-0.27099609375,-0.55126953125,31.951219512195124,-26.707317073170735,29.75609756097561,130,4
210,0.6396484375,-0.26904296875,-0.5302734375,36.03658536585366,-28.658536585365855,30.426829268292686,130,4
211,0.63427734375,-0.3154296875,-0.55810546875,42.13414634146342,-30.426829268292686,29.939024390243905,130,4
212,0.63720703125,-0.341796875,-0.55810546875,31.52439024390244,-31.03658536585366,28.10975609756098,130,4
213,0.64892578125,-0.318359375,-0.55859375,50.54878048780488,-30.914634146341466,25.792682926829272,130,4
214,0.6796875,-0.29931640625,-0.548828125,52.86585365853659,-31.219512195121954,25.121951219512198,130,4
215,0.66796875,-0.3056640625,-0.55712890625,55.487804878048784,-34.75609756097561,25.731707317073173,130,4
216,0.6279296875,-0.35009765625,-0.59765625,57.6219512195122,-37.19512195121951,25.853658536585368,130,4
217,0.59326171875,-0.25048828125,-0.5986328125,59.51219512195122,-38.35365853658537,25.731707317073173,130,4
218,0.60546875,-0.33447265625,-0.57958984375,58.71951219512196,-39.451219512195124,27.31707317073171,130,4
219,0.6123046875,-0.3115234375,-0.55615234375,58.17073170731708,-40.97560975609756,30.487804878048784,130,4
220,0.591796875,-0.318359375,-0.55859375,58.47560975609757,-44.390243902439025,34.93902439024391,130,4
221,0.59033203125,-0.32470703125,-0.580078125,59.57317073170732,-47.43902439024391,38.59756097560976,130,4
222,0.62451171875,-0.30078125,-0.59228515625,58.963414634146346,-49.146341463414636,39.207317073170735,130,4
223,0.7255859375,-0.224609375,-0.5615234375,56.585365853658544,-53.963414634146346,38.65853658536586,130,4
224,0.79052734375,-0.23291015625,-0.599609375,53.04878048780488,-55.1829268292683,36.463414634146346,130,4
225,0.8212890625,-0.2412109375,-0.52294921875,50.00000000000001,-55.73170731707317,34.63414634146342,130,4
226,0.857421875,-0.283203125,-0.44384765625,48.65853658536586,-55.91463414634147,34.024390243902445,130,4
227,0.876953125,-0.2734375,-0.3876953125,44.51219512195122,-55.91463414634147,35.1829268292683,130,4
228,0.82958984375,-0.31298828125,-0.314453125,42.50000000000001,-55.73170731707317,39.81707317073171,130,4
229,0.7451171875,-0.359375,-0.3017578125,41.707317073170735,-56.15853658536586,44.57317073170732,130,4
230,0.70849609375,-0.3779296875,-0.27490234375,41.707317073170735,-56.28048780487806,48.10975609756098,130,4
231,0.66455078125,-0.38134765625,-0.28271484375,43.170731707317074,-58.17073170731708,51.21951219512196,130,4
232,0.65869140625,-0.3720703125,-0.3291015625,47.987804878048784,-60.426829268292686,53.78048780487806,130,4
233,0.66845703125,-0.32177734375,-0.3701171875,52.86585365853659,-63.963414634146346,55.91463414634147,130,4
234,0.67333984375,-0.30810546875,-0.36328125,59.81707317073171,-67.8048780487805,59.207317073170735,130,4
235,0.68408203125,-0.30322265625,-0.2529296875,63.65853658536586,-67.8048780487805,62.743902439024396,130,4
236,0.65869140625,-0.34423828125,-0.40234375,77.7439024390244,-62.926829268292686,65.85365853658537,130,4
237,0.65087890625,-0.36181640625,-0.3994140625,58.71951219512196,-57.865853658536594,68.65853658536587,130,4
238,0.65087890625,-0.38818359375,-0.42431640625,56.21951219512196,-52.37804878048781,70.67073170731707,130,4
239,0.6904296875,-0.37939453125,-0.4462890625,52.86585365853659,-48.963414634146346,73.41463414634147,130,4
240,0.65185546875,-0.43603515625,-0.44482421875,51.463414634146346,-48.59756097560976,76.89024390243902,130,4
241,0.61279296875,-0.49658203125,-0.45947265625,53.65853658536586,-51.40243902439025,78.53658536585367,130,4
242,0.60693359375,-0.5302734375,-0.45458984375,57.37804878048781,-53.59756097560976,77.8048780487805,130,4
243,0.6015625,-0.55029296875,-0.4306640625,61.585365853658544,-55.243902439024396,75.48780487804879,130,4
244,0.6123046875,-0.55517578125,-0.42578125,64.02439024390245,-55.00000000000001,72.19512195121952,130,4
245,0.6748046875,-0.50146484375,-0.4140625,63.41463414634147,-52.743902439024396,69.63414634146342,130,4
246,0.70361328125,-0.46923828125,-0.43017578125,63.17073170731708,-51.21951219512196,67.8658536585366,130,4
247,0.685546875,-0.419921875,-0.49755859375,44.81707317073171,-24.512195121951223,50.97560975609756,130,4
248,2.54541015625,-0.88525390625,-3.36083984375,100.1829268292683,-146.34146341463415,227.37804878048783,130,4
249,-4.1630859375,-3.9990234375,0.1357421875,-66.09756097560977,110.48780487804879,114.51219512195122,130,4
250,1.501953125,-0.01904296875,0.28857421875,-128.47560975609758,67.5609756097561,-15.000000000000002,130,4
251,1.20361328125,0.369140625,0.51416015625,-43.29268292682927,26.52439024390244,25.731707317073173,130,4
252,0.7529296875,0.75146484375,0.32470703125,-10.30487804878049,33.47560975609756,14.207317073170733,130,4
253,1.7890625,0.95556640625,-0.4541015625,35.609756097560975,-20.60975609756098,36.463414634146346,130,4
254,1.162109375,-0.07080078125,-0.6201171875,48.23170731707317,-26.28048780487805,20.670731707317074,130,4
255,0.6669921875,-0.2861328125,-0.5634765625,39.63414634146342,-27.987804878048784,5.3048780487804885,130,4
256,0.67822265625,-0.12109375,-0.48388671875,46.82926829268293,-25.48780487804878,0.6097560975609757,130,4
257,0.80078125,0.03173828125,-0.46142578125,46.34146341463415,-7.865853658536586,1.7682926829268295,130,4
258,0.7978515625,0.01220703125,-0.55029296875,13.597560975609758,2.804878048780488,7.8048780487804885,130,4
259,0.8232421875,-0.03564453125,-0.77587890625,5.365853658536586,-15.487804878048783,20.182926829268293,130,4
260,0.43896484375,-0.6416015625,-0.6455078125,-13.597560975609758,27.25609756097561,23.29268292682927,130,4
261,0.490234375,-0.49951171875,-0.61865234375,-34.51219512195122,41.58536585365854,8.414634146341465,130,4
262,0.84521484375,-0.13916015625,-0.53515625,-22.134146341463417,34.32926829268293,9.573170731707318,130,4
263,0.55810546875,-0.41796875,-0.4365234375,-19.81707317073171,44.207317073170735,11.585365853658537,130,4
264,0.5517578125,-0.46044921875,-0.53662109375,-12.317073170731708,42.13414634146342,8.109756097560977,130,4
265,0.5498046875,-0.46923828125,-0.5361328125,7.378048780487806,33.29268292682927,4.939024390243903,130,4
266,0.49267578125,-0.5537109375,-0.521484375,19.146341463414636,30.365853658536587,2.1951219512195124,130,4
267,0.49072265625,-0.52734375,-0.60205078125,24.939024390243905,26.463414634146343,0.6707317073170732,130,4
268,0.453125,-0.5478515625,-0.65380859375,26.09756097560976,26.03658536585366,0.853658536585366,130,4
269,0.41650390625,-0.60791015625,-0.69189453125,22.682926829268293,27.073170731707318,0.3658536585365854,130,4
270,0.4033203125,-0.59814453125,-0.7353515625,16.463414634146343,24.451219512195124,0.9146341463414634,130,4
271,0.376953125,-0.54345703125,-0.6826171875,15.30487804878049,25.54878048780488,2.5609756097560976,130,4
272,0.3896484375,-0.5830078125,-0.666015625,11.158536585365855,27.012195121951223,5.060975609756098,130,4
273,0.35546875,-0.517578125,-0.669921875,12.500000000000002,22.378048780487806,7.8048780487804885,130,4
274,0.43212890625,-0.61572265625,-0.666015625,19.085365853658537,17.98780487804878,8.048780487804878,130,4
275,0.48388671875,-0.62451171875,-0.6396484375,27.500000000000004,12.682926829268293,7.621951219512196,130,4
276,0.44873046875,-0.69580078125,-0.6123046875,35.0,6.951219512195123,6.341463414634147,130,4
277,0.427734375,-0.75048828125,-0.6201171875,43.170731707317074,1.3414634146341464,4.329268292682928,130,4
278,0.4521484375,-0.7802734375,-0.685546875,44.93902439024391,-3.414634146341464,1.829268292682927,130,4
279,0.44091796875,-0.8037109375,-0.7451171875,41.15853658536586,-5.0,15.487804878048783,130,4
280,0.44580078125,-0.7802734375,-0.763671875,29.634146341463417,-3.4756097560975614,-1.2195121951219514,130,4
281,0.4697265625,-0.87353515625,-0.798828125,15.853658536585368,-2.5609756097560976,-1.0975609756097562,130,4
282,0.48291015625,-0.6982421875,-0.78369140625,15.426829268292684,-0.6097560975609757,1.1585365853658538,130,4
283,0.41259765625,-0.71044921875,-0.86474609375,-0.48780487804878053,-4.634146341463415,3.9024390243902443,130,4
284,0.357421875,-0.7392578125,-0.93359375,-27.25609756097561,-6.463414634146342,5.670731707317073,130,4
285,0.4580078125,-0.7490234375,-0.88916015625,-33.04878048780488,-3.048780487804878,6.2804878048780495,130,4
286,0.56201171875,-0.55615234375,-0.875,-43.23170731707317,5.182926829268293,7.500000000000001,130,4
287,0.658203125,-0.51904296875,-0.88427734375,-70.3048780487805,26.89024390243903,3.1707317073170733,130,4
288,0.771484375,-0.361328125,-0.81640625,-97.98780487804879,45.426829268292686,4.75609756097561,130,4
289,0.75244140625,-0.42333984375,-0.66943359375,-112.56097560975611,57.07317073170732,9.207317073170733,130,4
290,0.662109375,-0.48828125,-0.40283203125,-107.98780487804879,55.304878048780495,12.317073170731708,130,4
291,0.58154296875,-0.5283203125,-0.18798828125,-86.15853658536587,37.07317073170732,15.30487804878049,130,4
292,0.3759765625,-0.58203125,-0.15283203125,-58.29268292682927,16.76829268292683,15.914634146341465,130,4
293,0.31201171875,-0.52392578125,-0.228515625,-38.53658536585366,6.52439024390244,9.878048780487806,130,4
294,0.53515625,-0.333984375,-0.30517578125,-24.939024390243905,4.878048780487806,10.30487804878049,130,4
295,0.62939453125,-0.28955078125,-0.224609375,-24.451219512195124,8.902439024390244,11.76829268292683,130,4
296,0.73681640625,-0.2236328125,-0.1337890625,-16.158536585365855,19.634146341463417,10.426829268292684,130,4
297,0.80224609375,-0.21826171875,-0.10205078125,-37.43902439024391,30.914634146341466,7.560975609756098,130,4
298,0.78955078125,-0.2783203125,-0.099609375,-35.85365853658537,34.81707317073171,4.695121951219512,130,4
299,0.73876953125,-0.33056640625,-0.24853515625,-46.40243902439025,35.1829268292683,-4.085365853658537,130,4
300,0.8134765625,-0.22119140625,-0.20361328125,-20.0609756097561,29.26829268292683,-14.756097560975611,130,4
301,0.8876953125,-0.08935546875,-0.134765625,-9.756097560975611,23.170731707317074,-23.414634146341466,130,4
302,0.93017578125,-0.01171875,-0.3955078125,-4.146341463414634,15.975609756097562,-28.353658536585368,130,4
303,0.89599609375,-0.09375,-0.58837890625,-7.195121951219513,13.719512195121952,-30.60975609756098,130,4
304,0.830078125,-0.14208984375,-0.7119140625,-0.426829268292683,0.0,-31.58536585365854,130,4
305,0.81103515625,-0.35595703125,-0.71826171875,-25.975609756097562,22.5609756097561,-26.951219512195124,130,4
306,0.71875,-0.54443359375,-0.59521484375,-36.40243902439025,31.158536585365855,-19.02439024390244,130,4
307,0.6064453125,-0.8037109375,-0.404296875,-39.51219512195122,37.743902439024396,-13.353658536585368,130,4
308,0.5595703125,-0.92529296875,-0.29638671875,-34.57317073170732,41.524390243902445,-14.878048780487806,130,4
309,0.58251953125,-0.87890625,-0.34033203125,-23.658536585365855,38.35365853658537,-20.30487804878049,130,4
310,0.67626953125,-0.70458984375,-0.44775390625,-13.658536585365855,34.63414634146342,-25.365853658536587,130,4
311,0.6884765625,-0.58935546875,-0.50537109375,-10.0,34.451219512195124,-27.865853658536587,130,4
312,0.66552734375,-0.625,-0.53662109375,-10.609756097560977,36.463414634146346,-29.634146341463417,130,4
313,0.64453125,-0.44140625,-0.55224609375,-11.890243902439025,37.5609756097561,-31.463414634146343,130,4
314,0.6318359375,-0.40869140625,-0.5126953125,-13.658536585365855,38.35365853658537,-34.024390243902445,130,4
315,0.65576171875,-0.37158203125,-0.45068359375,-14.634146341463415,36.463414634146346,-34.390243902439025,130,4
316,0.74169921875,-0.3984375,-0.36083984375,-12.195121951219512,33.109756097560975,-32.19512195121951,130,4
317,0.56787109375,-0.435546875,-0.337890625,-9.878048780487806,32.01219512195122,-29.75609756097561,130,4
318,0.56787109375,-0.42919921875,-0.3408203125,-8.170731707317074,30.853658536585368,-28.170731707317074,130,4
319,0.56787109375,-0.41259765625,-0.34716796875,-2.682926829268293,25.853658536585368,-26.158536585365855,130,4
320,0.580078125,-0.4453125,-0.42138671875,4.695121951219512,23.170731707317074,-29.207317073170735,130,4
321,0.6552734375,-0.4140625,-0.43994140625,10.853658536585368,21.646341463414636,-31.646341463414636,130,4
322,0.6845703125,-0.39990234375,-0.46923828125,9.085365853658537,22.31707317073171,-33.35365853658537,130,4
323,0.74853515625,-0.33251953125,-0.5087890625,4.207317073170732,26.402439024390247,-35.243902439024396,130,4
324,0.84375,-0.27978515625,-0.4833984375,-4.573170731707317,32.43902439024391,-34.146341463414636,130,4
325,0.86572265625,-0.28515625,-0.42578125,-17.25609756097561,37.743902439024396,-30.54878048780488,130,4
326,0.84716796875,-0.26123046875,-0.4482421875,-26.89024390243903,38.84146341463415,-27.743902439024392,130,4
327,0.8154296875,-0.31298828125,-0.5029296875,-31.58536585365854,41.09756097560976,-27.987804878048784,130,4
328,0.76416015625,-0.40673828125,-0.66064453125,-29.81707317073171,40.304878048780495,-29.634146341463417,130,4
329,0.765625,-0.43798828125,-0.6240234375,-23.353658536585368,37.25609756097561,-32.43902439024391,130,4
330,0.81689453125,-0.384765625,-0.564453125,-16.158536585365855,32.43902439024391,-35.36585365853659,130,4
331,0.82177734375,-0.3857421875,-0.5556640625,-6.646341463414635,26.09756097560976,-38.84146341463415,130,4
332,0.8740234375,-0.4619140625,-0.56103515625,5.0,18.78048780487805,-42.804878048780495,130,4
333,0.70751953125,-0.47705078125,-0.6083984375,11.951219512195124,13.536585365853659,-48.90243902439025,130,4
334,0.7578125,-0.39794921875,-0.60107421875,13.414634146341465,12.560975609756099,-49.75609756097561,130,4
335,0.74169921875,-0.37841796875,-0.6171875,9.695121951219512,12.560975609756099,-47.01219512195122,130,4
336,0.66015625,-0.41455078125,-0.4150390625,8.658536585365855,8.231707317073171,-42.31707317073171,130,4
337,0.51708984375,-0.49755859375,-0.39453125,13.902439024390246,1.2195121951219514,-36.768292682926834,130,4
338,0.43701171875,-0.544921875,-0.43994140625,20.182926829268293,-5.853658536585367,-31.707317073170735,130,4
339,0.4609375,-0.54541015625,-0.552734375,25.000000000000004,-7.926829268292684,-27.439024390243905,130,4
340,0.60791015625,-0.513671875,-0.73388671875,24.939024390243905,-6.402439024390245,-22.500000000000004,130,4
341,0.6640625,-0.50830078125,-0.75244140625,19.75609756097561,-5.975609756097562,-16.890243902439025,130,4
342,0.6435546875,-0.50341796875,-0.63818359375,13.414634146341465,-3.536585365853659,-11.707317073170733,130,4
343,0.607421875,-0.49951171875,-0.52587890625,10.0,-1.402439024390244,-5.7926829268292686,130,4
344,0.54833984375,-0.51123046875,-0.44189453125,12.500000000000002,-2.439024390243903,-0.12195121951219513,130,4
345,0.51416015625,-0.51904296875,-0.43359375,16.03658536585366,-4.390243902439025,1.524390243902439,130,4
346,0.54296875,-0.470703125,-0.4501953125,18.53658536585366,-5.060975609756098,1.829268292682927,130,4
347,0.544921875,-0.43017578125,-0.42578125,19.26829268292683,-8.109756097560977,2.5609756097560976,130,4
348,0.5166015625,-0.40087890625,-0.466796875,19.451219512195124,-10.853658536585368,2.25609756097561,130,4
349,0.47998046875,-0.3994140625,-0.4912109375,20.670731707317074,-12.987804878048781,1.829268292682927,130,4
350,0.4677734375,-0.4140625,-0.486328125,24.390243902439025,-14.451219512195124,1.9512195121951221,130,4
351,0.49658203125,-0.39404296875,-0.51025390625,27.743902439024392,-15.426829268292684,2.0121951219512195,130,4
352,0.50537109375,-0.42236328125,-0.52392578125,28.59756097560976,-14.207317073170733,2.378048780487805,130,4
353,0.5029296875,-0.44189453125,-0.54736328125,28.658536585365855,-12.560975609756099,3.780487804878049,130,4
354,0.5234375,-0.47314453125,-0.55078125,27.865853658536587,-9.756097560975611,5.3048780487804885,130,4
355,0.537109375,-0.52294921875,-0.5380859375,27.31707317073171,-8.597560975609756,7.01219512195122,130,4
356,0.52197265625,-0.52392578125,-0.49267578125,26.34146341463415,-7.865853658536586,8.292682926829269,130,4
357,0.52392578125,-0.50927734375,-0.47900390625,26.34146341463415,-7.926829268292684,9.085365853658537,130,4
358,0.53271484375,-0.50537109375,-0.4541015625,26.82926829268293,-8.475609756097562,9.146341463414634,130,4
359,0.556640625,-0.48193359375,-0.44091796875,25.365853658536587,-8.475609756097562,8.292682926829269,130,4
360,0.56787109375,-0.46435546875,-0.45654296875,24.878048780487806,-8.78048780487805,7.926829268292684,130,4
361,0.5791015625,-0.48046875,-0.46240234375,25.60975609756098,-10.365853658536587,6.402439024390245,130,4
362,0.6201171875,-0.4873046875,-0.49462890625,26.463414634146343,-11.829268292682928,5.0,130,4
363,0.62646484375,-0.4990234375,-0.52197265625,25.30487804878049,-11.52439024390244,4.085365853658537,130,4
364,0.63720703125,-0.5078125,-0.509765625,23.29268292682927,-11.158536585365855,3.414634146341464,130,4
365,0.630859375,-0.54931640625,-0.49609375,23.04878048780488,-11.097560975609756,2.8658536585365857,130,4
366,0.62890625,-0.56103515625,-0.3798828125,22.621951219512198,-10.30487804878049,2.073170731707317,130,4
367,0.501953125,-0.56103515625,-0.490234375,20.975609756097562,-9.329268292682928,2.073170731707317,130,4
368,0.6376953125,-0.52490234375,-0.46142578125,20.0609756097561,-8.597560975609756,3.1097560975609757,130,4
369,0.6279296875,-0.51953125,-0.45751953125,20.182926829268293,-8.902439024390244,3.963414634146342,130,4
370,0.62109375,-0.52099609375,-0.47021484375,20.79268292682927,-9.02439024390244,3.780487804878049,130,4
371,0.62158203125,-0.50341796875,-0.470703125,21.219512195121954,-8.841463414634147,3.4756097560975614,130,4
372,0.62744140625,-0.486328125,-0.49658203125,21.76829268292683,-9.02439024390244,2.682926829268293,130,4
373,0.64697265625,-0.4755859375,-0.4970703125,21.158536585365855,-8.536585365853659,2.25609756097561,130,4
374,0.6416015625,-0.4716796875,-0.50390625,19.75609756097561,-7.743902439024391,1.707317073170732,130,4
375,0.64013671875,-0.46142578125,-0.5087890625,18.475609756097562,-5.975609756097562,1.402439024390244,130,4
376,0.634765625,-0.46923828125,-0.50732421875,16.585365853658537,-4.634146341463415,1.7682926829268295,130,4
377,0.6259765625,-0.48095703125,-0.49560546875,15.670731707317074,-4.085365853658537,2.6219512195121952,130,4
378,0.6298828125,-0.48681640625,-0.48974609375,15.914634146341465,-3.658536585365854,3.048780487804878,130,4
379,0.62451171875,-0.48193359375,-0.46044921875,15.79268292682927,-3.9024390243902443,3.963414634146342,130,4
380,0.50048828125,-0.47802734375,-0.4677734375,16.76829268292683,-5.2439024390243905,4.390243902439025,130,4
381,0.61962890625,-0.47998046875,-0.48291015625,18.78048780487805,-6.158536585365854,3.8414634146341466,130,4
382,0.65478515625,-0.451171875,-0.49072265625,19.085365853658537,-5.975609756097562,3.7195121951219514,130,4
383,0.66552734375,-0.4365234375,-0.376953125,17.134146341463417,-4.573170731707317,3.658536585365854,130,4
384,0.67138671875,-0.41357421875,-0.50341796875,14.878048780487806,-2.439024390243903,3.4756097560975614,130,4
385,0.67626953125,-0.408203125,-0.50048828125,11.28048780487805,0.1829268292682927,3.231707317073171,130,4
386,0.6650390625,-0.4033203125,-0.4716796875,8.475609756097562,2.0121951219512195,3.231707317073171,130,4
387,0.646484375,-0.4013671875,-0.466796875,7.195121951219513,2.9268292682926833,3.5975609756097566,130,4
388,0.65185546875,-0.4140625,-0.4619140625,9.26829268292683,1.6463414634146343,3.048780487804878,130,4
389,0.65185546875,-0.43115234375,-0.46533203125,10.426829268292684,0.426829268292683,2.3170731707317076,130,4
390,0.6513671875,-0.4189453125,-0.44873046875,9.634146341463415,0.6097560975609757,2.1341463414634148,130,4
391,0.65185546875,-0.4130859375,-0.4189453125,8.231707317073171,0.7317073170731708,1.8902439024390245,130,4
392,0.65185546875,-0.4033203125,-0.42041015625,8.231707317073171,0.6097560975609757,1.2804878048780488,130,4
393,0.6455078125,-0.39794921875,-0.4248046875,8.231707317073171,0.6097560975609757,0.7926829268292683,130,4
394,0.65283203125,-0.3818359375,-0.43359375,7.317073170731708,0.5487804878048781,0.12195121951219513,130,4
395,0.64599609375,-0.37548828125,-0.42236328125,7.25609756097561,0.1829268292682927,-0.6097560975609757,130,4
396,0.6376953125,-0.384765625,-0.4208984375,8.536585365853659,-1.2195121951219514,-1.3414634146341464,130,4
397,0.61669921875,-0.400390625,-0.458984375,10.853658536585368,-2.8658536585365857,-2.804878048780488,130,4
398,0.60205078125,-0.3984375,-0.484375,12.682926829268293,-3.780487804878049,-4.207317073170732,130,4
399,0.6064453125,-0.3798828125,-0.52587890625,12.073170731707318,-3.1707317073170733,-5.060975609756098,130,4
400,0.62109375,-0.38232421875,-0.50537109375,9.634146341463415,-2.439024390243903,-5.365853658536586,130,4
401,0.595703125,-0.38623046875,-0.4794921875,7.621951219512196,-1.4634146341463417,-4.817073170731708,130,4
402,0.55908203125,-0.4091796875,-0.45556640625,6.707317073170732,-0.5487804878048781,-4.390243902439025,130,4
403,0.54931640625,-0.41064453125,-0.45458984375,7.134146341463415,-0.6097560975609757,-4.51219512195122,130,4
404,0.55126953125,-0.408203125,-0.4453125,7.987804878048781,-0.6707317073170732,-4.878048780487806,130,4
405,0.55810546875,-0.39599609375,-0.46630859375,8.841463414634147,-1.0975609756097562,-5.487804878048781,130,4
406,0.5439453125,-0.3994140625,-0.46728515625,9.51219512195122,-1.524390243902439,-5.975609756097562,130,4
407,0.5361328125,-0.404296875,-0.47119140625,11.158536585365855,-2.073170731707317,-6.829268292682928,130,4
408,0.54296875,-0.39794921875,-0.46826171875,12.682926829268293,-1.8902439024390245,-7.743902439024391,130,4
409,0.5654296875,-0.369140625,-0.45703125,12.134146341463415,-0.9756097560975611,-8.353658536585366,130,4
410,0.5634765625,-0.37451171875,-0.4736328125,10.670731707317074,-0.1829268292682927,-8.902439024390244,130,4
411,0.57080078125,-0.3916015625,-0.48095703125,10.121951219512196,0.3658536585365854,-9.02439024390244,130,4
412,0.59130859375,-0.39453125,-0.48291015625,9.451219512195122,1.4634146341463417,-9.26829268292683,130,4
413,0.61328125,-0.39208984375,-0.48486328125,9.085365853658537,1.8902439024390245,-9.02439024390244,130,4
414,0.63037109375,-0.40576171875,-0.4931640625,8.719512195121952,1.829268292682927,-8.963414634146343,130,4
415,0.65869140625,-0.4130859375,-0.51416015625,9.695121951219512,0.853658536585366,-8.78048780487805,130,4
416,0.68603515625,-0.43505859375,-0.53466796875,11.646341463414634,15.426829268292684,-9.02439024390244,130,4
417,0.7109375,-0.4599609375,-0.56201171875,12.74390243902439,-0.6707317073170732,-8.902439024390244,130,4
418,0.74609375,-0.4560546875,-0.5673828125,12.926829268292684,-0.6707317073170732,-8.902439024390244,130,4
419,0.77099609375,-0.45361328125,-0.58544921875,12.439024390243903,-0.6097560975609757,-8.414634146341465,130,4
420,0.7890625,-0.47412109375,-0.59326171875,12.500000000000002,-0.5487804878048781,-7.743902439024391,130,4
421,0.80712890625,-0.4873046875,-0.5791015625,11.890243902439025,-0.30487804878048785,-6.463414634146342,130,4
422,0.80810546875,-0.48779296875,-0.583984375,10.548780487804878,-0.06097560975609757,-5.365853658536586,130,4
423,0.81298828125,-0.498046875,-0.57373046875,10.365853658536587,-0.6707317073170732,-3.5975609756097566,130,4
424,0.81201171875,-0.50390625,-0.587890625,10.182926829268293,-1.0365853658536586,-2.804878048780488,130,4
425,0.80712890625,-0.52099609375,-0.58349609375,9.634146341463415,-1.524390243902439,-1.9512195121951221,130,4
426,0.80615234375,-0.62451171875,-0.56591796875,8.414634146341465,-1.2804878048780488,-1.0975609756097562,130,4
427,0.810546875,-0.48291015625,-0.53271484375,6.7682926829268295,-1.1585365853658538,0.5487804878048781,130,4
428,0.78125,-0.47314453125,-0.50634765625,5.7926829268292686,-1.2195121951219514,2.073170731707317,130,4
429,0.75341796875,-0.484375,-0.6220703125,5.0,-1.0975609756097562,3.2926829268292686,130,4
430,0.740234375,-0.47119140625,-0.4892578125,4.878048780487806,-1.0975609756097562,4.024390243902439,130,4
431,0.72705078125,-0.43115234375,-0.4736328125,4.939024390243903,-1.1585365853658538,4.939024390243903,130,4
432,0.71435546875,-0.4384765625,-0.47119140625,5.670731707317073,-1.829268292682927,5.487804878048781,130,4
433,0.69482421875,-0.43896484375,-0.47265625,6.341463414634147,-2.0121951219512195,5.487804878048781,130,4
434,0.68505859375,-0.4091796875,-0.48583984375,5.7926829268292686,-1.0365853658536586,5.548780487804878,130,4
435,0.68017578125,-0.38330078125,-0.46337890625,4.51219512195122,0.426829268292683,5.670731707317073,130,4
436,0.66943359375,-0.3720703125,-0.458984375,3.8414634146341466,1.9512195121951221,5.975609756097562,130,4
437,0.6494140625,-0.36865234375,-0.43896484375,2.7439024390243905,3.1707317073170733,6.097560975609756,130,4
438,0.64306640625,-0.3623046875,-0.44287109375,2.439024390243903,3.8414634146341466,6.036585365853659,130,4
439,0.6220703125,-0.37353515625,-0.44775390625,2.8658536585365857,4.024390243902439,5.609756097560976,130,4
440,0.62451171875,-0.36669921875,-0.4501953125,2.9268292682926833,4.634146341463415,5.060975609756098,130,4
441,0.63134765625,-0.36279296875,-0.451171875,2.8658536585365857,5.060975609756098,4.939024390243903,130,4
442,0.61279296875,-0.375,-0.43994140625,3.353658536585366,5.060975609756098,4.390243902439025,130,4
443,0.60498046875,-0.3935546875,-0.43603515625,4.878048780487806,4.451219512195122,3.7195121951219514,130,4
444,0.59375,-0.380859375,-0.44775390625,6.646341463414635,4.085365853658537,2.3170731707317076,130,4
445,0.61181640625,-0.37255859375,-0.46142578125,7.25609756097561,4.51219512195122,1.5853658536585367,130,4
446,0.626953125,-0.36083984375,-0.46142578125,6.2804878048780495,5.487804878048781,1.2195121951219514,130,4
447,0.74853515625,-0.36669921875,-0.44580078125,5.3048780487804885,6.036585365853659,0.9756097560975611,130,4
448,0.60302734375,-0.37451171875,-0.43994140625,4.573170731707317,6.707317073170732,0.7317073170731708,130,4
449,0.6015625,-0.37939453125,-0.4384765625,4.451219512195122,5.914634146341464,0.6097560975609757,130,4
450,0.58935546875,-0.3876953125,-0.44677734375,5.182926829268293,5.2439024390243905,0.6097560975609757,130,4
451,0.58056640625,-0.3828125,-0.4326171875,4.51219512195122,5.3048780487804885,0.9756097560975611,130,4
452,0.57177734375,-0.3876953125,-0.419921875,4.024390243902439,4.634146341463415,1.402439024390244,130,4
453,0.5595703125,-0.3994140625,-0.43359375,4.939024390243903,3.658536585365854,1.2195121951219514,130,4
454,0.56591796875,-0.4013671875,-0.4443359375,5.670731707317073,3.5975609756097566,0.853658536585366,130,4
455,0.5732421875,-0.3974609375,-0.45849609375,4.75609756097561,3.8414634146341466,0.9756097560975611,130,4
456,0.5830078125,-0.40185546875,-0.46044921875,4.2682926829268295,3.4756097560975614,0.7317073170731708,130,4
457,0.58056640625,-0.41357421875,-0.50634765625,4.634146341463415,3.4756097560975614,0.426829268292683,130,4
458,0.58984375,-0.40771484375,-0.49560546875,2.987804878048781,3.963414634146342,0.5487804878048781,130,4
459,0.5869140625,-0.3994140625,-0.49169921875,0.853658536585366,5.609756097560976,0.7317073170731708,130,4
460,0.58056640625,-0.4091796875,-0.46533203125,-0.7926829268292683,6.036585365853659,1.524390243902439,130,4
461,0.55859375,-0.42578125,-0.45849609375,0.853658536585366,4.939024390243903,2.0121951219512195,130,4
462,0.54931640625,-0.4423828125,-0.45849609375,2.5609756097560976,4.207317073170732,2.378048780487805,130,4
463,0.56494140625,-0.419921875,-0.45068359375,4.573170731707317,3.7195121951219514,2.5,130,4
464,0.57177734375,-0.42138671875,-0.37646484375,5.975609756097562,3.1097560975609757,2.1341463414634148,130,4
465,0.58349609375,-0.41259765625,-0.5224609375,5.3048780487804885,5.0,1.5853658536585367,130,4
466,0.60498046875,-0.41162109375,-0.52490234375,2.804878048780488,6.646341463414635,1.0365853658536586,130,4
467,0.60400390625,-0.40625,-0.3759765625,1.3414634146341464,7.25609756097561,0.853658536585366,130,4
468,0.6064453125,-0.4287109375,-0.49462890625,2.0121951219512195,6.890243902439025,0.7926829268292683,130,4
469,0.62109375,-0.43701171875,-0.50830078125,2.8658536585365857,6.097560975609756,0.1829268292682927,130,4
470,0.63330078125,-0.44140625,-0.505859375,2.8658536585365857,6.463414634146342,0.0,130,4
471,0.64453125,-0.4296875,-0.478515625,0.9756097560975611,6.951219512195123,0.48780487804878053,130,4
472,0.6328125,-0.4296875,-0.4716796875,0.6097560975609757,7.195121951219513,1.2195121951219514,130,4
473,0.623046875,-0.43994140625,-0.4453125,1.5853658536585367,7.01219512195122,1.2804878048780488,130,4
474,0.62939453125,-0.44580078125,-0.44580078125,1.3414634146341464,6.646341463414635,0.853658536585366,130,4
475,0.64501953125,-0.4384765625,-0.44873046875,2.804878048780488,6.097560975609756,0.48780487804878053,130,4
476,0.65478515625,-0.44482421875,-0.455078125,5.0,4.390243902439025,-0.6097560975609757,130,4
477,0.66455078125,-0.45361328125,-0.46533203125,7.8048780487804885,3.5975609756097566,-1.707317073170732,130,4
478,0.6708984375,-0.45361328125,-0.48583984375,9.451219512195122,3.353658536585366,-2.9268292682926833,130,4
479,0.68115234375,-0.455078125,-0.4912109375,10.0,3.048780487804878,-3.048780487804878,130,4
480,0.685546875,-0.4541015625,-0.4951171875,9.51219512195122,2.987804878048781,-3.2926829268292686,130,4
481,0.69775390625,-0.439453125,-0.4755859375,8.109756097560977,4.146341463414634,-2.987804878048781,130,4
482,0.693359375,-0.4404296875,-0.462890625,6.585365853658537,5.548780487804878,-2.1341463414634148,130,4
483,0.6806640625,-0.453125,-0.443359375,5.487804878048781,7.01219512195122,-2.1341463414634148,130,4
484,0.6845703125,-0.44677734375,-0.4404296875,4.51219512195122,7.195121951219513,-1.5853658536585367,130,4
485,0.66455078125,-0.4541015625,-0.45654296875,7.01219512195122,4.634146341463415,-1.0365853658536586,130,4
486,0.6396484375,-0.48291015625,-0.49267578125,9.878048780487806,3.2926829268292686,-1.2804878048780488,130,4
487,0.65869140625,-0.470703125,-0.47900390625,10.365853658536587,4.390243902439025,-1.707317073170732,130,4
488,0.64990234375,-0.4619140625,-0.47119140625,9.634146341463415,6.097560975609756,-1.829268292682927,130,4
489,0.64501953125,-0.45751953125,-0.4306640625,8.841463414634147,7.134146341463415,-1.1585365853658538,130,4
490,0.62548828125,-0.4794921875,-0.39892578125,8.78048780487805,7.560975609756098,0.30487804878048785,130,4
491,0.59326171875,-0.50732421875,-0.3994140625,9.695121951219512,6.829268292682928,1.402439024390244,130,4
492,0.607421875,-0.4736328125,-0.4248046875,11.52439024390244,6.2804878048780495,1.707317073170732,130,4
493,0.62353515625,-0.45556640625,-0.431640625,13.353658536585368,5.365853658536586,1.8902439024390245,130,4
494,0.63427734375,-0.42578125,-0.43115234375,13.353658536585368,7.073170731707318,1.1585365853658538,130,4
495,0.66357421875,-0.39453125,-0.44921875,11.646341463414634,10.30487804878049,0.9756097560975611,130,4
496,0.6708984375,-0.400390625,-0.45166015625,9.878048780487806,13.04878048780488,1.1585365853658538,130,4
497,0.671875,-0.4091796875,-0.439453125,7.682926829268293,16.03658536585366,1.2804878048780488,130,4
498,0.66845703125,-0.41259765625,-0.43359375,5.365853658536586,18.475609756097562,1.402439024390244,130,4
499,0.6884765625,-0.4130859375,-0.43115234375,2.7439024390243905,20.0609756097561,2.25609756097561,130,4
