,Ax,Ay,Az,Gx,Gy,Gz,distance,shot_type
0,0.6181640625,-0.603515625,-0.5,17.31707317073171,-0.3658536585365854,-9.451219512195122,130,3
1,0.6201171875,-0.59326171875,-0.54345703125,17.31707317073171,-1.1585365853658538,-9.390243902439025,130,3
2,0.59765625,-0.58447265625,-0.5625,12.74390243902439,0.9146341463414634,-7.073170731707318,130,3
3,0.56640625,-0.59912109375,-0.572265625,6.097560975609756,4.085365853658537,-3.048780487804878,130,3
4,0.5380859375,-0.74853515625,-0.54931640625,0.12195121951219513,6.951219512195123,0.6707317073170732,130,3
5,0.50048828125,-0.63916015625,-0.51953125,-4.634146341463415,8.597560975609756,3.7195121951219514,130,3
6,0.5029296875,-0.62060546875,-0.49560546875,-6.829268292682928,8.963414634146343,5.975609756097562,130,3
7,0.5224609375,-0.607421875,-0.482421875,-6.097560975609756,6.463414634146342,8.475609756097562,130,3
8,0.53564453125,-0.58447265625,-0.47705078125,-4.75609756097561,4.329268292682928,10.792682926829269,130,3
9,0.5244140625,-0.59765625,-0.4619140625,-4.75609756097561,2.5609756097560976,12.80487804878049,130,3
10,0.5390625,-0.58154296875,-0.4599609375,-2.378048780487805,0.12195121951219513,13.841463414634148,130,3
11,0.58056640625,-0.552734375,-0.4482421875,1.524390243902439,-2.5609756097560976,13.29268292682927,130,3
12,0.6474609375,-0.49853515625,-0.474609375,3.353658536585366,-4.329268292682928,12.317073170731708,130,3
13,0.65771484375,-0.4951171875,-0.46337890625,3.414634146341464,-4.878048780487806,10.975609756097562,130,3
14,0.646484375,-0.61865234375,-0.42041015625,3.4756097560975614,-4.146341463414634,8.902439024390244,130,3
15,0.68115234375,-0.4287109375,-0.361328125,2.1951219512195124,-3.231707317073171,6.2804878048780495,130,3
16,0.74267578125,-0.30517578125,-0.33984375,-1.0365853658536586,-0.48780487804878053,3.9024390243902443,130,3
17,0.78857421875,-0.24072265625,-0.31982421875,-5.670731707317073,2.682926829268293,2.9268292682926833,130,3
18,0.77001953125,-0.23193359375,-0.25244140625,-9.51219512195122,5.7926829268292686,1.9512195121951221,130,3
19,0.76708984375,-0.2470703125,-0.1943359375,-10.060975609756099,6.829268292682928,0.7317073170731708,130,3
20,0.7568359375,-0.2666015625,-0.1201171875,-5.487804878048781,4.573170731707317,-1.1585365853658538,130,3
21,0.732421875,-0.30078125,-0.1171875,3.353658536585366,15.426829268292684,-3.7195121951219514,130,3
22,0.7490234375,-0.306640625,-0.1884765625,9.085365853658537,-2.439024390243903,-5.975609756097562,130,3
23,0.7802734375,-0.2822265625,-0.279296875,11.76829268292683,-3.780487804878049,-6.402439024390245,130,3
24,0.83251953125,-0.3046875,-0.35595703125,9.26829268292683,-1.7682926829268295,-5.548780487804878,130,3
25,0.79150390625,-0.25048828125,-0.3662109375,3.8414634146341466,2.439024390243903,-5.0,130,3
26,0.75,-0.43212890625,-0.35009765625,1.2195121951219514,5.0,-5.975609756097562,130,3
27,0.744140625,-0.447265625,-0.330078125,0.426829268292683,7.500000000000001,-7.195121951219513,130,3
28,0.7294921875,-0.45849609375,-0.3251953125,0.9756097560975611,7.25609756097561,-7.560975609756098,130,3
29,0.6845703125,-0.4951171875,-0.32177734375,4.2682926829268295,5.426829268292684,-8.292682926829269,130,3
30,0.68310546875,-0.51123046875,-0.31689453125,6.341463414634147,3.780487804878049,-8.597560975609756,130,3
31,0.66064453125,-0.52783203125,-0.34521484375,8.658536585365855,1.829268292682927,-7.987804878048781,130,3
32,0.6328125,-0.564453125,-0.37109375,11.463414634146343,-1.707317073170732,-6.890243902439025,130,3
33,0.603515625,-0.58447265625,-0.3662109375,14.085365853658537,-5.2439024390243905,-6.158536585365854,130,3
34,0.599609375,-0.60546875,-0.35400390625,15.914634146341465,-7.682926829268293,-4.878048780487806,130,3
35,0.58447265625,-0.62158203125,-0.34326171875,17.5,-11.158536585365855,-2.987804878048781,130,3
36,0.54541015625,-0.6640625,-0.32080078125,23.170731707317074,-17.012195121951223,-1.2804878048780488,130,3
37,0.5244140625,-0.68994140625,-0.32763671875,30.426829268292686,-21.76829268292683,-0.5487804878048781,130,3
38,0.5224609375,-0.7109375,-0.34130859375,35.30487804878049,-25.48780487804878,-15.609756097560977,130,3
39,0.5302734375,-0.70263671875,-0.34765625,41.58536585365854,-28.84146341463415,1.7682926829268295,130,3
40,0.5673828125,-0.67724609375,-0.36279296875,46.28048780487805,-29.207317073170735,3.1097560975609757,130,3
41,0.61865234375,-0.5869140625,-0.3896484375,49.69512195121952,-28.59756097560976,3.231707317073171,130,3
42,0.6689453125,-0.54248046875,-0.41015625,49.39024390243903,-26.82926829268293,3.4756097560975614,130,3
43,0.66845703125,-0.5185546875,-0.42333984375,47.5609756097561,-25.000000000000004,4.329268292682928,130,3
44,0.68994140625,-0.4794921875,-0.45458984375,62.25609756097562,-21.463414634146343,4.573170731707317,130,3
45,0.70556640625,-0.44482421875,-0.486328125,44.81707317073171,-17.926829268292686,4.878048780487806,130,3
46,0.7041015625,-0.45068359375,-0.4833984375,42.5609756097561,-15.060975609756099,5.853658536585367,130,3
47,0.662109375,-0.4443359375,-0.45458984375,39.146341463414636,-11.158536585365855,5.609756097560976,130,3
48,0.67138671875,-0.41357421875,-0.4248046875,35.243902439024396,-8.475609756097562,5.182926829268293,130,3
49,0.6552734375,-0.423828125,-0.37744140625,31.951219512195124,-4.2682926829268295,6.2804878048780495,130,3
50,0.61181640625,-0.47265625,-0.29931640625,31.34146341463415,-2.1341463414634148,7.378048780487806,130,3
51,0.57666015625,-0.5302734375,-0.28662109375,33.90243902439025,-2.7439024390243905,7.926829268292684,130,3
52,0.5703125,-0.51806640625,-0.31689453125,40.426829268292686,-7.621951219512196,8.475609756097562,130,3
53,0.60546875,-0.46337890625,-0.39111328125,47.743902439024396,-10.975609756097562,6.7682926829268295,130,3
54,0.6962890625,-0.3662109375,-0.4365234375,50.1829268292683,-8.536585365853659,6.402439024390245,130,3
55,0.697265625,-0.25048828125,-0.4609375,44.08536585365854,-4.390243902439025,6.646341463414635,130,3
56,0.67529296875,-0.380859375,-0.47802734375,34.69512195121951,-0.426829268292683,7.682926829268293,130,3
57,0.66259765625,-0.3994140625,-0.484375,27.31707317073171,0.6707317073170732,7.987804878048781,130,3
58,0.65576171875,-0.41943359375,-0.46630859375,22.865853658536587,1.0365853658536586,7.439024390243903,130,3
59,0.6533203125,-0.44775390625,-0.45654296875,20.48780487804878,0.6707317073170732,6.402439024390245,130,3
60,0.673828125,-0.4345703125,-0.451171875,18.29268292682927,15.426829268292684,4.390243902439025,130,3
61,0.693359375,-0.44970703125,-0.44482421875,15.121951219512196,-0.7926829268292683,2.25609756097561,130,3
62,0.65478515625,-0.46142578125,-0.44287109375,8.658536585365855,2.378048780487805,0.6707317073170732,130,3
63,0.6728515625,-0.45947265625,-0.416015625,1.1585365853658538,6.52439024390244,-0.9756097560975611,130,3
64,0.69873046875,-0.4453125,-0.3896484375,-6.707317073170732,9.573170731707318,-1.829268292682927,130,3
65,0.69287109375,-0.44873046875,-0.41748046875,-15.487804878048783,13.231707317073171,-1.8902439024390245,130,3
66,0.69189453125,-0.47216796875,-0.45751953125,-23.84146341463415,15.79268292682927,-2.073170731707317,130,3
67,0.65087890625,-0.5166015625,-0.38134765625,-26.646341463414636,14.26829268292683,-1.5853658536585367,130,3
68,0.6259765625,-0.55517578125,-0.47705078125,-24.75609756097561,13.902439024390246,-0.7926829268292683,130,3
69,0.65380859375,-0.55615234375,-0.48291015625,-23.78048780487805,13.475609756097562,-0.6097560975609757,130,3
70,0.65771484375,-0.54443359375,-0.521484375,-25.914634146341466,13.902439024390246,-0.30487804878048785,130,3
71,0.65625,-0.52294921875,-0.53955078125,-27.682926829268297,14.573170731707318,-0.5487804878048781,130,3
72,0.66357421875,-0.529296875,-0.529296875,-29.81707317073171,15.79268292682927,0.6097560975609757,130,3
73,0.6376953125,-0.5546875,-0.4931640625,-30.30487804878049,15.487804878048783,1.3414634146341464,130,3
74,0.65087890625,-0.5498046875,-0.48583984375,-28.84146341463415,16.03658536585366,1.1585365853658538,130,3
75,0.64697265625,-0.57763671875,-0.44384765625,-26.03658536585366,14.817073170731708,2.5,130,3
76,0.6123046875,-0.60498046875,-0.42431640625,-21.03658536585366,11.890243902439025,3.414634146341464,130,3
77,0.60986328125,-0.5712890625,-0.404296875,-15.670731707317074,12.621951219512196,2.3170731707317076,130,3
78,0.65087890625,-0.53369140625,-0.48876953125,-13.170731707317074,13.109756097560977,2.804878048780488,130,3
79,0.65234375,-0.517578125,-0.31201171875,-11.585365853658537,12.560975609756099,3.658536585365854,130,3
80,0.62744140625,-0.5029296875,-0.2822265625,-9.329268292682928,11.52439024390244,3.536585365853659,130,3
81,0.63525390625,-0.49072265625,-0.2734375,-10.365853658536587,13.963414634146343,4.2682926829268295,130,3
82,0.646484375,-0.458984375,-0.27880859375,-10.670731707317074,16.463414634146343,4.634146341463415,130,3
83,0.66162109375,-0.4521484375,-0.3720703125,-8.658536585365855,17.012195121951223,5.609756097560976,130,3
84,0.640625,-0.482421875,-0.23876953125,-6.097560975609756,31.158536585365855,5.731707317073171,130,3
85,0.63720703125,-0.51611328125,-0.26025390625,-3.353658536585366,14.02439024390244,5.7926829268292686,130,3
86,0.6455078125,-0.5234375,-0.33251953125,-1.0365853658536586,14.573170731707318,5.060975609756098,130,3
87,0.67626953125,-0.498046875,-0.341796875,-2.5,20.426829268292686,4.451219512195122,130,3
88,0.71044921875,-0.462890625,-0.27978515625,-6.951219512195123,26.158536585365855,3.414634146341464,130,3
89,0.732421875,-0.45166015625,-0.23876953125,-11.585365853658537,30.792682926829272,2.5,130,3
90,0.7265625,-0.45849609375,-0.234375,-17.31707317073171,34.08536585365854,1.707317073170732,130,3
91,0.7158203125,-0.4443359375,-0.2373046875,-17.439024390243905,33.41463414634146,2.25609756097561,130,3
92,0.66259765625,-0.517578125,-0.26025390625,-13.719512195121952,32.25609756097561,3.536585365853659,130,3
93,0.662109375,-0.53076171875,-0.3486328125,-10.121951219512196,33.170731707317074,2.5609756097560976,130,3
94,0.73193359375,-0.49267578125,-0.3603515625,-11.951219512195124,37.86585365853659,2.5,130,3
95,0.73974609375,-0.46826171875,-0.3232421875,-13.536585365853659,38.65853658536586,2.073170731707317,130,3
96,0.7353515625,-0.38330078125,-0.29931640625,-13.170731707317074,40.487804878048784,2.0121951219512195,130,3
97,0.72314453125,-0.51708984375,-0.2802734375,-16.03658536585366,43.04878048780488,2.6219512195121952,130,3
98,0.6787109375,-0.5546875,-0.28662109375,-16.34146341463415,41.890243902439025,4.2682926829268295,130,3
99,0.7451171875,-0.595703125,-0.28271484375,-14.390243902439027,40.85365853658537,4.878048780487806,130,3
100,0.6357421875,-0.58251953125,-0.2744140625,-11.951219512195124,40.73170731707317,4.51219512195122,130,3
101,0.66796875,-0.56005859375,-0.26318359375,-11.341463414634147,40.243902439024396,4.817073170731708,130,3
102,0.6650390625,-0.55224609375,-0.279296875,-11.341463414634147,40.54878048780488,5.914634146341464,130,3
103,0.63134765625,-0.5703125,-0.2578125,-5.914634146341464,34.93902439024391,7.01219512195122,130,3
104,0.59716796875,-0.59814453125,-0.2724609375,-0.426829268292683,32.5,7.560975609756098,130,3
105,0.5068359375,-0.58056640625,-0.2724609375,-1.1585365853658538,34.81707317073171,8.719512195121952,130,3
106,0.6552734375,-0.5419921875,-0.24658203125,-4.2682926829268295,37.19512195121951,9.695121951219512,130,3
107,0.65673828125,-0.5185546875,-0.23046875,-6.585365853658537,40.426829268292686,10.548780487804878,130,3
108,0.66748046875,-0.51513671875,-0.21826171875,-7.439024390243903,42.43902439024391,11.28048780487805,130,3
109,0.65380859375,-0.54248046875,-0.19873046875,-7.01219512195122,42.50000000000001,12.134146341463415,130,3
110,0.6474609375,-0.5478515625,-0.24462890625,-6.402439024390245,43.23170731707317,12.134146341463415,130,3
111,0.67333984375,-0.521484375,-0.2685546875,-7.073170731707318,44.63414634146342,12.01219512195122,130,3
112,0.693359375,-0.6201171875,-0.306640625,-9.451219512195122,47.25609756097561,11.52439024390244,130,3
113,0.71435546875,-0.47607421875,-0.33349609375,-15.365853658536587,53.35365853658537,11.463414634146343,130,3
114,0.734375,-0.45166015625,-0.3271484375,-23.170731707317074,60.243902439024396,12.134146341463415,130,3
115,0.71630859375,-0.45166015625,-0.32080078125,-33.35365853658537,65.54878048780489,12.987804878048781,130,3
116,0.70263671875,-0.43017578125,-0.3505859375,-40.243902439024396,70.73170731707317,13.597560975609758,130,3
117,0.7119140625,-0.4326171875,-0.3017578125,-43.35365853658537,73.59756097560977,15.000000000000002,130,3
118,0.69873046875,-0.470703125,-0.25341796875,-41.524390243902445,72.37804878048782,16.158536585365855,130,3
119,0.65625,-0.52001953125,-0.2001953125,-35.73170731707317,66.95121951219512,18.353658536585368,130,3
120,0.60791015625,-0.505859375,-0.17626953125,-31.03658536585366,63.04878048780488,20.670731707317074,130,3
121,0.60205078125,-0.6240234375,-0.23388671875,-32.01219512195122,56.524390243902445,22.500000000000004,130,3
122,0.6767578125,-0.37890625,-0.32421875,-36.524390243902445,57.50000000000001,23.53658536585366,130,3
123,0.71875,-0.3447265625,-0.35400390625,-45.0609756097561,59.57317073170732,22.500000000000004,130,3
124,0.77880859375,-0.2900390625,-0.43212890625,-57.804878048780495,68.78048780487805,18.902439024390244,130,3
125,0.85107421875,-0.22119140625,-0.404296875,-71.58536585365854,62.560975609756106,16.951219512195124,130,3
126,0.80615234375,-0.2802734375,-0.34814453125,-77.5609756097561,79.75609756097562,15.609756097560977,130,3
127,0.69921875,-0.361328125,-0.30029296875,-76.70731707317074,76.95121951219512,14.695121951219514,130,3
128,0.642578125,-0.43115234375,-0.2880859375,-70.3658536585366,70.1829268292683,13.536585365853659,130,3
129,0.60009765625,-0.4150390625,-0.29052734375,-78.04878048780489,58.71951219512196,11.76829268292683,130,3
130,0.59814453125,-0.361328125,-0.31591796875,-56.524390243902445,52.31707317073171,8.902439024390244,130,3
131,0.646484375,-0.26904296875,-0.37353515625,-57.07317073170732,47.926829268292686,6.036585365853659,130,3
132,0.66015625,-0.208984375,-0.390625,-58.41463414634147,46.21951219512196,2.8658536585365857,130,3
133,0.67431640625,-0.193359375,-0.41015625,-61.89024390243903,47.43902439024391,0.7317073170731708,130,3
134,0.6689453125,-0.17626953125,-0.400390625,-65.42682926829269,43.170731707317074,-0.7317073170731708,130,3
135,0.6689453125,-0.1845703125,-0.44970703125,-66.76829268292684,38.90243902439025,-4.2682926829268295,130,3
136,0.693359375,-0.1298828125,-0.46484375,-66.82926829268293,34.207317073170735,-7.439024390243903,130,3
137,0.7255859375,-0.1298828125,-0.490234375,-69.02439024390245,32.31707317073171,-11.036585365853659,130,3
138,0.7509765625,-0.10107421875,-0.4765625,-76.15853658536587,34.024390243902445,-13.29268292682927,130,3
139,0.77587890625,-0.11767578125,-0.4697265625,-82.43902439024392,36.40243902439025,-14.878048780487806,130,3
140,0.77734375,-0.12109375,-0.48291015625,-89.26829268292684,39.57317073170732,-17.5,130,3
141,0.79931640625,-0.10986328125,-0.4755859375,-96.15853658536587,42.19512195121951,-20.121951219512198,130,3
142,0.7900390625,-0.150390625,-0.443359375,-101.15853658536587,45.91463414634147,-21.463414634146343,130,3
143,0.75732421875,-0.20947265625,-0.43798828125,-106.34146341463416,46.09756097560976,-23.84146341463415,130,3
144,0.767578125,-0.16015625,-0.45947265625,-108.65853658536587,44.69512195121952,-28.170731707317074,130,3
145,0.8134765625,-0.10693359375,-0.4052734375,-111.89024390243904,44.63414634146342,-29.207317073170735,130,3
146,0.8134765625,-0.1220703125,-0.4306640625,-116.70731707317074,43.35365853658537,-31.158536585365855,130,3
147,0.8095703125,-0.2421875,-0.44287109375,-121.89024390243904,46.03658536585366,-34.75609756097561,130,3
148,0.85107421875,-0.0517578125,-0.46435546875,-129.81707317073173,49.207317073170735,-38.963414634146346,130,3
149,0.87451171875,-0.04638671875,-0.46484375,-140.4268292682927,53.78048780487806,-42.37804878048781,130,3
150,0.88134765625,-0.08056640625,-0.48291015625,-151.34146341463415,59.024390243902445,-31.707317073170735,130,3
151,0.8642578125,-0.0986328125,-0.41943359375,-158.2926829268293,61.768292682926834,-52.25609756097561,130,3
152,0.85546875,-0.14990234375,-0.349609375,-160.3658536585366,63.90243902439025,-56.21951219512196,130,3
153,0.82958984375,-0.1982421875,-0.306640625,-160.2439024390244,65.0609756097561,-59.32926829268293,130,3
154,0.828125,-0.16748046875,-0.26318359375,-159.39024390243904,64.26829268292684,-62.37804878048781,130,3
155,0.85546875,-0.13427734375,-0.29052734375,-158.65853658536588,62.50000000000001,-65.85365853658537,130,3
156,0.85595703125,-0.0859375,-0.326171875,-159.51219512195124,62.865853658536594,-71.34146341463415,130,3
157,0.904296875,0.02392578125,-0.3701171875,-167.31707317073173,66.58536585365854,-79.69512195121952,130,3
158,0.9951171875,0.10791015625,-0.390625,-176.95121951219514,70.42682926829269,-87.50000000000001,130,3
159,1.05615234375,0.09228515625,-0.42822265625,-186.40243902439025,73.47560975609757,-95.85365853658537,130,3
160,1.0595703125,0.05419921875,-0.447265625,-195.97560975609758,76.34146341463415,-101.82926829268294,130,3
161,1.0859375,0.05615234375,-0.42138671875,-200.00000000000003,81.70731707317074,-106.70731707317074,130,3
162,1.14013671875,0.11328125,-0.3994140625,-200.97560975609758,85.48780487804879,-111.95121951219514,130,3
163,1.1845703125,0.13916015625,-0.39990234375,-187.50000000000003,89.45121951219512,-118.10975609756099,130,3
164,1.1904296875,0.169921875,-0.40478515625,-206.28048780487808,92.6829268292683,-124.81707317073172,130,3
165,1.2294921875,0.22900390625,-0.37939453125,-209.26829268292684,95.67073170731709,-131.58536585365854,130,3
166,1.2666015625,0.25390625,-0.3876953125,-210.7926829268293,95.2439024390244,-137.5,130,3
167,1.2958984375,0.2001953125,-0.3974609375,-209.57317073170734,79.14634146341464,-142.01219512195124,130,3
168,1.32080078125,0.19091796875,-0.38525390625,-204.39024390243904,78.84146341463415,-146.70731707317074,130,3
169,1.3544921875,0.22021484375,-0.41015625,-200.85365853658539,91.76829268292684,-149.02439024390245,130,3
170,1.36328125,0.232421875,-0.39794921875,-199.02439024390245,95.1219512195122,-154.08536585365854,130,3
171,1.39208984375,0.2861328125,-0.33251953125,-195.4268292682927,96.76829268292684,-159.63414634146343,130,3
172,1.42236328125,0.2998046875,-0.2705078125,-193.35365853658539,97.92682926829269,-164.93902439024393,130,3
173,1.43603515625,0.32958984375,-0.28466796875,-192.07317073170734,99.51219512195122,-170.00000000000003,130,3
174,1.4208984375,0.3193359375,-0.22802734375,-189.26829268292684,101.34146341463415,-175.3658536585366,130,3
175,1.48486328125,0.33740234375,-0.169921875,-185.00000000000003,101.15853658536587,-180.4878048780488,130,3
176,1.5302734375,0.36328125,-0.126953125,-179.26829268292684,100.3658536585366,-186.03658536585368,130,3
177,1.56689453125,0.37890625,-0.24560546875,-174.08536585365854,101.15853658536587,-192.9268292682927,130,3
178,1.63818359375,0.43505859375,-0.09228515625,-169.57317073170734,99.81707317073172,-199.45121951219514,130,3
179,1.7041015625,0.45458984375,-0.08447265625,-164.57317073170734,100.54878048780489,-206.03658536585368,130,3
180,1.74462890625,0.43505859375,-0.08056640625,-157.9878048780488,102.19512195121952,-213.2926829268293,130,3
181,1.7626953125,0.443359375,-0.08349609375,-152.01219512195124,101.70731707317074,-219.45121951219514,130,3
182,1.775390625,0.44921875,-0.07373046875,-146.52439024390245,102.98780487804879,-225.4878048780488,130,3
183,1.7705078125,0.4248046875,-0.1318359375,-141.64634146341464,104.75609756097562,-229.81707317073173,130,3
184,1.74755859375,0.4130859375,-0.0615234375,-138.2317073170732,104.57317073170732,-218.78048780487808,130,3
185,1.76025390625,0.43505859375,-0.0458984375,-131.82926829268294,105.48780487804879,-238.53658536585368,130,3
186,1.77978515625,0.4326171875,-0.05859375,-130.1829268292683,107.37804878048782,-242.07317073170734,130,3
187,1.76416015625,0.408203125,-0.08154296875,-128.53658536585368,109.32926829268294,-244.87804878048783,130,3
188,1.73974609375,0.39013671875,-0.06494140625,-140.2439024390244,111.03658536585367,-247.9268292682927,130,3
189,1.76220703125,0.4208984375,-0.03515625,-122.37804878048782,113.10975609756099,-251.46341463414637,130,3
190,1.755859375,0.41259765625,0.01611328125,-118.23170731707319,110.97560975609757,-255.06097560975613,130,3
191,1.86865234375,0.40673828125,0.05517578125,-113.10975609756099,109.87804878048782,-257.13414634146346,130,3
192,1.7392578125,0.3759765625,0.04833984375,-107.37804878048782,108.84146341463416,-258.2926829268293,130,3
193,1.7021484375,0.369140625,0.056640625,-101.40243902439025,108.71951219512196,-258.3536585365854,130,3
194,1.65380859375,0.37109375,0.046875,-96.64634146341464,108.71951219512196,-257.9878048780488,130,3
195,1.62255859375,0.380859375,0.029296875,-92.6829268292683,109.02439024390245,-259.39024390243907,130,3
196,1.59912109375,0.41845703125,0.0419921875,-90.60975609756099,110.73170731707319,-261.89024390243907,130,3
197,1.56298828125,0.43212890625,0.07666015625,-91.21951219512196,112.98780487804879,-265.0,130,3
198,1.51025390625,0.3720703125,0.1044921875,-88.23170731707317,112.6829268292683,-266.1585365853659,130,3
199,1.47607421875,0.3193359375,0.08251953125,-79.57317073170732,108.84146341463416,-268.9024390243903,130,3
200,1.46484375,0.3271484375,0.0673828125,-71.09756097560977,105.42682926829269,-272.01219512195127,130,3
201,1.42333984375,0.27099609375,0.04052734375,-66.34146341463415,103.04878048780489,-271.70731707317077,130,3
202,1.35498046875,0.2080078125,0.056640625,-62.865853658536594,101.40243902439025,-270.5487804878049,130,3
203,1.24560546875,0.2451171875,0.06298828125,-58.65853658536586,98.78048780487806,-268.7804878048781,130,3
204,1.12890625,0.0576171875,0.03857421875,-53.84146341463415,95.54878048780489,-266.4634146341464,130,3
205,1.03466796875,0.01318359375,0.0078125,-50.54878048780488,92.6219512195122,-264.63414634146346,130,3
206,0.94677734375,0.02294921875,0.046875,-47.25609756097561,91.70731707317074,-263.9634146341464,130,3
207,0.94677734375,0.06298828125,0.1328125,-45.97560975609756,91.28048780487806,-260.7926829268293,130,3
208,0.8935546875,-0.0146484375,0.1513671875,-46.40243902439025,91.46341463414635,-257.3780487804878,130,3
209,0.7958984375,-0.154296875,0.1298828125,-43.41463414634147,86.82926829268294,-255.5487804878049,130,3
210,0.7138671875,-0.2470703125,0.13037109375,-34.08536585365854,81.64634146341464,-254.87804878048783,130,3
211,0.62548828125,-0.31298828125,0.1259765625,-25.0609756097561,76.89024390243902,-253.1707317073171,130,3
212,0.58154296875,-0.34326171875,0.126953125,-31.158536585365855,73.17073170731707,-247.9268292682927,130,3
213,0.51416015625,-0.39501953125,0.1298828125,-6.890243902439025,67.19512195121952,-240.91463414634148,130,3
214,0.4326171875,-0.447265625,0.1875,1.0365853658536586,62.6829268292683,-234.39024390243904,130,3
215,0.34912109375,-0.46337890625,0.20947265625,7.01219512195122,56.28048780487806,-225.91463414634148,130,3
216,0.21484375,-0.47998046875,0.20166015625,5.853658536585367,53.04878048780488,-216.34146341463418,130,3
217,0.06787109375,-0.52392578125,0.24169921875,0.06097560975609757,54.51219512195122,-206.28048780487808,130,3
218,-0.02783203125,-0.55078125,0.2041015625,-7.439024390243903,55.487804878048784,-194.14634146341464,130,3
219,-0.12548828125,-0.64697265625,0.07861328125,-15.54878048780488,57.01219512195122,-181.09756097560978,130,3
220,-0.21875,-0.7236328125,0.0859375,-19.939024390243905,59.146341463414636,-167.6829268292683,130,3
221,-0.30322265625,-0.83935546875,0.18603515625,-20.0,57.743902439024396,-150.3658536585366,130,3
222,-0.43115234375,-0.9990234375,0.13916015625,-17.134146341463417,53.90243902439025,-131.76829268292684,130,3
223,-0.5947265625,-1.1298828125,0.1201171875,-15.54878048780488,51.28048780487806,-111.58536585365854,130,3
224,-0.7236328125,-1.21533203125,0.189453125,-14.695121951219514,48.78048780487805,-91.03658536585367,130,3
225,-0.76171875,-1.3017578125,0.3115234375,-15.609756097560977,47.07317073170732,-69.14634146341464,130,3
226,-0.7939453125,-1.42724609375,0.341796875,-14.146341463414636,33.59756097560976,-41.463414634146346,130,3
227,-0.80126953125,-1.51904296875,0.361328125,-9.207317073170733,44.63414634146342,-26.03658536585366,130,3
228,-0.8115234375,-1.56591796875,0.35009765625,-4.024390243902439,43.78048780487805,-7.073170731707318,130,3
229,-0.7333984375,-1.59814453125,0.38134765625,3.7195121951219514,39.268292682926834,12.500000000000002,130,3
230,-0.69775390625,-1.6630859375,0.275390625,12.256097560975611,35.0,34.32926829268293,130,3
231,-0.69775390625,-1.72021484375,0.185546875,20.30487804878049,30.000000000000004,57.13414634146342,130,3
232,-0.67431640625,-1.7861328125,0.0849609375,30.914634146341466,23.719512195121954,80.85365853658537,130,3
233,-0.6318359375,-1.81298828125,0.06396484375,43.23170731707317,19.81707317073171,102.98780487804879,130,3
234,-0.5576171875,-1.828125,0.07666015625,52.37804878048781,15.609756097560977,110.60975609756099,130,3
235,-0.52783203125,-1.876953125,0.05419921875,59.93902439024391,10.30487804878049,149.45121951219514,130,3
236,-0.47412109375,-1.9267578125,0.0048828125,59.75609756097562,10.365853658536587,176.76829268292684,130,3
237,-0.37890625,-2.0361328125,-0.0830078125,54.57317073170732,7.195121951219513,208.90243902439028,130,3
238,-0.3154296875,-2.22412109375,-0.19384765625,53.04878048780488,1.0365853658536586,240.4878048780488,130,3
239,-0.2177734375,-2.40966796875,-0.23828125,56.89024390243903,-6.158536585365854,271.5853658536586,130,3
240,-0.025390625,-2.55517578125,-0.31103515625,63.10975609756098,-14.146341463414636,303.3536585365854,130,3
241,0.22314453125,-2.71533203125,-0.3916015625,67.92682926829269,-19.32926829268293,334.0853658536586,130,3
242,0.49951171875,-2.875,-0.484375,72.5609756097561,-22.012195121951223,364.39024390243907,130,3
243,0.751953125,-3.05078125,-0.345703125,72.5,-25.48780487804878,396.89024390243907,130,3
244,1.20458984375,-3.33203125,-0.39111328125,77.8048780487805,-39.32926829268293,435.06097560975616,130,3
245,1.53662109375,-3.50439453125,-0.70654296875,98.47560975609757,-54.69512195121952,472.56097560975616,130,3
246,2.06591796875,-3.8896484375,-0.94091796875,133.65853658536585,-76.58536585365854,510.60975609756105,130,3
247,2.9091796875,-4.02001953125,-1.12353515625,179.51219512195124,-87.7439024390244,543.1707317073171,130,3
248,3.81396484375,-4.20751953125,-1.4970703125,226.46341463414637,-103.35365853658537,572.6219512195122,130,3
249,4.91943359375,-4.34130859375,-1.80908203125,265.9756097560976,-118.59756097560977,606.2804878048781,130,3
250,5.8759765625,-4.52783203125,-2.0439453125,314.87804878048786,-106.64634146341464,627.3170731707318,130,3
251,6.677734375,-4.458984375,-2.1162109375,364.45121951219517,-74.63414634146342,682.1951219512196,130,3
252,7.21533203125,-4.34765625,-2.28564453125,383.8414634146342,-52.07317073170732,733.3536585365854,130,3
253,7.9599609375,-3.89794921875,-2.79833984375,418.6585365853659,-52.743902439024396,795.548780487805,130,3
254,9.0029296875,-3.4541015625,-3.60791015625,430.8536585365854,-50.1829268292683,849.1463414634147,130,3
255,10.0546875,-2.83544921875,-4.28076171875,457.01219512195127,-31.76829268292683,887.5609756097562,130,3
256,10.86767578125,-1.51806640625,-4.7392578125,506.5243902439025,-64.39024390243902,923.1097560975611,130,3
257,11.7470703125,-0.21923828125,-5.4873046875,539.2073170731708,-65.48780487804879,935.3658536585367,130,3
258,11.5263671875,1.02783203125,-5.88525390625,615.7926829268293,-102.92682926829269,926.0365853658537,130,3
259,10.75537109375,1.560546875,-5.4609375,707.3780487804879,-156.95121951219514,897.3780487804879,130,3
260,10.04736328125,1.49609375,-4.6318359375,882.3170731707318,-291.0365853658537,884.6951219512196,130,3
261,8.6484375,0.0859375,-4.73876953125,1068.8414634146343,-426.89024390243907,844.0853658536586,130,3
262,6.97119140625,-2.18310546875,-4.55859375,1215.4878048780488,-500.06097560975616,758.3536585365854,130,3
263,5.55224609375,-3.53271484375,-4.3603515625,1353.048780487805,-602.8658536585366,565.3048780487806,130,3
264,-0.17041015625,-0.14697265625,2.82568359375,1984.7560975609758,-98.78048780487806,411.70731707317077,130,3
265,12.24462890625,-12.53515625,-6.60400390625,607.2560975609757,-11.219512195121952,58.963414634146346,130,3
266,12.95703125,6.990234375,-10.916015625,1130.609756097561,-637.8048780487806,217.43902439024393,130,3
267,7.35595703125,4.79052734375,-3.52734375,1060.7926829268295,-365.00000000000006,-172.9268292682927,130,3
268,5.02490234375,-1.27978515625,-3.658203125,1061.8902439024391,-281.4024390243903,-361.89024390243907,130,3
269,5.69677734375,2.1962890625,-3.28759765625,917.9878048780489,-132.6219512195122,-439.45121951219517,130,3
270,6.08740234375,2.3193359375,1.05029296875,990.6097560975611,-108.59756097560977,-392.13414634146346,130,3
271,3.02490234375,-1.19140625,0.046875,850.9756097560976,-91.40243902439025,-518.9024390243903,130,3
272,4.4755859375,-1.86376953125,-0.27978515625,695.609756097561,-46.463414634146346,-577.2560975609756,130,3
273,3.31640625,-2.22802734375,-0.83837890625,597.1341463414635,13.78048780487805,-645.1829268292684,130,3
274,4.6796875,-1.12109375,-1.37548828125,489.1463414634147,44.207317073170735,-708.109756097561,130,3
275,4.5107421875,-1.60400390625,-2.02490234375,379.51219512195127,81.52439024390245,-732.0731707317074,130,3
276,4.08740234375,-2.09375,-2.06494140625,291.0365853658537,150.7317073170732,-757.0731707317074,130,3
277,3.23779296875,-2.6865234375,-2.17041015625,195.4268292682927,192.25609756097563,-780.4878048780488,130,3
278,2.5849609375,-2.69140625,-2.21435546875,155.7317073170732,239.45121951219514,-765.0000000000001,130,3
279,2.2001953125,-2.4111328125,-2.03173828125,87.13414634146342,298.0487804878049,-753.109756097561,130,3
280,2.13818359375,-2.1767578125,-1.6630859375,48.71951219512196,374.26829268292687,-708.7804878048781,130,3
281,1.96435546875,-2.13623046875,-1.30078125,47.6829268292683,418.4146341463415,-673.109756097561,130,3
282,1.91015625,-2.01611328125,-1.44775390625,46.58536585365854,443.5975609756098,-640.609756097561,130,3
283,2.23876953125,-1.7412109375,-1.7158203125,-5.975609756097562,448.109756097561,-596.9512195121952,130,3
284,2.1767578125,-1.81494140625,-1.875,-43.10975609756098,448.9024390243903,-577.2560975609756,130,3
285,2.1845703125,-1.6865234375,-1.59033203125,-77.31707317073172,452.31707317073176,-533.2926829268293,130,3
286,2.04833984375,-1.669921875,-1.5859375,-101.28048780487806,458.8414634146342,-508.9024390243903,130,3
287,1.80859375,-1.80712890625,-1.72705078125,-115.1829268292683,457.92682926829275,-488.1707317073171,130,3
288,1.85400390625,-1.826171875,-1.849609375,-129.69512195121953,452.43902439024396,-466.0365853658537,130,3
289,1.65673828125,-1.64794921875,-1.91748046875,-133.47560975609758,418.7804878048781,-449.1463414634147,130,3
290,1.595703125,-1.35302734375,-1.86181640625,-129.32926829268294,421.2804878048781,-426.4634146341464,130,3
291,1.23828125,-1.40380859375,-1.74853515625,-138.65853658536585,381.4634146341464,-401.82926829268297,130,3
292,0.92626953125,-1.3681640625,-1.78857421875,-138.71951219512195,363.2317073170732,-385.06097560975616,130,3
293,0.8974609375,-0.9990234375,-1.7294921875,-146.21951219512195,349.87804878048786,-365.6707317073171,130,3
294,0.68310546875,-0.841796875,-1.54833984375,-159.14634146341464,344.26829268292687,-346.219512195122,130,3
295,0.50537109375,-0.8271484375,-1.322265625,-169.81707317073173,336.82926829268297,-330.2439024390244,130,3
296,0.39453125,-0.8720703125,-1.24267578125,-178.53658536585368,326.4634146341464,-316.0365853658537,130,3
297,0.2783203125,-0.666015625,-1.203125,-173.53658536585368,315.3658536585366,-301.0975609756098,130,3
298,0.23779296875,-0.5810546875,-1.1298828125,-166.64634146341464,310.0,-295.0,130,3
299,0.236328125,-0.6083984375,-1.37548828125,-232.37804878048783,298.109756097561,-257.01219512195127,130,3
300,0.0068359375,-0.45361328125,-1.3779296875,-247.9268292682927,295.9146341463415,-248.84146341463418,130,3
301,-0.2451171875,-0.45751953125,-1.39306640625,-248.1707317073171,256.95121951219517,-216.21951219512198,130,3
302,-0.46435546875,-0.4345703125,-1.1630859375,-242.19512195121953,239.08536585365854,-202.9878048780488,130,3
303,-0.56787109375,-0.443359375,-0.98779296875,-235.97560975609758,224.20731707317074,-192.19512195121953,130,3
304,-0.58203125,-0.42578125,-0.9287109375,-239.32926829268294,215.3048780487805,-181.89024390243904,130,3
305,-0.5810546875,-0.375,-0.7158203125,-238.78048780487808,214.69512195121953,-165.7317073170732,130,3
306,-0.74072265625,-0.53564453125,-0.7841796875,-235.91463414634148,199.69512195121953,-154.81707317073173,130,3
307,-0.837890625,-0.5107421875,-0.84228515625,-215.00000000000003,202.13414634146343,-143.71951219512195,130,3
308,-0.97412109375,-0.529296875,-0.72802734375,-194.75609756097563,174.32926829268294,-133.59756097560978,130,3
309,-1.087890625,-0.4638671875,-0.64892578125,-183.71951219512198,168.90243902439025,-121.03658536585367,130,3
310,-1.08154296875,-0.333984375,-0.59912109375,-178.96341463414635,164.26829268292684,-114.69512195121952,130,3
311,-1.052734375,-0.2890625,-0.599609375,-176.09756097560978,161.03658536585368,-104.45121951219514,130,3
312,-0.9921875,-0.240234375,-0.6103515625,-174.08536585365854,150.4878048780488,-94.20731707317074,130,3
313,-0.93798828125,-0.2197265625,-0.75,-168.59756097560978,139.57317073170734,-86.34146341463415,130,3
314,-0.89990234375,-0.2470703125,-0.7685546875,-162.37804878048783,126.09756097560977,-82.98780487804879,130,3
315,-0.89111328125,-0.224609375,-0.82421875,-157.43902439024393,114.02439024390245,-80.3658536585366,130,3
316,-0.86279296875,-0.18359375,-0.78125,-145.91463414634148,106.03658536585367,-72.7439024390244,130,3
317,-1.02734375,-0.20556640625,-0.8447265625,-138.59756097560978,94.45121951219512,-65.54878048780489,130,3
318,-1.21923828125,-0.23388671875,-0.93359375,-130.7317073170732,87.98780487804879,-60.91463414634147,130,3
319,-1.2802734375,-0.240234375,-0.9091796875,-122.8048780487805,93.41463414634147,-53.71951219512196,130,3
320,-1.314453125,-0.26416015625,-0.98583984375,-116.15853658536587,66.82926829268293,-45.670731707317074,130,3
321,-1.35400390625,-0.27978515625,-0.85400390625,-110.60975609756099,55.67073170731708,-40.0609756097561,130,3
322,-1.39697265625,-0.263671875,-0.82763671875,-109.20731707317074,42.743902439024396,-35.426829268292686,130,3
323,-1.4140625,-0.2763671875,-0.99951171875,-105.42682926829269,27.621951219512198,-30.182926829268297,130,3
324,-1.353515625,-0.255859375,-0.89892578125,-97.13414634146342,13.29268292682927,-23.414634146341466,130,3
325,-1.357421875,-0.24072265625,-0.86865234375,-87.01219512195122,0.24390243902439027,-14.878048780487806,130,3
326,-1.3603515625,-0.24951171875,-0.85107421875,-76.58536585365854,-8.719512195121952,-7.621951219512196,130,3
327,-1.3818359375,-0.24267578125,-0.75537109375,-65.2439024390244,-18.04878048780488,-0.9146341463414634,130,3
328,-1.37158203125,-0.23291015625,-0.9150390625,-51.89024390243903,-25.914634146341466,5.060975609756098,130,3
329,-1.33349609375,-0.21337890625,-0.8974609375,-41.21951219512196,-34.75609756097561,11.890243902439025,130,3
330,-1.3173828125,-0.19921875,-0.81396484375,-32.31707317073171,-42.31707317073171,18.597560975609756,130,3
331,-1.30712890625,-0.19677734375,-0.7822265625,-26.76829268292683,-48.04878048780488,24.634146341463417,130,3
332,-1.32275390625,-0.1376953125,-0.8115234375,-22.5609756097561,-56.40243902439025,28.170731707317074,130,3
333,-1.2958984375,-0.10595703125,-0.8154296875,-19.512195121951223,-63.963414634146346,31.646341463414636,130,3
334,-1.248046875,-0.0498046875,-0.77099609375,-15.121951219512196,-73.17073170731707,35.54878048780488,130,3
335,-1.2080078125,-0.00927734375,-0.71240234375,-7.01219512195122,-81.64634146341464,39.207317073170735,130,3
336,-1.177734375,0.02734375,-0.67236328125,0.853658536585366,-88.41463414634147,41.40243902439025,130,3
337,-1.17333984375,0.05126953125,-0.6474609375,9.695121951219512,-94.63414634146342,42.743902439024396,130,3
338,-1.1337890625,0.0703125,-0.5869140625,17.5609756097561,-99.20731707317074,43.41463414634147,130,3
339,-1.07861328125,0.09912109375,-0.53759765625,25.426829268292686,-102.01219512195122,43.78048780487805,130,3
340,-1.03466796875,0.12158203125,-0.48095703125,30.731707317073173,-106.46341463414635,44.146341463414636,130,3
341,-1.1240234375,0.15283203125,-0.44140625,36.58536585365854,-111.34146341463416,43.59756097560976,130,3
342,-0.9853515625,0.173828125,-0.38720703125,40.243902439024396,-115.73170731707319,41.890243902439025,130,3
343,-0.958984375,0.19287109375,-0.3203125,43.41463414634147,-120.1829268292683,40.0609756097561,130,3
344,-0.96337890625,0.212890625,-0.28076171875,46.463414634146346,-124.20731707317074,38.71951219512196,130,3
345,-0.96533203125,0.2216796875,-0.22509765625,49.085365853658544,-127.8658536585366,36.34146341463415,130,3
346,-0.98974609375,0.2216796875,-0.224609375,52.926829268292686,-129.75609756097563,33.84146341463415,130,3
347,-1.00634765625,0.22802734375,-0.22119140625,57.19512195121952,-133.41463414634148,30.121951219512198,130,3
348,-1.0205078125,0.24072265625,-0.193359375,60.54878048780488,-125.12195121951221,28.53658536585366,130,3
349,-1.02880859375,0.13134765625,-0.1884765625,63.53658536585366,-146.15853658536588,27.987804878048784,130,3
350,-1.013671875,0.25927734375,-0.140625,64.20731707317074,-150.0609756097561,26.707317073170735,130,3
351,-1.00634765625,0.27880859375,-0.12646484375,65.3048780487805,-154.57317073170734,25.670731707317074,130,3
352,-0.8818359375,0.2646484375,-0.10009765625,68.35365853658537,-163.41463414634148,25.121951219512198,130,3
353,-1.056640625,0.2373046875,-0.07373046875,70.54878048780489,-167.5609756097561,22.378048780487806,130,3
354,-1.0576171875,0.21142578125,-0.06591796875,73.10975609756098,-170.3658536585366,20.182926829268293,130,3
355,-1.013671875,0.23486328125,-0.03857421875,73.90243902439025,-173.109756097561,20.0609756097561,130,3
356,-0.95361328125,0.2666015625,0.005859375,71.70731707317074,-173.35365853658539,21.402439024390247,130,3
357,-0.88330078125,0.271484375,0.0556640625,68.10975609756098,-172.50000000000003,23.658536585365855,130,3
358,-0.82421875,0.2783203125,0.0859375,64.57317073170732,-172.25609756097563,24.451219512195124,130,3
359,-0.76806640625,0.30078125,0.10693359375,62.19512195121952,-174.26829268292684,25.48780487804878,130,3
360,-0.75390625,0.27294921875,0.142578125,62.743902439024396,-179.51219512195124,26.76829268292683,130,3
361,-0.744140625,0.228515625,0.17529296875,64.75609756097562,-182.7439024390244,26.89024390243903,130,3
362,-0.72265625,0.2158203125,0.20849609375,70.91463414634147,-188.78048780487808,27.439024390243905,130,3
363,-0.68212890625,0.2119140625,0.24267578125,76.58536585365854,-191.58536585365854,27.500000000000004,130,3
364,-0.6318359375,0.22412109375,0.27783203125,77.19512195121952,-191.58536585365854,27.926829268292686,130,3
365,-0.59716796875,0.20654296875,0.36181640625,74.57317073170732,-188.2926829268293,29.32926829268293,130,3
366,-0.583984375,0.1982421875,0.404296875,71.58536585365854,-183.1707317073171,29.146341463414636,130,3
367,-0.5498046875,0.2451171875,0.42626953125,69.75609756097562,-180.06097560975613,29.32926829268293,130,3
368,-0.51171875,0.25830078125,0.4501953125,67.07317073170732,-176.89024390243904,30.0609756097561,130,3
369,-0.470703125,0.26171875,0.42626953125,69.45121951219512,-182.01219512195124,29.81707317073171,130,3
370,-0.46875,0.21044921875,0.42236328125,73.65853658536587,-186.52439024390245,29.939024390243905,130,3
371,-0.48291015625,0.1884765625,0.46337890625,62.50000000000001,-189.32926829268294,29.939024390243905,130,3
372,-0.4833984375,0.185546875,0.5166015625,81.95121951219512,-188.41463414634148,29.695121951219516,130,3
373,-0.4521484375,0.19482421875,0.54931640625,80.1829268292683,-185.4878048780488,29.695121951219516,130,3
374,-0.423828125,0.18505859375,0.5634765625,76.40243902439025,-182.25609756097563,30.54878048780488,130,3
375,-0.40185546875,0.1875,0.59716796875,72.37804878048782,-179.51219512195124,31.52439024390244,130,3
376,-0.49462890625,0.1904296875,0.60693359375,69.93902439024392,-178.65853658536588,32.43902439024391,130,3
377,-0.35302734375,0.185546875,0.6162109375,69.20731707317074,-178.41463414634148,31.52439024390244,130,3
378,-0.33203125,0.2119140625,0.74169921875,70.3048780487805,-179.81707317073173,30.670731707317074,130,3
379,-0.3203125,0.24365234375,0.6142578125,72.19512195121952,-180.97560975609758,31.03658536585366,130,3
380,-0.29833984375,0.23583984375,0.6044921875,73.35365853658537,-182.37804878048783,32.5,130,3
381,-0.2841796875,0.22119140625,0.59716796875,72.8048780487805,-183.47560975609758,34.75609756097561,130,3
382,-0.283203125,0.22119140625,0.6220703125,71.28048780487805,-182.50000000000003,36.03658536585366,130,3
383,-0.26220703125,0.216796875,0.689453125,67.19512195121952,-178.53658536585368,38.04878048780488,130,3
384,-0.22265625,0.265625,0.72265625,60.487804878048784,-173.84146341463415,39.81707317073171,130,3
385,-0.1884765625,0.2744140625,0.8671875,54.81707317073171,-171.58536585365854,41.768292682926834,130,3
386,-0.1826171875,0.27197265625,0.72802734375,52.50000000000001,-172.31707317073173,42.926829268292686,130,3
387,-0.16015625,0.2646484375,0.71044921875,54.268292682926834,-174.57317073170734,43.23170731707317,130,3
388,-0.13232421875,0.2880859375,0.7060546875,58.23170731707317,-178.2926829268293,44.32926829268293,130,3
389,-0.091796875,0.33935546875,0.7255859375,59.93902439024391,-176.76829268292684,44.08536585365854,130,3
390,-0.0126953125,0.3828125,0.76123046875,55.73170731707317,-173.2926829268293,43.29268292682927,130,3
391,0.0400390625,0.41064453125,0.7861328125,50.1829268292683,-170.97560975609758,43.65853658536586,130,3
392,0.025390625,0.40771484375,0.79345703125,62.31707317073171,-170.7926829268293,43.53658536585366,130,3
393,0.0146484375,0.3994140625,0.81787109375,45.60975609756098,-171.40243902439025,42.86585365853659,130,3
394,0.02392578125,0.3935546875,0.84375,45.00000000000001,-170.4268292682927,42.01219512195122,130,3
395,0.021484375,0.3857421875,0.76123046875,41.890243902439025,-168.0487804878049,42.19512195121951,130,3
396,0.0419921875,0.4052734375,0.890625,38.90243902439025,-166.95121951219514,43.35365853658537,130,3
397,0.0458984375,0.4267578125,0.9931640625,37.987804878048784,-167.31707317073173,45.426829268292686,130,3
398,0.0517578125,0.4365234375,0.87158203125,38.65853658536586,-167.01219512195124,46.34146341463415,130,3
399,0.07958984375,0.4521484375,0.8974609375,40.91463414634147,-165.1829268292683,46.89024390243903,130,3
400,0.1064453125,0.45849609375,0.876953125,37.43902439024391,-158.84146341463415,46.28048780487805,130,3
401,0.17041015625,0.4951171875,0.8515625,29.81707317073171,-152.01219512195124,46.40243902439025,130,3
402,0.20751953125,0.537109375,0.88720703125,22.012195121951223,-147.9878048780488,46.524390243902445,130,3
403,0.21337890625,0.525390625,0.953125,18.719512195121954,-144.63414634146343,46.58536585365854,130,3
404,0.18896484375,0.49560546875,1.001953125,16.82926829268293,-141.76829268292684,47.13414634146342,130,3
405,0.15869140625,0.447265625,0.958984375,18.84146341463415,-142.6829268292683,49.024390243902445,130,3
406,0.1162109375,0.4375,0.908203125,21.28048780487805,-142.9268292682927,48.78048780487805,130,3
407,0.13623046875,0.44677734375,0.83984375,24.32926829268293,-146.76829268292684,48.84146341463415,130,3
408,0.15380859375,0.49169921875,0.8623046875,25.792682926829272,-146.89024390243904,48.10975609756098,130,3
409,0.173828125,0.5146484375,0.89599609375,24.573170731707318,-142.9268292682927,48.29268292682927,130,3
410,0.21044921875,0.5302734375,0.9287109375,20.79268292682927,-137.01219512195124,47.987804878048784,130,3
411,0.240234375,0.56884765625,0.90185546875,18.414634146341466,-134.08536585365854,48.84146341463415,130,3
412,0.126953125,0.55029296875,0.9052734375,16.646341463414636,-132.07317073170734,49.93902439024391,130,3
413,0.27197265625,0.55908203125,0.87548828125,15.670731707317074,-131.70731707317074,50.36585365853659,130,3
414,0.27587890625,0.5380859375,0.8515625,16.76829268292683,-134.87804878048783,51.646341463414636,130,3
415,0.26416015625,0.51953125,0.814453125,20.975609756097562,-139.9390243902439,52.926829268292686,130,3
416,0.2509765625,0.47509765625,0.7919921875,29.02439024390244,-149.02439024390245,54.63414634146342,130,3
417,0.12646484375,0.443359375,0.8232421875,34.81707317073171,-149.02439024390245,54.39024390243903,130,3
418,0.271484375,0.42236328125,0.9052734375,32.5609756097561,-142.19512195121953,54.87804878048781,130,3
419,0.3173828125,0.45068359375,0.95849609375,24.146341463414636,-130.6707317073171,54.93902439024391,130,3
420,0.3525390625,0.48583984375,0.93505859375,14.451219512195124,-122.50000000000001,56.15853658536586,130,3
421,0.35693359375,0.47509765625,0.93310546875,10.24390243902439,-117.50000000000001,56.646341463414636,130,3
422,0.35546875,0.4716796875,0.890625,10.121951219512196,-117.13414634146342,58.17073170731708,130,3
423,0.38671875,0.44970703125,0.8212890625,10.975609756097562,-118.35365853658537,59.75609756097562,130,3
424,0.38427734375,0.42431640625,0.7744140625,13.719512195121952,-122.01219512195124,61.34146341463415,130,3
425,0.40771484375,0.431640625,0.71826171875,19.32926829268293,-126.46341463414635,62.25609756097562,130,3
426,0.4609375,0.44970703125,0.64892578125,23.170731707317074,-130.7926829268293,61.646341463414636,130,3
427,0.5048828125,0.4287109375,0.59375,24.695121951219516,-133.1707317073171,63.78048780487806,130,3
428,0.51171875,0.373046875,0.58544921875,13.902439024390246,-122.31707317073172,61.89024390243903,130,3
429,0.57373046875,0.42041015625,0.63720703125,4.024390243902439,-112.92682926829269,59.39024390243903,130,3
430,0.64306640625,0.45703125,0.70703125,-0.5487804878048781,-107.31707317073172,57.31707317073171,130,3
431,0.63720703125,0.4345703125,0.69189453125,-0.24390243902439027,-105.42682926829269,56.463414634146346,130,3
432,0.5771484375,0.3857421875,0.66552734375,2.804878048780488,-104.75609756097562,55.79268292682927,130,3
433,0.53857421875,0.33837890625,0.654296875,10.975609756097562,-107.43902439024392,55.365853658536594,130,3
434,0.5126953125,0.32177734375,0.6376953125,23.475609756097562,-111.95121951219514,54.93902439024391,130,3
435,0.62451171875,0.3095703125,0.55615234375,36.15853658536586,-117.19512195121952,58.10975609756098,130,3
436,0.388671875,0.30712890625,0.53662109375,48.53658536585366,-109.57317073170732,58.23170731707317,130,3
437,0.37744140625,0.3017578125,0.48193359375,55.426829268292686,-129.02439024390245,58.84146341463415,130,3
438,0.53564453125,0.28369140625,0.4267578125,50.243902439024396,-123.71951219512196,59.268292682926834,130,3
439,0.587890625,0.306640625,0.44482421875,39.93902439024391,-115.91463414634147,58.71951219512196,130,3
440,0.64501953125,0.3017578125,0.4375,21.34146341463415,-105.60975609756099,59.207317073170735,130,3
441,0.6904296875,0.33349609375,0.43359375,6.951219512195123,-100.91463414634147,61.95121951219513,130,3
442,0.6298828125,0.27880859375,0.46044921875,-1.2195121951219514,-100.3048780487805,65.3658536585366,130,3
443,0.56591796875,0.25439453125,0.48486328125,-1.6463414634146343,-101.64634146341464,69.75609756097562,130,3
444,0.52783203125,0.20751953125,0.5029296875,1.0975609756097562,-103.17073170731709,73.10975609756098,130,3
445,0.5205078125,0.18359375,0.47216796875,6.402439024390245,-108.23170731707317,75.3658536585366,130,3
446,0.5341796875,0.20361328125,0.40087890625,14.573170731707318,-112.8048780487805,77.01219512195122,130,3
447,0.56396484375,0.20654296875,0.3466796875,20.914634146341466,-116.70731707317074,80.0609756097561,130,3
448,0.6201171875,0.27392578125,0.31689453125,21.646341463414636,-113.84146341463416,76.40243902439025,130,3
449,0.6904296875,0.30615234375,0.29296875,14.146341463414636,-107.98780487804879,74.45121951219512,130,3
450,0.76806640625,0.35693359375,0.3125,2.1951219512195124,-99.45121951219512,72.6219512195122,130,3
451,0.80322265625,0.40771484375,0.35205078125,-10.670731707317074,-90.54878048780489,70.3048780487805,130,3
452,0.8056640625,0.40673828125,0.3935546875,-20.182926829268293,-82.13414634146342,68.90243902439025,130,3
453,0.77880859375,0.365234375,0.3974609375,-24.634146341463417,-74.08536585365854,66.52439024390245,130,3
454,0.77783203125,0.36328125,0.3935546875,-23.84146341463415,-71.15853658536587,64.14634146341464,130,3
455,0.76513671875,0.31787109375,0.3466796875,-18.170731707317074,-70.42682926829269,61.707317073170735,130,3
456,0.75537109375,0.27294921875,0.318359375,-12.073170731707318,-70.1219512195122,59.32926829268293,130,3
457,0.74658203125,0.26611328125,0.318359375,-5.3048780487804885,-69.08536585365854,57.19512195121952,130,3
458,0.77294921875,0.28564453125,0.31982421875,0.7926829268292683,-68.23170731707317,54.51219512195122,130,3
459,0.80029296875,0.29931640625,0.32421875,3.8414634146341466,-66.70731707317074,51.89024390243903,130,3
460,0.8154296875,0.32177734375,0.326171875,6.036585365853659,-65.42682926829269,49.085365853658544,130,3
461,0.84912109375,0.3427734375,0.3349609375,5.731707317073171,-62.6829268292683,45.0609756097561,130,3
462,0.865234375,0.3369140625,0.3505859375,3.5975609756097566,-59.93902439024391,41.15853658536586,130,3
463,0.98388671875,0.34423828125,0.36279296875,0.853658536585366,-54.63414634146342,37.5609756097561,130,3
464,0.85888671875,0.35107421875,0.3798828125,-0.30487804878048785,-51.707317073170735,35.426829268292686,130,3
465,0.8291015625,0.34033203125,0.34912109375,1.1585365853658538,-52.31707317073171,33.84146341463415,130,3
466,0.81298828125,0.32421875,0.29736328125,3.1707317073170733,-49.75609756097561,46.524390243902445,130,3
467,0.841796875,0.32275390625,0.31494140625,3.414634146341464,-45.97560975609756,28.170731707317074,130,3
468,0.89013671875,0.390625,0.32373046875,1.5853658536585367,-41.21951219512196,25.670731707317074,130,3
469,0.99169921875,0.38037109375,0.34033203125,0.12195121951219513,-37.19512195121951,23.658536585365855,130,3
470,0.84228515625,0.37646484375,0.33447265625,-0.24390243902439027,-33.170731707317074,20.670731707317074,130,3
471,0.84814453125,0.380859375,0.3291015625,-0.7317073170731708,-31.280487804878053,17.012195121951223,130,3
472,0.85791015625,0.3720703125,0.31884765625,-2.5,-27.621951219512198,12.926829268292684,130,3
473,0.85595703125,0.3681640625,0.3330078125,-4.817073170731708,-23.231707317073173,8.78048780487805,130,3
474,0.85009765625,0.35546875,0.31982421875,-8.231707317073171,-18.719512195121954,4.939024390243903,130,3
475,0.8310546875,0.33544921875,0.3203125,-10.609756097560977,-15.30487804878049,2.3170731707317076,130,3
476,0.79541015625,0.3134765625,0.298828125,-11.829268292682928,-12.195121951219512,0.12195121951219513,130,3
477,0.775390625,0.3056640625,0.287109375,-12.560975609756099,-9.207317073170733,-1.5853658536585367,130,3
478,0.7607421875,0.298828125,0.27001953125,-14.51219512195122,-4.390243902439025,-3.1097560975609757,130,3
479,0.75634765625,0.28369140625,0.259765625,-16.03658536585366,-1.0365853658536586,-3.9024390243902443,130,3
480,0.73974609375,0.27734375,0.24951171875,-17.926829268292686,3.963414634146342,-5.548780487804878,130,3
481,0.7587890625,0.2734375,0.25537109375,-19.26829268292683,7.987804878048781,-7.378048780487806,130,3
482,0.77587890625,0.283203125,0.26416015625,-19.146341463414636,11.158536585365855,-9.329268292682928,130,3
483,0.76806640625,0.26904296875,0.25048828125,-18.10975609756098,13.109756097560977,-11.158536585365855,130,3
484,0.78173828125,0.26025390625,0.23974609375,-18.29268292682927,15.54878048780488,-13.109756097560977,130,3
485,0.791015625,0.2626953125,0.21240234375,-19.451219512195124,17.439024390243905,-14.878048780487806,130,3
486,0.7939453125,0.25439453125,0.20751953125,-20.365853658536587,17.439024390243905,-15.975609756097562,130,3
487,0.7529296875,0.23046875,0.177734375,-20.243902439024392,18.414634146341466,-17.134146341463417,130,3
488,0.8720703125,0.21630859375,0.17138671875,-21.03658536585366,20.0,-18.597560975609756,130,3
489,0.77197265625,0.240234375,0.171875,-23.53658536585366,21.890243902439025,-19.146341463414636,130,3
490,0.759765625,0.22607421875,0.166015625,-25.426829268292686,22.31707317073171,-19.878048780487806,130,3
491,0.73095703125,0.20166015625,0.1513671875,-25.670731707317074,23.04878048780488,-20.426829268292686,130,3
492,0.7236328125,0.1826171875,0.1669921875,-25.0609756097561,23.10975609756098,-20.853658536585368,130,3
493,0.72998046875,0.19384765625,0.1630859375,-25.121951219512198,23.353658536585368,-21.52439024390244,130,3
494,0.73876953125,0.19189453125,0.1669921875,-25.731707317073173,24.146341463414636,-21.76829268292683,130,3
495,0.7021484375,0.16064453125,0.14306640625,-26.463414634146343,24.390243902439025,-22.31707317073171,130,3
496,0.6943359375,0.158203125,0.138671875,-25.792682926829272,24.02439024390244,-22.865853658536587,130,3
497,0.689453125,0.15185546875,0.138671875,-24.451219512195124,23.170731707317074,-22.682926829268293,130,3
498,0.6728515625,0.1591796875,0.11328125,-23.78048780487805,22.80487804878049,-22.743902439024392,130,3
499,0.6806640625,0.1572265625,0.11474609375,-23.59756097560976,23.53658536585366,-22.865853658536587,130,3
