,Ax,Ay,Az,Gx,Gy,Gz,distance,shot_type
0,0.62548828125,-0.24853515625,-0.2919921875,19.512195121951223,1.2804878048780488,-24.146341463414636,140,4
1,0.7568359375,-0.28857421875,-0.2958984375,18.170731707317074,3.963414634146342,-23.78048780487805,140,4
2,0.74169921875,-0.3505859375,-0.2939453125,22.134146341463417,4.207317073170732,-22.865853658536587,140,4
3,0.70458984375,-0.39501953125,-0.30712890625,25.975609756097562,4.024390243902439,-21.03658536585366,140,4
4,0.70458984375,-0.39892578125,-0.33984375,25.670731707317074,5.975609756097562,-20.426829268292686,140,4
5,0.70849609375,-0.42041015625,-0.37255859375,23.10975609756098,6.707317073170732,-19.26829268292683,140,4
6,0.7021484375,-0.4501953125,-0.40185546875,23.10975609756098,7.195121951219513,-16.951219512195124,140,4
7,0.68505859375,-0.49072265625,-0.4248046875,20.426829268292686,9.26829268292683,-14.634146341463415,140,4
8,0.67919921875,-0.5263671875,-0.42919921875,15.853658536585368,11.890243902439025,-13.170731707317074,140,4
9,0.66259765625,-0.5693359375,-0.43603515625,12.80487804878049,13.353658536585368,-10.30487804878049,140,4
10,0.63330078125,-0.60302734375,-0.43115234375,12.195121951219512,14.02439024390244,-7.317073170731708,140,4
11,0.609375,-0.64599609375,-0.416015625,13.902439024390246,12.80487804878049,-4.817073170731708,140,4
12,0.583984375,-0.6689453125,-0.41552734375,18.658536585365855,9.756097560975611,-3.353658536585366,140,4
13,0.57080078125,-0.658203125,-0.40869140625,24.878048780487806,6.097560975609756,-2.0121951219512195,140,4
14,0.5263671875,-0.669921875,-0.40283203125,31.03658536585366,2.3170731707317076,-15.54878048780488,140,4
15,0.515625,-0.65771484375,-0.41064453125,31.219512195121954,-0.30487804878048785,0.426829268292683,140,4
16,0.52197265625,-0.599609375,-0.44189453125,30.30487804878049,-3.231707317073171,1.2804878048780488,140,4
17,0.53955078125,-0.53759765625,-0.47607421875,27.621951219512198,-4.329268292682928,3.963414634146342,140,4
18,0.55908203125,-0.49755859375,-0.390625,20.243902439024392,-3.4756097560975614,6.829268292682928,140,4
19,0.57568359375,-0.46923828125,-0.529296875,15.243902439024392,-4.2682926829268295,8.719512195121952,140,4
20,0.58544921875,-0.4501953125,-0.54150390625,10.670731707317074,-4.634146341463415,9.878048780487806,140,4
21,0.57861328125,-0.4013671875,-0.53857421875,6.951219512195123,-4.695121951219512,9.573170731707318,140,4
22,0.61572265625,-0.361328125,-0.52685546875,2.682926829268293,-3.658536585365854,9.26829268292683,140,4
23,0.63037109375,-0.31640625,-0.5205078125,-0.853658536585366,-2.9268292682926833,9.329268292682928,140,4
24,0.6474609375,-0.31103515625,-0.50244140625,-5.548780487804878,0.6707317073170732,8.170731707317074,140,4
25,0.67138671875,-0.28125,-0.45166015625,-7.195121951219513,2.7439024390243905,8.231707317073171,140,4
26,0.6787109375,-0.259765625,-0.4169921875,-7.8048780487804885,4.451219512195122,7.01219512195122,140,4
27,0.66748046875,-0.25146484375,-0.498046875,-5.2439024390243905,4.75609756097561,6.402439024390245,140,4
28,0.67822265625,-0.26611328125,-0.35009765625,-2.5609756097560976,4.634146341463415,7.073170731707318,140,4
29,0.7021484375,-0.259765625,-0.34619140625,-1.402439024390244,4.451219512195122,7.439024390243903,140,4
30,0.73681640625,-0.21484375,-0.35498046875,-3.353658536585366,6.341463414634147,7.195121951219513,140,4
31,0.76318359375,-0.2138671875,-0.30859375,-6.463414634146342,9.390243902439025,8.414634146341465,140,4
32,0.77001953125,-0.2626953125,-0.2939453125,-10.853658536585368,12.865853658536587,9.695121951219512,140,4
33,0.755859375,-0.3046875,-0.2861328125,-14.390243902439027,16.34146341463415,8.841463414634147,140,4
34,0.7666015625,-0.3115234375,-0.3154296875,-16.158536585365855,17.439024390243905,7.134146341463415,140,4
35,0.7587890625,-0.333984375,-0.3154296875,-16.82926829268293,18.10975609756098,6.341463414634147,140,4
36,0.7578125,-0.32421875,-0.296875,-16.951219512195124,17.378048780487806,4.451219512195122,140,4
37,0.73583984375,-0.35400390625,-0.30322265625,-12.073170731707318,15.182926829268293,3.1097560975609757,140,4
38,0.72998046875,-0.3916015625,-0.306640625,-8.109756097560977,13.902439024390246,2.0121951219512195,140,4
39,0.736328125,-0.3779296875,-0.328125,-7.926829268292684,13.04878048780488,-0.5487804878048781,140,4
40,0.76220703125,-0.3544921875,-0.3447265625,-10.426829268292684,12.865853658536587,-0.1829268292682927,140,4
41,0.74365234375,-0.333984375,-0.35498046875,-12.80487804878049,13.414634146341465,-0.9756097560975611,140,4
42,0.74462890625,-0.33935546875,-0.34375,-15.060975609756099,15.487804878048783,0.6707317073170732,140,4
43,0.7431640625,-0.37548828125,-0.33251953125,-20.243902439024392,18.78048780487805,2.0121951219512195,140,4
44,0.73095703125,-0.3828125,-0.33251953125,-21.76829268292683,19.634146341463417,2.378048780487805,140,4
45,0.71484375,-0.4228515625,-0.341796875,-18.963414634146343,18.658536585365855,4.634146341463415,140,4
46,0.7109375,-0.4296875,-0.337890625,-17.439024390243905,19.32926829268293,4.573170731707317,140,4
47,0.70361328125,-0.42431640625,-0.33154296875,-17.195121951219512,20.426829268292686,5.182926829268293,140,4
48,0.6591796875,-0.45556640625,-0.33251953125,-13.597560975609758,20.182926829268293,3.7195121951219514,140,4
49,0.6474609375,-0.4501953125,-0.3349609375,-8.475609756097562,18.170731707317074,2.0121951219512195,140,4
50,0.6533203125,-0.427734375,-0.34521484375,-3.780487804878049,16.28048780487805,0.853658536585366,140,4
51,0.65576171875,-0.4150390625,-0.3623046875,-0.6097560975609757,14.878048780487806,1.0975609756097562,140,4
52,0.6611328125,-0.40380859375,-0.39013671875,-0.7317073170731708,14.817073170731708,1.402439024390244,140,4
53,0.67431640625,-0.36962890625,-0.38671875,-4.329268292682928,16.52439024390244,1.829268292682927,140,4
54,0.69140625,-0.35546875,-0.38525390625,-8.048780487804878,18.04878048780488,3.048780487804878,140,4
55,0.6982421875,-0.38427734375,-0.3603515625,-14.878048780487806,22.195121951219512,4.75609756097561,140,4
56,0.6943359375,-0.38232421875,-0.34765625,-22.195121951219512,26.402439024390247,5.609756097560976,140,4
57,0.70654296875,-0.3720703125,-0.3427734375,-27.378048780487806,29.26829268292683,6.036585365853659,140,4
58,0.70458984375,-0.3701171875,-0.30517578125,-29.26829268292683,29.695121951219516,7.682926829268293,140,4
59,0.68505859375,-0.3916015625,-0.26708984375,-25.54878048780488,29.146341463414636,8.048780487804878,140,4
60,0.671875,-0.44091796875,-0.25634765625,-18.963414634146343,27.926829268292686,8.231707317073171,140,4
61,0.689453125,-0.421875,-0.2939453125,-14.26829268292683,25.182926829268293,7.073170731707318,140,4
62,0.7158203125,-0.3857421875,-0.29736328125,-12.682926829268293,25.000000000000004,5.731707317073171,140,4
63,0.7236328125,-0.3681640625,-0.2861328125,-13.719512195121952,25.54878048780488,4.451219512195122,140,4
64,0.72021484375,-0.357421875,-0.27490234375,-14.390243902439027,25.121951219512198,3.8414634146341466,140,4
65,0.73486328125,-0.37158203125,-0.28759765625,-15.182926829268293,25.426829268292686,3.2926829268292686,140,4
66,0.7392578125,-0.35693359375,-0.3037109375,-16.34146341463415,25.365853658536587,3.1707317073170733,140,4
67,0.74951171875,-0.3876953125,-0.265625,-15.609756097560977,25.914634146341466,3.658536585365854,140,4
68,0.73974609375,-0.40234375,-0.26220703125,-13.78048780487805,25.54878048780488,4.451219512195122,140,4
69,0.7392578125,-0.400390625,-0.27294921875,-10.731707317073171,24.939024390243905,3.8414634146341466,140,4
70,0.7412109375,-0.37744140625,-0.26220703125,-9.573170731707318,24.146341463414636,3.8414634146341466,140,4
71,0.744140625,-0.384765625,-0.236328125,-8.353658536585366,24.939024390243905,4.51219512195122,140,4
72,0.7353515625,-0.36181640625,-0.23291015625,-9.51219512195122,25.792682926829272,3.414634146341464,140,4
73,0.75341796875,-0.34033203125,-0.20361328125,-10.548780487804878,26.951219512195124,2.1341463414634148,140,4
74,0.7626953125,-0.345703125,-0.201171875,-9.207317073170733,25.670731707317074,1.6463414634146343,140,4
75,0.74560546875,-0.37255859375,-0.20654296875,-6.890243902439025,24.81707317073171,1.0975609756097562,140,4
76,0.736328125,-0.38916015625,-0.2265625,-5.975609756097562,25.48780487804878,1.524390243902439,140,4
77,0.72802734375,-0.38037109375,-0.2265625,-6.707317073170732,25.182926829268293,1.2195121951219514,140,4
78,0.71923828125,-0.37451171875,-0.232421875,-4.75609756097561,24.085365853658537,2.682926829268293,140,4
79,0.69921875,-0.42919921875,-0.24609375,-1.0975609756097562,24.207317073170735,3.2926829268292686,140,4
80,0.69921875,-0.44921875,-0.21533203125,0.12195121951219513,25.731707317073173,2.9268292682926833,140,4
81,0.68212890625,-0.4462890625,-0.2333984375,-0.12195121951219513,26.707317073170735,3.414634146341464,140,4
82,0.673828125,-0.4658203125,-0.21044921875,15.54878048780488,30.30487804878049,5.426829268292684,140,4
83,0.68359375,-0.44384765625,-0.11083984375,-5.0,37.25609756097561,8.414634146341465,140,4
84,0.63720703125,-0.50634765625,-0.08447265625,-12.865853658536587,43.53658536585366,9.26829268292683,140,4
85,0.634765625,-0.50634765625,-0.025390625,-16.28048780487805,48.65853658536586,9.02439024390244,140,4
86,0.625,-0.5244140625,-0.0205078125,-14.146341463414636,50.54878048780488,9.085365853658537,140,4
87,0.64990234375,-0.54541015625,-0.01611328125,-9.695121951219512,50.79268292682927,9.390243902439025,140,4
88,0.666015625,-0.53662109375,-0.05224609375,-3.780487804878049,48.84146341463415,8.231707317073171,140,4
89,0.70751953125,-0.48193359375,-0.10986328125,3.5975609756097566,44.87804878048781,6.646341463414635,140,4
90,0.7353515625,-0.4345703125,-0.17333984375,9.207317073170733,40.85365853658537,6.402439024390245,140,4
91,0.7666015625,-0.39404296875,-0.21875,9.02439024390244,38.10975609756098,5.060975609756098,140,4
92,0.79541015625,-0.31982421875,-0.2861328125,1.3414634146341464,38.23170731707317,3.048780487804878,140,4
93,0.8271484375,-0.2353515625,-0.30224609375,-5.914634146341464,40.0609756097561,2.5609756097560976,140,4
94,0.80615234375,-0.2578125,-0.32177734375,-11.707317073170733,40.0,3.9024390243902443,140,4
95,0.8037109375,-0.375,-0.32568359375,-12.80487804878049,38.963414634146346,3.8414634146341466,140,4
96,0.8291015625,-0.22021484375,-0.32470703125,-17.012195121951223,39.63414634146342,4.390243902439025,140,4
97,0.833984375,-0.22216796875,-0.3701171875,-23.170731707317074,40.54878048780488,3.9024390243902443,140,4
98,0.8095703125,-0.19384765625,-0.37548828125,-29.695121951219516,42.6829268292683,4.2682926829268295,140,4
99,0.8037109375,-0.1875,-0.3662109375,-32.987804878048784,43.23170731707317,4.878048780487806,140,4
100,0.78662109375,-0.22900390625,-0.36572265625,-36.524390243902445,45.79268292682927,4.939024390243903,140,4
101,0.759765625,-0.25146484375,-0.38427734375,-41.09756097560976,48.10975609756098,4.75609756097561,140,4
102,0.73193359375,-0.24072265625,-0.3623046875,-43.963414634146346,49.51219512195122,5.182926829268293,140,4
103,0.70751953125,-0.22265625,-0.35546875,-42.926829268292686,47.50000000000001,5.365853658536586,140,4
104,0.71142578125,-0.193359375,-0.3359375,-41.707317073170735,45.97560975609756,6.097560975609756,140,4
105,0.72705078125,-0.1630859375,-0.3037109375,-42.926829268292686,45.73170731707317,6.097560975609756,140,4
106,0.71630859375,-0.16357421875,-0.34521484375,-45.97560975609756,46.15853658536586,5.3048780487804885,140,4
107,0.73193359375,-0.12646484375,-0.36962890625,-51.82926829268293,46.03658536585366,2.5,140,4
108,0.62939453125,-0.09765625,-0.376953125,-58.17073170731708,45.426829268292686,1.524390243902439,140,4
109,0.73095703125,-0.11669921875,-0.34765625,-59.32926829268293,43.170731707317074,-0.30487804878048785,140,4
110,0.72314453125,-0.158203125,-0.3623046875,-57.01219512195122,39.32926829268293,-2.25609756097561,140,4
111,0.70556640625,-0.1689453125,-0.36767578125,-54.268292682926834,36.40243902439025,-4.390243902439025,140,4
112,0.69873046875,-0.1748046875,-0.39306640625,-51.21951219512196,32.5609756097561,-5.609756097560976,140,4
113,0.70458984375,-0.13037109375,-0.40478515625,-53.17073170731708,30.792682926829272,-7.25609756097561,140,4
114,0.7138671875,-0.095703125,-0.41064453125,-57.6829268292683,30.426829268292686,-8.536585365853659,140,4
115,0.70654296875,-0.103515625,-0.41650390625,-47.13414634146342,30.000000000000004,-10.060975609756099,140,4
116,0.70849609375,-0.07763671875,-0.42138671875,-67.8658536585366,29.02439024390244,-11.402439024390246,140,4
117,0.71044921875,-0.0791015625,-0.44091796875,-71.52439024390245,27.378048780487806,-12.560975609756099,140,4
118,0.7138671875,-0.0693359375,-0.4658203125,-74.57317073170732,25.60975609756098,-13.902439024390246,140,4
119,0.7216796875,-0.03271484375,-0.4912109375,-78.47560975609757,23.84146341463415,-16.158536585365855,140,4
120,0.73828125,-0.04150390625,-0.37939453125,-82.5609756097561,23.59756097560976,-17.804878048780488,140,4
121,0.7548828125,-0.03857421875,-0.50732421875,-87.13414634146342,23.29268292682927,-19.451219512195124,140,4
122,0.73583984375,-0.0703125,-0.4912109375,-90.67073170731707,22.5609756097561,-20.731707317073173,140,4
123,0.7265625,-0.09033203125,-0.45361328125,-91.58536585365854,21.76829268292683,-22.012195121951223,140,4
124,0.62548828125,-0.06884765625,-0.43896484375,-95.79268292682927,21.402439024390247,-23.59756097560976,140,4
125,0.7431640625,-0.0625,-0.43212890625,-100.3048780487805,21.585365853658537,-25.243902439024392,140,4
126,0.74169921875,-0.06494140625,-0.41552734375,-105.3658536585366,21.82926829268293,-26.09756097560976,140,4
127,0.7509765625,-0.06201171875,-0.39501953125,-110.1219512195122,21.34146341463415,-27.25609756097561,140,4
128,0.7587890625,-0.0888671875,-0.4013671875,-111.46341463414635,19.207317073170735,-29.08536585365854,140,4
129,0.75,-0.1123046875,-0.4111328125,-109.63414634146342,16.219512195121954,-32.01219512195122,140,4
130,0.75927734375,-0.10205078125,-0.421875,-108.10975609756099,14.26829268292683,-35.79268292682927,140,4
131,0.7626953125,-0.09765625,-0.40673828125,-107.07317073170732,12.134146341463415,-38.90243902439025,140,4
132,0.79052734375,-0.056640625,-0.4306640625,-110.54878048780489,11.341463414634147,-41.40243902439025,140,4
133,0.794921875,-0.03173828125,-0.41552734375,-117.25609756097562,11.402439024390246,-43.35365853658537,140,4
134,0.79296875,-0.03662109375,-0.43212890625,-123.23170731707319,12.134146341463415,-45.426829268292686,140,4
135,0.80419921875,-0.00537109375,-0.38671875,-129.39024390243904,13.78048780487805,-47.13414634146342,140,4
136,0.8193359375,-0.02001953125,-0.2509765625,-134.20731707317074,14.939024390243905,-47.804878048780495,140,4
137,0.8076171875,-0.04345703125,-0.4990234375,-136.09756097560978,14.573170731707318,-50.00000000000001,140,4
138,0.79833984375,-0.04833984375,-0.365234375,-135.7926829268293,14.26829268292683,-52.07317073170732,140,4
139,0.8115234375,-0.03955078125,-0.37158203125,-135.4268292682927,13.353658536585368,-54.51219512195122,140,4
140,0.81884765625,-0.0654296875,-0.40966796875,-133.0487804878049,10.548780487804878,-56.82926829268293,140,4
141,0.82080078125,0.0078125,-0.39892578125,-133.59756097560978,8.536585365853659,-59.451219512195124,140,4
142,0.83447265625,0.06591796875,-0.4248046875,-136.76829268292684,8.048780487804878,-62.25609756097562,140,4
143,0.86181640625,0.0048828125,-0.4306640625,-144.51219512195124,9.817073170731708,-65.1219512195122,140,4
144,0.8779296875,0.111328125,-0.44091796875,-152.25609756097563,11.28048780487805,-68.90243902439025,140,4
145,0.8759765625,0.091796875,-0.42822265625,-155.97560975609758,11.341463414634147,-72.31707317073172,140,4
146,0.87744140625,0.0830078125,-0.41015625,-156.28048780487805,9.939024390243903,-75.91463414634147,140,4
147,0.86962890625,0.04150390625,-0.40771484375,-154.51219512195124,7.500000000000001,-79.45121951219512,140,4
148,0.84423828125,0.0224609375,-0.39990234375,-151.58536585365854,5.2439024390243905,-83.41463414634147,140,4
149,0.845703125,0.0419921875,-0.388671875,-148.1707317073171,4.634146341463415,-87.8048780487805,140,4
150,0.849609375,0.05615234375,-0.3779296875,-146.70731707317074,2.9268292682926833,-89.26829268292684,140,4
151,0.8388671875,0.07080078125,-0.4638671875,-144.87804878048783,0.06097560975609757,-91.40243902439025,140,4
152,0.91015625,0.24365234375,-0.52197265625,-150.1829268292683,0.48780487804878053,-95.1829268292683,140,4
153,0.96875,0.3349609375,-0.52392578125,-159.81707317073173,4.695121951219512,-97.92682926829269,140,4
154,1.0322265625,0.349609375,-0.55126953125,-170.2439024390244,7.500000000000001,-101.03658536585367,140,4
155,1.044921875,0.2861328125,-0.57373046875,-176.21951219512198,9.695121951219512,-104.87804878048782,140,4
156,1.08544921875,0.28173828125,-0.548828125,-180.609756097561,12.621951219512196,-108.23170731707317,140,4
157,1.00341796875,0.283203125,-0.5361328125,-185.7926829268293,0.12195121951219513,-110.06097560975611,140,4
158,1.150390625,0.2978515625,-0.53466796875,-190.5487804878049,19.085365853658537,-113.10975609756099,140,4
159,1.19091796875,0.31201171875,-0.5205078125,-194.63414634146343,22.073170731707318,-118.53658536585367,140,4
160,1.1982421875,0.337890625,-0.47265625,-198.2926829268293,24.26829268292683,-121.03658536585367,140,4
161,1.19677734375,0.28564453125,-0.41162109375,-202.07317073170734,27.378048780487806,-125.42682926829269,140,4
162,1.2373046875,0.3291015625,-0.3896484375,-203.41463414634148,29.146341463414636,-128.0487804878049,140,4
163,1.22802734375,0.32861328125,-0.3447265625,-203.71951219512198,31.52439024390244,-132.7439024390244,140,4
164,1.2158203125,0.3056640625,-0.34814453125,-204.08536585365854,32.6219512195122,-135.91463414634148,140,4
165,1.23876953125,0.328125,-0.322265625,-201.34146341463418,33.78048780487805,-141.40243902439025,140,4
166,1.138671875,0.3779296875,-0.32177734375,-200.4878048780488,35.0,-146.70731707317074,140,4
167,1.2919921875,0.40478515625,-0.32275390625,-199.45121951219514,35.73170731707317,-150.5487804878049,140,4
168,1.2919921875,0.38232421875,-0.35400390625,-198.41463414634148,35.91463414634147,-154.81707317073173,140,4
169,1.31103515625,0.416015625,-0.33056640625,-198.0487804878049,38.04878048780488,-158.84146341463415,140,4
170,1.34375,0.4208984375,-0.3310546875,-196.64634146341464,38.90243902439025,-162.6829268292683,140,4
171,1.3408203125,0.42724609375,-0.3115234375,-194.93902439024393,42.37804878048781,-166.52439024390245,140,4
172,1.34375,0.45947265625,-0.298828125,-195.00000000000003,45.97560975609756,-170.7926829268293,140,4
173,1.37353515625,0.37939453125,-0.36865234375,-193.96341463414635,48.963414634146346,-174.81707317073173,140,4
174,1.3564453125,0.515625,-0.205078125,-189.63414634146343,47.25609756097561,-176.70731707317074,140,4
175,1.396484375,0.4716796875,-0.2158203125,-183.90243902439025,48.04878048780488,-180.3048780487805,140,4
176,1.37890625,0.49560546875,-0.2236328125,-181.34146341463415,50.243902439024396,-184.93902439024393,140,4
177,1.40576171875,0.599609375,-0.2216796875,-180.06097560975613,50.36585365853659,-187.9878048780488,140,4
178,1.4072265625,0.61376953125,-0.23583984375,-180.2439024390244,52.86585365853659,-190.5487804878049,140,4
179,1.38232421875,0.59765625,-0.20751953125,-179.51219512195124,54.69512195121952,-194.75609756097563,140,4
180,1.36865234375,0.61376953125,-0.13671875,-174.57317073170734,54.085365853658544,-197.8048780487805,140,4
181,1.34375,0.5888671875,-0.125,-170.97560975609758,54.024390243902445,-199.63414634146343,140,4
182,1.3271484375,0.61767578125,-0.056640625,-168.35365853658539,56.646341463414636,-187.50000000000003,140,4
183,1.3154296875,0.66943359375,-0.0361328125,-164.75609756097563,56.524390243902445,-205.06097560975613,140,4
184,1.34423828125,0.68994140625,0.1181640625,-161.52439024390245,57.50000000000001,-207.8048780487805,140,4
185,1.35205078125,0.654296875,-0.048828125,-159.75609756097563,58.29268292682927,-211.82926829268294,140,4
186,1.3916015625,0.70068359375,-0.0361328125,-155.4878048780488,58.71951219512196,-216.40243902439028,140,4
187,1.42431640625,0.7421875,-0.0224609375,-152.5,60.73170731707317,-220.4878048780488,140,4
188,1.43798828125,0.74365234375,-0.033203125,-152.13414634146343,63.47560975609757,-223.84146341463418,140,4
189,1.43505859375,0.79443359375,-0.00439453125,-152.37804878048783,64.14634146341464,-225.5487804878049,140,4
190,1.42041015625,0.71337890625,-0.00244140625,-152.13414634146343,65.1219512195122,-225.4878048780488,140,4
191,1.49609375,0.62548828125,0.05859375,-148.96341463414635,65.85365853658537,-226.34146341463418,140,4
192,1.35400390625,0.73193359375,0.064453125,-144.69512195121953,65.48780487804879,-227.25609756097563,140,4
193,1.32275390625,0.703125,0.029296875,-141.15853658536588,67.07317073170732,-228.71951219512198,140,4
194,1.29345703125,0.70947265625,0.072265625,-137.9878048780488,69.08536585365854,-231.40243902439028,140,4
195,1.29150390625,0.72265625,0.08984375,-132.8048780487805,69.93902439024392,-234.45121951219514,140,4
196,1.25048828125,0.66796875,0.06005859375,-126.34146341463416,68.90243902439025,-236.95121951219514,140,4
197,1.2255859375,0.64453125,0.05615234375,-118.29268292682927,67.5,-238.78048780487808,140,4
198,1.18896484375,0.7451171875,0.06103515625,-110.1829268292683,65.97560975609757,-240.6707317073171,140,4
199,1.140625,0.5439453125,0.078125,-101.46341463414635,66.89024390243902,-241.64634146341464,140,4
200,1.09130859375,0.4755859375,0.11328125,-95.3658536585366,68.78048780487805,-243.47560975609758,140,4
201,1.0546875,0.443359375,0.1103515625,-90.54878048780489,69.75609756097562,-246.40243902439028,140,4
202,1.0263671875,0.44384765625,0.0966796875,-85.42682926829269,68.90243902439025,-247.62195121951223,140,4
203,0.95947265625,0.3876953125,0.09375,-81.21951219512196,66.64634146341464,-244.75609756097563,140,4
204,0.90087890625,0.31201171875,0.11572265625,-76.70731707317074,66.82926829268293,-244.93902439024393,140,4
205,0.857421875,0.31298828125,0.10302734375,-71.15853658536587,64.81707317073172,-245.7317073170732,140,4
206,0.8134765625,0.236328125,0.10986328125,-66.15853658536587,64.14634146341464,-245.3658536585366,140,4
207,0.62744140625,0.16650390625,0.10888671875,-62.560975609756106,77.92682926829269,-246.34146341463418,140,4
208,0.71337890625,0.14013671875,0.1513671875,-59.268292682926834,60.60975609756098,-246.95121951219514,140,4
209,0.6611328125,0.0849609375,0.1806640625,-55.487804878048784,60.365853658536594,-247.01219512195124,140,4
210,0.6142578125,0.0625,0.21142578125,-54.63414634146342,60.73170731707317,-245.4878048780488,140,4
211,0.5859375,0.0078125,0.2802734375,-51.585365853658544,59.63414634146342,-242.9268292682927,140,4
212,0.5400390625,-0.0888671875,0.30859375,-45.670731707317074,57.743902439024396,-237.9268292682927,140,4
213,0.548828125,-0.16357421875,0.32568359375,-38.23170731707317,55.0609756097561,-232.37804878048783,140,4
214,0.50390625,-0.2421875,0.30908203125,-28.902439024390247,51.951219512195124,-225.7926829268293,140,4
215,0.46630859375,-0.30615234375,0.3037109375,-24.634146341463417,48.78048780487805,-234.14634146341464,140,4
216,0.453125,-0.3388671875,0.29833984375,-20.54878048780488,47.5609756097561,-209.32926829268294,140,4
217,0.3798828125,-0.45263671875,0.1259765625,-17.134146341463417,45.85365853658537,-198.2926829268293,140,4
218,0.32080078125,-0.5615234375,0.26904296875,-19.878048780487806,49.51219512195122,-190.06097560975613,140,4
219,0.27783203125,-0.5947265625,0.25927734375,-24.207317073170735,49.63414634146342,-180.2439024390244,140,4
220,0.14306640625,-0.763671875,0.296875,-26.219512195121954,54.63414634146342,-165.97560975609758,140,4
221,0.107421875,-0.73974609375,0.3251953125,-29.573170731707318,53.10975609756098,-154.08536585365854,140,4
222,-0.04150390625,-0.96484375,0.25439453125,-32.13414634146342,60.060975609756106,-137.9878048780488,140,4
223,-0.09814453125,-1.02685546875,0.40234375,-33.84146341463415,61.768292682926834,-120.06097560975611,140,4
224,-0.22998046875,-1.158203125,0.4775390625,-33.65853658536586,61.03658536585366,-100.42682926829269,140,4
225,-0.30712890625,-1.29345703125,0.5205078125,-27.80487804878049,60.79268292682927,-78.35365853658537,140,4
226,-0.25537109375,-1.4296875,0.505859375,-20.182926829268293,59.93902439024391,-55.79268292682927,140,4
227,-0.45166015625,-1.5673828125,0.4287109375,-12.256097560975611,56.951219512195124,-33.04878048780488,140,4
228,-0.53369140625,-1.74609375,0.3515625,-0.426829268292683,53.17073170731708,-11.646341463414634,140,4
229,-0.61572265625,-1.81982421875,0.2509765625,11.646341463414634,50.60975609756098,7.682926829268293,140,4
230,-0.60791015625,-1.81494140625,0.40966796875,20.243902439024392,50.304878048780495,27.865853658536587,140,4
231,-0.57666015625,-1.83203125,0.423828125,24.26829268292683,49.451219512195124,44.75609756097561,140,4
232,-0.55078125,-1.85546875,0.4609375,29.634146341463417,48.90243902439025,62.13414634146342,140,4
233,-0.4892578125,-1.89697265625,0.42041015625,34.51219512195122,46.89024390243903,81.46341463414635,140,4
234,-0.38037109375,-1.96484375,0.32763671875,39.69512195121951,45.85365853658537,103.04878048780489,140,4
235,-0.2509765625,-2.04345703125,0.25244140625,31.707317073170735,45.487804878048784,110.3658536585366,140,4
236,-0.23681640625,-2.0087890625,0.20849609375,58.04878048780488,43.71951219512196,150.91463414634148,140,4
237,0.0185546875,-2.24462890625,0.10302734375,70.60975609756098,42.804878048780495,177.6829268292683,140,4
238,0.18701171875,-2.30126953125,0.06787109375,78.90243902439025,44.87804878048781,187.9268292682927,140,4
239,0.35546875,-2.423828125,0.11083984375,89.57317073170732,42.07317073170732,219.57317073170734,140,4
240,0.47216796875,-2.6162109375,-0.0751953125,102.01219512195122,41.646341463414636,251.40243902439028,140,4
241,0.619140625,-2.69677734375,-0.1181640625,106.58536585365854,41.768292682926834,281.219512195122,140,4
242,0.7939453125,-2.8076171875,-0.12744140625,114.39024390243904,38.84146341463415,335.2439024390244,140,4
243,0.978515625,-2.9736328125,-0.34716796875,120.67073170731709,34.87804878048781,374.39024390243907,140,4
244,1.12646484375,-3.15576171875,-0.38671875,133.109756097561,32.01219512195122,419.0853658536586,140,4
245,1.5693359375,-3.4951171875,-0.6884765625,151.46341463414635,23.29268292682927,467.68292682926835,140,4
246,1.91064453125,-3.791015625,-0.96923828125,181.82926829268294,13.231707317073171,507.50000000000006,140,4
247,2.58837890625,-4.0146484375,-1.216796875,205.4878048780488,1.1585365853658538,540.3658536585366,140,4
248,3.373046875,-4.05078125,-1.44287109375,264.45121951219517,-0.12195121951219513,570.1219512195122,140,4
249,4.08642578125,-4.041015625,-1.56201171875,323.4146341463415,-35.36585365853659,596.1585365853659,140,4
250,4.90966796875,-4.14111328125,-1.70849609375,360.5487804878049,-37.01219512195122,609.0243902439025,140,4
251,5.74755859375,-4.14208984375,-1.7470703125,425.18292682926835,-12.682926829268293,624.8170731707318,140,4
252,6.6064453125,-4.09765625,-1.99658203125,437.25609756097566,13.231707317073171,663.1707317073171,140,4
253,7.451171875,-3.91552734375,-2.552734375,492.50000000000006,17.743902439024392,689.5121951219513,140,4
254,8.36865234375,-3.67919921875,-3.40283203125,513.3536585365854,59.39024390243903,746.5853658536586,140,4
255,9.24853515625,-3.33056640625,-4.16162109375,514.2682926829269,106.64634146341464,789.7560975609757,140,4
256,10.43701171875,-2.35888671875,-4.6748046875,513.2317073170732,146.58536585365854,814.0853658536586,140,4
257,10.9248046875,-1.234375,-5.27294921875,508.04878048780495,146.21951219512195,879.8170731707318,140,4
258,11.0966796875,-0.376953125,-5.904296875,541.3414634146342,114.32926829268294,911.7682926829269,140,4
259,11.1064453125,-0.0849609375,-6.73583984375,590.9756097560976,87.31707317073172,935.3048780487806,140,4
260,11.11669921875,0.77490234375,-7.2880859375,668.4756097560976,46.646341463414636,915.6097560975611,140,4
261,10.2587890625,0.861328125,-7.98388671875,793.4146341463415,-73.59756097560977,878.3536585365854,140,4
262,9.0341796875,-1.15478515625,-8.2236328125,1024.878048780488,-163.90243902439025,836.8902439024391,140,4
263,7.4580078125,-2.31201171875,-8.39599609375,1272.3170731707319,-288.4756097560976,717.439024390244,140,4
264,6.818359375,-3.0830078125,-9.4599609375,1473.2317073170732,-435.7926829268293,548.4756097560976,140,4
265,6.87841796875,-3.041015625,-13.0009765625,1600.9146341463415,-513.5975609756098,450.18292682926835,140,4
266,9.587890625,-9.6533203125,-9.47900390625,1105.1829268292684,-9.51219512195122,354.63414634146346,140,4
267,0.2880859375,6.22314453125,-10.3984375,219.75609756097563,80.54878048780489,-1085.2439024390244,140,4
268,15.9921875,15.9765625,-3.5029296875,1387.1951219512196,-86.89024390243904,-102.19512195121952,140,4
269,13.35400390625,-3.05615234375,-2.353515625,1419.5121951219514,-69.75609756097562,-105.85365853658537,140,4
270,5.43701171875,7.6259765625,0.5908203125,1139.878048780488,8.109756097560977,-363.2926829268293,140,4
271,2.14697265625,-1.9853515625,-4.0380859375,871.5853658536586,164.32926829268294,-350.3048780487805,140,4
272,4.708984375,2.29052734375,-1.3466796875,852.0121951219513,154.32926829268294,-355.1829268292683,140,4
273,4.5498046875,-0.5283203125,-1.86474609375,879.2073170731708,73.96341463414635,-409.39024390243907,140,4
274,5.47509765625,-1.04052734375,-2.36865234375,677.0731707317074,52.6219512195122,-535.6707317073171,140,4
275,3.9892578125,-2.99169921875,-2.6513671875,561.4024390243903,28.53658536585366,-631.6463414634147,140,4
276,3.05908203125,-2.953125,-2.9716796875,438.9634146341464,85.60975609756099,-632.0121951219513,140,4
277,2.27490234375,-2.94189453125,-2.955078125,385.609756097561,107.6829268292683,-631.4634146341464,140,4
278,1.71728515625,-2.7890625,-2.3974609375,322.43902439024396,138.47560975609758,-663.5365853658537,140,4
279,1.625,-1.8134765625,-1.70703125,293.4146341463415,173.84146341463415,-672.7439024390244,140,4
280,1.93994140625,-1.17578125,-1.26416015625,246.70731707317074,210.3048780487805,-697.9268292682927,140,4
281,2.46435546875,-0.7373046875,-1.32080078125,183.41463414634148,245.30487804878052,-706.7682926829269,140,4
282,2.99462890625,-0.2060546875,-1.185546875,109.81707317073172,263.4146341463415,-681.219512195122,140,4
283,2.6513671875,-0.9140625,-1.17333984375,49.451219512195124,274.9390243902439,-673.048780487805,140,4
284,2.5224609375,-1.1748046875,-1.16259765625,-10.792682926829269,284.8780487804878,-664.3902439024391,140,4
285,2.4990234375,-1.14453125,-1.173828125,-49.146341463414636,293.9634146341464,-632.0121951219513,140,4
286,2.08203125,-1.23486328125,-1.0693359375,-123.47560975609757,309.0853658536586,-607.5,140,4
287,1.732421875,-1.23193359375,-0.939453125,-158.90243902439025,307.01219512195127,-551.7682926829269,140,4
288,1.39501953125,-1.22509765625,-0.88818359375,-201.64634146341464,306.4634146341464,-515.8536585365854,140,4
289,1.00390625,-1.12255859375,-0.84765625,-207.19512195121953,310.2439024390244,-487.74390243902445,140,4
290,0.85400390625,-0.94384765625,-0.79248046875,-213.41463414634148,317.37804878048786,-470.609756097561,140,4
291,0.91650390625,-0.75732421875,-0.583984375,-222.9268292682927,333.2317073170732,-455.24390243902445,140,4
292,1.01904296875,-0.74853515625,-0.4072265625,-241.15853658536588,348.7804878048781,-438.2926829268293,140,4
293,1.09814453125,-0.46142578125,-0.6826171875,-254.87804878048783,358.2317073170732,-418.719512195122,140,4
294,1.23193359375,-0.2138671875,-1.18115234375,-251.09756097560978,324.57317073170736,-392.8658536585366,140,4
295,1.30517578125,-0.0302734375,-1.5,-250.7926829268293,327.19512195121956,-365.2439024390244,140,4
296,1.265625,-0.06494140625,-1.70849609375,-260.9756097560976,300.9756097560976,-344.39024390243907,140,4
297,1.21533203125,-0.05810546875,-1.54833984375,-252.31707317073173,303.7804878048781,-329.0853658536586,140,4
298,0.85791015625,-0.24169921875,-1.2392578125,-247.13414634146343,306.4634146341464,-317.5,140,4
299,0.72607421875,-0.36376953125,-1.00244140625,-254.51219512195124,300.9756097560976,-305.3658536585366,140,4
300,0.474609375,-0.38720703125,-1.14111328125,-250.00000000000003,295.1219512195122,-289.1463414634147,140,4
301,0.34521484375,-0.19580078125,-1.16650390625,-280.6707317073171,276.0975609756098,-267.3780487804878,140,4
302,0.216796875,-0.14892578125,-1.23828125,-251.64634146341464,263.719512195122,-240.06097560975613,140,4
303,0.12939453125,0.04150390625,-1.19140625,-249.20731707317074,224.51219512195124,-220.7317073170732,140,4
304,0.0009765625,-0.11279296875,-1.052734375,-244.26829268292684,209.93902439024393,-206.40243902439028,140,4
305,-0.18310546875,-0.20166015625,-0.93798828125,-257.7439024390244,198.65853658536588,-194.51219512195124,140,4
306,-0.28173828125,-0.2333984375,-0.90234375,-259.39024390243907,193.65853658536588,-185.4268292682927,140,4
307,-0.4169921875,-0.3154296875,-0.79833984375,-260.6707317073171,186.64634146341464,-177.5609756097561,140,4
308,-0.60009765625,-0.3232421875,-0.83349609375,-267.25609756097566,176.09756097560978,-166.76829268292684,140,4
309,-0.62939453125,-0.40380859375,-0.9287109375,-264.39024390243907,162.01219512195124,-156.58536585365854,140,4
310,-0.57275390625,-0.3603515625,-0.9296875,-254.93902439024393,151.46341463414635,-143.78048780487805,140,4
311,-0.57080078125,-0.36279296875,-0.75537109375,-235.6707317073171,138.96341463414635,-139.63414634146343,140,4
312,-0.68310546875,-0.498046875,-0.60400390625,-208.84146341463418,109.02439024390245,-102.31707317073172,140,4
313,-0.85791015625,-0.51611328125,-0.56982421875,-207.9878048780488,132.37804878048783,-95.3658536585366,140,4
314,-0.87890625,-0.4072265625,-0.53515625,-207.19512195121953,126.09756097560977,-88.23170731707317,140,4
315,-0.90771484375,-0.28076171875,-0.60888671875,-195.06097560975613,117.37804878048782,-83.65853658536587,140,4
316,-0.8671875,-0.23779296875,-0.6494140625,-177.9268292682927,101.34146341463415,-93.47560975609757,140,4
317,-0.7783203125,-0.17333984375,-0.61962890625,-168.41463414634148,91.95121951219512,-69.63414634146342,140,4
318,-0.84130859375,-0.21875,-0.59619140625,-156.21951219512198,78.65853658536587,-59.81707317073171,140,4
319,-0.931640625,-0.3486328125,-0.75048828125,-175.85365853658539,68.04878048780489,-49.51219512195122,140,4
320,-0.990234375,-0.361328125,-0.78662109375,-168.109756097561,57.987804878048784,-40.1829268292683,140,4
321,-1.04150390625,-0.4951171875,-0.71923828125,-157.8658536585366,44.69512195121952,-26.34146341463415,140,4
322,-1.00634765625,-0.56884765625,-0.6787109375,-142.01219512195124,32.43902439024391,-21.28048780487805,140,4
323,-1.19677734375,-0.48779296875,-0.5595703125,-127.8048780487805,26.402439024390247,-16.82926829268293,140,4
324,-1.248046875,-0.4638671875,-0.50341796875,-116.46341463414635,31.03658536585366,-12.987804878048781,140,4
325,-1.2265625,-0.4228515625,-0.51123046875,-103.47560975609757,9.573170731707318,-8.658536585365855,140,4
326,-1.189453125,-0.3681640625,-0.46435546875,-91.64634146341464,3.414634146341464,-2.1341463414634148,140,4
327,-1.1572265625,-0.3583984375,-0.419921875,-84.87804878048782,-2.8658536585365857,5.2439024390243905,140,4
328,-1.169921875,-0.375,-0.44140625,-78.59756097560977,-8.109756097560977,13.902439024390246,140,4
329,-1.20361328125,-0.42529296875,-0.46533203125,-70.60975609756098,-14.634146341463415,22.5609756097561,140,4
330,-1.22216796875,-0.48095703125,-0.5224609375,-57.6829268292683,-22.378048780487806,28.10975609756098,140,4
331,-1.203125,-0.43994140625,-0.4755859375,-38.78048780487805,-27.621951219512198,32.25609756097561,140,4
332,-1.18701171875,-0.416015625,-0.3779296875,-27.926829268292686,-34.390243902439025,36.463414634146346,140,4
333,-1.16943359375,-0.3642578125,-0.33349609375,-16.646341463414636,-37.31707317073171,40.85365853658537,140,4
334,-1.14306640625,-0.302734375,-0.310546875,-9.329268292682928,-40.97560975609756,42.25609756097561,140,4
335,-1.1240234375,-0.23486328125,-0.3134765625,-2.1951219512195124,-45.426829268292686,43.35365853658537,140,4
336,-1.09130859375,-0.177734375,-0.2841796875,5.853658536585367,-48.78048780487805,44.69512195121952,140,4
337,-1.07275390625,-0.162109375,-0.20263671875,12.439024390243903,-52.86585365853659,48.10975609756098,140,4
338,-1.06640625,-0.1796875,-0.22314453125,17.073170731707318,-55.97560975609757,48.78048780487805,140,4
339,-1.0732421875,-0.14990234375,-0.1982421875,23.231707317073173,-59.81707317073171,49.268292682926834,140,4
340,-1.0693359375,-0.16748046875,-0.19482421875,26.58536585365854,-65.2439024390244,50.00000000000001,140,4
341,-1.0634765625,-0.158203125,-0.18505859375,15.731707317073171,-68.96341463414635,50.426829268292686,140,4
342,-1.03515625,-0.14794921875,-0.10791015625,34.268292682926834,-71.46341463414635,51.28048780487806,140,4
343,-1.01318359375,-0.13623046875,-0.0458984375,34.87804878048781,-73.47560975609757,52.6829268292683,140,4
344,-1.0048828125,-0.111328125,-0.02197265625,34.75609756097561,-76.46341463414635,52.86585365853659,140,4
345,-1.01611328125,-0.07373046875,-0.00341796875,34.51219512195122,-80.73170731707317,52.19512195121952,140,4
346,-0.87646484375,-0.0361328125,-0.02587890625,40.0,-88.59756097560977,51.707317073170735,140,4
347,-0.99755859375,-0.01806640625,-0.0205078125,31.280487804878053,-94.87804878048782,50.670731707317074,140,4
348,-0.9912109375,0.005859375,0.0185546875,53.84146341463415,-102.7439024390244,50.304878048780495,140,4
349,-0.96484375,0.00732421875,0.04931640625,58.59756097560976,-94.02439024390245,50.304878048780495,140,4
350,-0.91796875,0.0244140625,0.06689453125,61.463414634146346,-116.52439024390245,51.40243902439025,140,4
351,-0.9091796875,0.01953125,0.07861328125,58.35365853658537,-122.31707317073172,50.97560975609756,140,4
352,-0.9091796875,0.11962890625,0.06494140625,55.97560975609757,-126.46341463414635,48.170731707317074,140,4
353,-0.9501953125,-0.0400390625,0.1435546875,57.07317073170732,-131.52439024390245,46.463414634146346,140,4
354,-0.9677734375,-0.04833984375,0.1669921875,58.35365853658537,-136.03658536585368,44.81707317073171,140,4
355,-0.94287109375,-0.01513671875,0.21044921875,47.13414634146342,-139.26829268292684,43.84146341463415,140,4
356,-0.916015625,0.01220703125,0.248046875,71.64634146341464,-143.1707317073171,43.71951219512196,140,4
357,-0.88427734375,0.06298828125,0.2197265625,82.92682926829269,-147.4390243902439,43.170731707317074,140,4
358,-0.86376953125,0.146484375,0.21533203125,93.47560975609757,-152.31707317073173,43.170731707317074,140,4
359,-0.861328125,0.21630859375,0.21484375,101.03658536585367,-154.20731707317074,43.71951219512196,140,4
360,-0.86328125,0.240234375,0.2265625,98.59756097560977,-150.97560975609758,43.23170731707317,140,4
361,-0.8388671875,0.3017578125,0.26220703125,95.79268292682927,-148.1707317073171,44.93902439024391,140,4
362,-0.8212890625,0.33154296875,0.3037109375,92.31707317073172,-145.1219512195122,47.86585365853659,140,4
363,-0.7802734375,0.345703125,0.3388671875,89.45121951219512,-143.84146341463415,50.426829268292686,140,4
364,-0.75146484375,0.349609375,0.25634765625,90.1219512195122,-143.47560975609758,51.951219512195124,140,4
365,-0.744140625,0.310546875,0.40185546875,92.31707317073172,-143.65853658536588,52.43902439024391,140,4
366,-0.724609375,0.3037109375,0.412109375,95.42682926829269,-143.90243902439025,51.585365853658544,140,4
367,-0.71044921875,0.32470703125,0.47900390625,99.45121951219512,-142.9268292682927,50.426829268292686,140,4
368,-0.68603515625,0.35595703125,0.5322265625,99.69512195121952,-140.6707317073171,50.1829268292683,140,4
369,-0.6611328125,0.3857421875,0.5654296875,99.32926829268294,-139.14634146341464,49.57317073170732,140,4
370,-0.63671875,0.38671875,0.58447265625,97.37804878048782,-135.0609756097561,48.84146341463415,140,4
371,-0.62646484375,0.3935546875,0.6064453125,96.03658536585367,-131.40243902439025,48.35365853658537,140,4
372,-0.60498046875,0.39404296875,0.623046875,94.26829268292684,-128.1707317073171,48.47560975609756,140,4
373,-0.5830078125,0.42431640625,0.6279296875,89.08536585365854,-124.51219512195124,47.804878048780495,140,4
374,-0.54052734375,0.46337890625,0.6337890625,84.02439024390245,-121.46341463414635,47.926829268292686,140,4
375,-0.5166015625,0.47216796875,0.640625,78.35365853658537,-118.47560975609757,47.43902439024391,140,4
376,-0.5029296875,0.46875,0.6396484375,76.46341463414635,-118.53658536585367,47.743902439024396,140,4
377,-0.5068359375,0.427734375,0.64599609375,80.85365853658537,-121.28048780487806,49.451219512195124,140,4
378,-0.5322265625,0.36181640625,0.68017578125,85.42682926829269,-120.91463414634147,48.65853658536586,140,4
379,-0.51953125,0.3623046875,0.69287109375,92.07317073170732,-120.1829268292683,48.35365853658537,140,4
380,-0.48974609375,0.37158203125,0.708984375,95.97560975609757,-117.07317073170732,47.25609756097561,140,4
381,-0.4287109375,0.42333984375,0.71142578125,90.1219512195122,-111.89024390243904,46.40243902439025,140,4
382,-0.376953125,0.44580078125,0.69775390625,82.19512195121952,-108.17073170731709,46.82926829268293,140,4
383,-0.38134765625,0.43408203125,0.68798828125,75.73170731707317,-104.20731707317074,46.28048780487805,140,4
384,-0.3642578125,0.44921875,0.677734375,73.71951219512195,-102.92682926829269,46.03658536585366,140,4
385,-0.34912109375,0.46875,0.69384765625,74.57317073170732,-104.08536585365854,46.34146341463415,140,4
386,-0.33056640625,0.4365234375,0.69677734375,76.76829268292684,-105.85365853658537,46.82926829268293,140,4
387,-0.3525390625,0.423828125,0.7265625,79.02439024390245,-104.87804878048782,46.09756097560976,140,4
388,-0.35107421875,0.43505859375,0.73095703125,82.50000000000001,-105.1219512195122,46.28048780487805,140,4
389,-0.3369140625,0.43994140625,0.724609375,84.57317073170732,-104.26829268292684,46.58536585365854,140,4
390,-0.3125,0.48046875,0.7099609375,83.41463414634147,-103.47560975609757,46.28048780487805,140,4
391,-0.296875,0.49365234375,0.6865234375,80.0,-101.28048780487806,45.91463414634147,140,4
392,-0.27392578125,0.5244140625,0.67822265625,73.59756097560977,-98.96341463414635,45.79268292682927,140,4
393,-0.25341796875,0.56298828125,0.66015625,67.98780487804879,-96.46341463414635,46.21951219512196,140,4
394,-0.23193359375,0.580078125,0.6689453125,65.42682926829269,-95.97560975609757,31.219512195121954,140,4
395,-0.21728515625,0.56591796875,0.67333984375,64.32926829268293,-96.34146341463415,46.463414634146346,140,4
396,-0.21630859375,0.54345703125,0.669921875,65.1219512195122,-95.91463414634147,45.79268292682927,140,4
397,-0.21630859375,0.5380859375,0.66943359375,67.92682926829269,-96.21951219512196,45.304878048780495,140,4
398,-0.203125,0.5478515625,0.6728515625,69.81707317073172,-95.48780487804879,44.63414634146342,140,4
399,-0.20654296875,0.56005859375,0.66455078125,68.84146341463415,-94.02439024390245,44.57317073170732,140,4
400,-0.19580078125,0.5849609375,0.6416015625,65.85365853658537,-92.50000000000001,44.51219512195122,140,4
401,-0.1875,0.58544921875,0.6201171875,77.8048780487805,-90.85365853658537,44.81707317073171,140,4
402,-0.18115234375,0.58740234375,0.61865234375,59.39024390243903,-89.75609756097562,45.243902439024396,140,4
403,-0.17236328125,0.5888671875,0.509765625,57.804878048780495,-88.65853658536587,45.36585365853659,140,4
404,-0.162109375,0.59716796875,0.6435546875,55.54878048780488,-86.76829268292684,46.524390243902445,140,4
405,-0.1435546875,0.6103515625,0.6376953125,54.87804878048781,-85.73170731707317,46.40243902439025,140,4
406,-0.14208984375,0.62939453125,0.640625,54.87804878048781,-86.09756097560977,48.04878048780488,140,4
407,-0.1337890625,0.63525390625,0.7412109375,55.365853658536594,-86.58536585365854,48.84146341463415,140,4
408,-0.1376953125,0.64013671875,0.59716796875,54.87804878048781,-89.08536585365854,50.00000000000001,140,4
409,-0.14892578125,0.6201171875,0.576171875,55.73170731707317,-90.00000000000001,50.426829268292686,140,4
410,-0.12841796875,0.626953125,0.58740234375,55.91463414634147,-90.3048780487805,50.00000000000001,140,4
411,-0.1044921875,0.65478515625,0.6103515625,55.73170731707317,-89.51219512195122,51.34146341463415,140,4
412,-0.10986328125,0.6494140625,0.6201171875,50.97560975609756,-86.28048780487805,53.29268292682927,140,4
413,-0.1025390625,0.6572265625,0.6455078125,46.463414634146346,-81.82926829268294,54.39024390243903,140,4
414,-0.06640625,0.67919921875,0.65869140625,45.54878048780488,-79.69512195121952,55.1219512195122,140,4
415,-0.0419921875,0.71337890625,0.65478515625,48.29268292682927,-79.20731707317074,54.63414634146342,140,4
416,-0.037109375,0.7080078125,0.59130859375,48.963414634146346,-79.69512195121952,53.71951219512196,140,4
417,-0.01025390625,0.74560546875,0.5439453125,50.73170731707317,-80.79268292682927,54.207317073170735,140,4
418,-0.0205078125,0.7099609375,0.556640625,50.243902439024396,-80.79268292682927,53.84146341463415,140,4
419,-0.0107421875,0.72021484375,0.55419921875,47.31707317073171,-81.28048780487805,54.024390243902445,140,4
420,-0.0146484375,0.7021484375,0.56201171875,45.36585365853659,-82.6219512195122,53.84146341463415,140,4
421,-0.013671875,0.7373046875,0.58056640625,42.86585365853659,-83.35365853658537,51.646341463414636,140,4
422,0.0205078125,0.77685546875,0.55908203125,42.50000000000001,-83.59756097560977,50.54878048780488,140,4
423,0.03662109375,0.734375,0.6181640625,41.707317073170735,-82.25609756097562,50.0609756097561,140,4
424,0.0810546875,0.73095703125,0.64990234375,41.524390243902445,-80.1219512195122,50.00000000000001,140,4
425,0.087890625,0.69287109375,0.669921875,41.15853658536586,-77.6219512195122,50.487804878048784,140,4
426,0.0751953125,0.685546875,0.6484375,43.59756097560976,-75.91463414634147,50.1829268292683,140,4
427,0.087890625,0.7138671875,0.60400390625,48.59756097560976,-76.28048780487805,49.75609756097561,140,4
428,0.10302734375,0.724609375,0.5673828125,50.243902439024396,-76.46341463414635,50.0609756097561,140,4
429,0.0986328125,0.71142578125,0.53857421875,47.86585365853659,-76.34146341463415,50.36585365853659,140,4
430,0.11376953125,0.744140625,0.513671875,44.81707317073171,-76.03658536585367,50.670731707317074,140,4
431,0.13623046875,0.74169921875,0.53271484375,42.31707317073171,-76.82926829268294,51.28048780487806,140,4
432,0.150390625,0.7470703125,0.5283203125,41.890243902439025,-79.26829268292684,51.89024390243903,140,4
433,0.15185546875,0.72314453125,0.5322265625,41.463414634146346,-80.79268292682927,51.89024390243903,140,4
434,0.14404296875,0.71240234375,0.5654296875,40.1829268292683,-80.60975609756099,51.463414634146346,140,4
435,0.1494140625,0.72607421875,0.59814453125,38.47560975609756,-79.57317073170732,51.15853658536586,140,4
436,0.15380859375,0.744140625,0.6103515625,37.07317073170732,-77.13414634146342,51.03658536585366,140,4
437,0.154296875,0.87109375,0.59814453125,35.487804878048784,-74.75609756097562,50.36585365853659,140,4
438,0.17919921875,0.7666015625,0.53466796875,36.707317073170735,-74.32926829268294,50.0609756097561,140,4
439,0.17626953125,0.74169921875,0.46435546875,38.90243902439025,-73.78048780487805,49.268292682926834,140,4
440,0.21337890625,0.7294921875,0.41796875,41.463414634146346,-73.53658536585367,49.69512195121952,140,4
441,0.22998046875,0.7109375,0.3935546875,44.451219512195124,-73.65853658536587,50.0609756097561,140,4
442,0.23583984375,0.70458984375,0.38916015625,46.28048780487805,-72.98780487804879,49.93902439024391,140,4
443,0.24267578125,0.7021484375,0.4189453125,43.963414634146346,-70.91463414634147,49.39024390243903,140,4
444,0.2568359375,0.72900390625,0.44287109375,43.963414634146346,-69.45121951219512,49.81707317073171,140,4
445,0.26513671875,0.62890625,0.4794921875,43.04878048780488,-67.6829268292683,49.146341463414636,140,4
446,0.27490234375,0.7744140625,0.51953125,42.01219512195122,-66.21951219512195,49.268292682926834,140,4
447,0.26416015625,0.76611328125,0.5302734375,42.37804878048781,-65.67073170731707,49.57317073170732,140,4
448,0.25146484375,0.7783203125,0.52099609375,43.04878048780488,-65.0,49.207317073170735,140,4
449,0.26904296875,0.76171875,0.478515625,44.207317073170735,-65.0,48.59756097560976,140,4
450,0.27783203125,0.73779296875,0.42333984375,44.87804878048781,-64.87804878048782,47.31707317073171,140,4
451,0.29248046875,0.7265625,0.38623046875,44.268292682926834,-64.81707317073172,45.97560975609756,140,4
452,0.30859375,0.6259765625,0.39697265625,42.5609756097561,-63.78048780487806,45.00000000000001,140,4
453,0.32666015625,0.7509765625,0.416015625,39.08536585365854,-61.95121951219513,44.32926829268293,140,4
454,0.33056640625,0.77294921875,0.4384765625,35.54878048780488,-59.024390243902445,43.84146341463415,140,4
455,0.31689453125,0.77197265625,0.466796875,31.707317073170735,-55.91463414634147,43.59756097560976,140,4
456,0.333984375,0.8125,0.4677734375,30.0609756097561,-53.71951219512196,42.86585365853659,140,4
457,0.3330078125,0.80712890625,0.4658203125,29.634146341463417,-51.585365853658544,41.58536585365854,140,4
458,0.3369140625,0.81201171875,0.447265625,29.695121951219516,-50.60975609756098,39.57317073170732,140,4
459,0.34521484375,0.81005859375,0.44482421875,29.695121951219516,-48.53658536585366,37.13414634146342,140,4
460,0.3408203125,0.822265625,0.42431640625,29.939024390243905,-47.804878048780495,36.707317073170735,140,4
461,0.3251953125,0.8115234375,0.3955078125,28.414634146341466,-46.28048780487805,36.09756097560976,140,4
462,0.30908203125,0.81640625,0.38671875,25.60975609756098,-44.51219512195122,34.75609756097561,140,4
463,0.3212890625,0.830078125,0.39697265625,25.48780487804878,-43.41463414634147,33.29268292682927,140,4
464,0.35400390625,0.8583984375,0.41943359375,24.02439024390244,-41.21951219512196,30.792682926829272,140,4
465,0.25390625,0.88623046875,0.443359375,23.78048780487805,-39.08536585365854,28.53658536585366,140,4
466,0.37841796875,0.89697265625,0.45361328125,23.353658536585368,-36.34146341463415,25.914634146341466,140,4
467,0.4033203125,0.9091796875,0.45556640625,22.500000000000004,-33.29268292682927,22.5609756097561,140,4
468,0.3955078125,0.9013671875,0.45703125,20.853658536585368,-29.75609756097561,19.085365853658537,140,4
469,0.38623046875,0.890625,0.42529296875,18.84146341463415,-27.378048780487806,15.731707317073171,140,4
470,0.3876953125,0.8955078125,0.39892578125,16.097560975609756,-24.207317073170735,11.76829268292683,140,4
471,0.36767578125,0.88330078125,0.37939453125,13.841463414634148,-22.500000000000004,9.390243902439025,140,4
472,0.3671875,0.8955078125,0.25146484375,12.134146341463415,-20.975609756097562,7.682926829268293,140,4
473,0.3642578125,0.8681640625,0.39208984375,8.170731707317074,-18.29268292682927,5.609756097560976,140,4
474,0.35986328125,0.845703125,0.4052734375,6.463414634146342,-15.243902439024392,3.8414634146341466,140,4
475,0.3447265625,0.833984375,0.408203125,5.182926829268293,-12.073170731707318,1.707317073170732,140,4
476,0.3408203125,0.8193359375,0.396484375,3.963414634146342,-8.902439024390244,-0.3658536585365854,140,4
477,0.3349609375,0.8330078125,0.34228515625,3.8414634146341466,-6.707317073170732,-2.6219512195121952,140,4
478,0.33447265625,0.8408203125,0.31494140625,3.9024390243902443,-5.121951219512195,-5.0,140,4
479,0.32568359375,0.81591796875,0.2509765625,4.573170731707317,-3.7195121951219514,-7.25609756097561,140,4
480,0.33203125,0.7958984375,0.22509765625,6.2804878048780495,-3.5975609756097566,-9.207317073170733,140,4
481,0.33984375,0.78369140625,0.18603515625,6.646341463414635,-3.780487804878049,-11.28048780487805,140,4
482,0.35107421875,0.7734375,0.1962890625,5.7926829268292686,-3.536585365853659,-12.439024390243903,140,4
483,0.3564453125,0.6259765625,0.22509765625,0.6707317073170732,-1.5853658536585367,-13.353658536585368,140,4
484,0.380859375,0.7392578125,0.23583984375,-5.0,-0.30487804878048785,-14.329268292682928,140,4
485,0.37158203125,0.68896484375,0.2705078125,-8.292682926829269,1.2195121951219514,-14.634146341463415,140,4
486,0.36669921875,0.67822265625,0.29443359375,-8.78048780487805,1.9512195121951221,-15.426829268292684,140,4
487,0.3583984375,0.62890625,0.2978515625,-8.536585365853659,3.1707317073170733,-16.52439024390244,140,4
488,0.3564453125,0.607421875,0.279296875,-7.25609756097561,2.804878048780488,-16.951219512195124,140,4
489,0.36376953125,0.5849609375,0.2412109375,-5.548780487804878,2.073170731707317,-17.25609756097561,140,4
490,0.3583984375,0.583984375,0.2431640625,-4.817073170731708,1.7682926829268295,-16.890243902439025,140,4
491,0.36865234375,0.5791015625,0.2236328125,-4.573170731707317,1.8902439024390245,-16.34146341463415,140,4
492,0.38037109375,0.57958984375,0.2236328125,-5.914634146341464,2.25609756097561,-15.182926829268293,140,4
493,0.3701171875,0.55908203125,0.20654296875,-8.841463414634147,3.2926829268292686,-14.085365853658537,140,4
494,0.359375,0.5517578125,0.20166015625,-11.402439024390246,3.2926829268292686,-12.865853658536587,140,4
495,0.3525390625,0.5498046875,0.19384765625,-12.74390243902439,3.536585365853659,-11.646341463414634,140,4
496,0.3564453125,0.5556640625,0.2119140625,-13.658536585365855,3.2926829268292686,-10.121951219512196,140,4
497,0.3525390625,0.5576171875,0.21533203125,-14.634146341463415,3.1707317073170733,-8.414634146341465,140,4
498,0.3369140625,0.56103515625,0.2265625,-15.487804878048783,3.8414634146341466,-7.134146341463415,140,4
499,0.3291015625,0.55810546875,0.22021484375,-31.219512195121954,4.390243902439025,-5.7926829268292686,140,4
