,Ax,Ay,Az,Gx,Gy,Gz,distance,shot_type
0,0.61083984375,-0.6611328125,-0.3505859375,22.500000000000004,6.036585365853659,0.1829268292682927,90,6
1,0.58935546875,-0.6591796875,-0.34130859375,28.475609756097562,2.804878048780488,2.0121951219512195,90,6
2,0.560546875,-0.6884765625,-0.36328125,32.86585365853659,0.24390243902439027,4.634146341463415,90,6
3,0.54541015625,-0.6953125,-0.3798828125,35.243902439024396,-1.402439024390244,8.048780487804878,90,6
4,0.5673828125,-0.6796875,-0.41552734375,33.90243902439025,-0.1829268292682927,11.402439024390246,90,6
5,0.578125,-0.626953125,-0.435546875,28.353658536585368,3.4756097560975614,13.658536585365855,90,6
6,0.61279296875,-0.5888671875,-0.45849609375,21.463414634146343,7.621951219512196,0.0,90,6
7,0.6123046875,-0.6044921875,-0.46630859375,14.634146341463415,9.207317073170733,17.073170731707318,90,6
8,0.60693359375,-0.58251953125,-0.47265625,16.402439024390244,10.487804878048781,18.475609756097562,90,6
9,0.57568359375,-0.67626953125,-0.46630859375,8.353658536585366,14.02439024390244,20.121951219512198,90,6
10,0.611328125,-0.578125,-0.62255859375,5.365853658536586,14.02439024390244,19.512195121951223,90,6
11,0.58447265625,-0.58447265625,-0.490234375,3.1707317073170733,13.475609756097562,19.75609756097561,90,6
12,0.583984375,-0.57177734375,-0.46533203125,2.25609756097561,12.317073170731708,17.743902439024392,90,6
13,0.74951171875,-0.51025390625,-0.419921875,1.402439024390244,12.378048780487806,16.28048780487805,90,6
14,0.61865234375,-0.4921875,-0.38623046875,-2.378048780487805,13.78048780487805,14.390243902439027,90,6
15,0.59814453125,-0.47216796875,-0.345703125,-4.939024390243903,14.390243902439027,11.463414634146343,90,6
16,0.5966796875,-0.4775390625,-0.31591796875,-5.0,13.414634146341465,9.817073170731708,90,6
17,0.6015625,-0.47705078125,-0.31103515625,-3.2926829268292686,11.341463414634147,8.719512195121952,90,6
18,0.63525390625,-0.44287109375,-0.29833984375,-1.402439024390244,8.902439024390244,6.646341463414635,90,6
19,0.6669921875,-0.39404296875,-0.30078125,-0.7317073170731708,7.01219512195122,4.573170731707317,90,6
20,0.67236328125,-0.39892578125,-0.31201171875,-2.073170731707317,6.097560975609756,3.414634146341464,90,6
21,0.6796875,-0.40576171875,-0.306640625,-3.1707317073170733,5.182926829268293,1.9512195121951221,90,6
22,0.71044921875,-0.384765625,-0.31884765625,-3.780487804878049,5.2439024390243905,0.30487804878048785,90,6
23,0.7294921875,-0.380859375,-0.31787109375,-5.975609756097562,5.609756097560976,-0.24390243902439027,90,6
24,0.76953125,-0.3662109375,-0.31494140625,-8.292682926829269,7.01219512195122,-1.2804878048780488,90,6
25,0.783203125,-0.3828125,-0.30859375,-12.682926829268293,12.073170731707318,-0.853658536585366,90,6
26,0.87353515625,-0.431640625,-0.287109375,-19.085365853658537,17.5609756097561,-0.7926829268292683,90,6
27,0.73583984375,-0.44091796875,-0.296875,-23.414634146341466,22.25609756097561,-0.9146341463414634,90,6
28,0.73681640625,-0.43212890625,-0.2919921875,-26.52439024390244,26.158536585365855,-0.9756097560975611,90,6
29,0.73681640625,-0.4130859375,-0.2568359375,-27.378048780487806,29.75609756097561,-1.524390243902439,90,6
30,0.74560546875,-0.4150390625,-0.2275390625,-26.402439024390247,31.58536585365854,-2.5609756097560976,90,6
31,0.736328125,-0.421875,-0.21826171875,-21.646341463414636,30.54878048780488,-3.2926829268292686,90,6
32,0.72705078125,-0.458984375,-0.22021484375,-15.975609756097562,29.02439024390244,-3.2926829268292686,90,6
33,0.7314453125,-0.47021484375,-0.2158203125,-12.195121951219512,28.231707317073173,-3.231707317073171,90,6
34,0.7373046875,-0.4677734375,-0.2216796875,-10.731707317073171,28.59756097560976,-3.2926829268292686,90,6
35,0.72900390625,-0.4736328125,-0.2138671875,-9.634146341463415,28.04878048780488,-2.5609756097560976,90,6
36,0.70849609375,-0.52978515625,-0.2138671875,-8.658536585365855,27.682926829268297,-2.0121951219512195,90,6
37,0.70263671875,-0.57373046875,-0.20751953125,-7.865853658536586,28.170731707317074,-1.402439024390244,90,6
38,0.69091796875,-0.5830078125,-0.2353515625,-9.26829268292683,29.451219512195124,-0.6707317073170732,90,6
39,0.6826171875,-0.56201171875,-0.23876953125,-10.914634146341465,31.03658536585366,-0.5487804878048781,90,6
40,0.67431640625,-0.57421875,-0.21875,-12.74390243902439,32.80487804878049,-15.54878048780488,90,6
41,0.65185546875,-0.6044921875,-0.19970703125,-14.02439024390244,34.390243902439025,0.30487804878048785,90,6
42,0.6376953125,-0.6240234375,-0.2041015625,-14.207317073170733,35.426829268292686,0.3658536585365854,90,6
43,0.64453125,-0.6259765625,-0.22314453125,-13.109756097560977,34.32926829268293,0.6707317073170732,90,6
44,0.63671875,-0.62451171875,-0.2177734375,-10.060975609756099,32.86585365853659,1.0975609756097562,90,6
45,0.625,-0.62890625,-0.21484375,-7.01219512195122,31.58536585365854,2.073170731707317,90,6
46,0.6083984375,-0.6533203125,-0.216796875,-5.2439024390243905,31.463414634146343,2.378048780487805,90,6
47,0.60791015625,-0.64208984375,-0.2001953125,-3.4756097560975614,31.76829268292683,2.682926829268293,90,6
48,0.58544921875,-0.625,-0.18798828125,-1.2195121951219514,31.89024390243903,3.5975609756097566,90,6
49,0.55810546875,-0.501953125,-0.1630859375,1.2804878048780488,31.707317073170735,4.451219512195122,90,6
50,0.55810546875,-0.6279296875,-0.18896484375,3.4756097560975614,28.353658536585368,4.634146341463415,90,6
51,0.61083984375,-0.56103515625,-0.21923828125,7.743902439024391,26.09756097560976,5.548780487804878,90,6
52,0.64208984375,-0.5498046875,-0.228515625,7.439024390243903,26.463414634146343,6.829268292682928,90,6
53,0.65185546875,-0.5302734375,-0.23095703125,4.939024390243903,28.658536585365855,7.01219512195122,90,6
54,0.64453125,-0.5341796875,-0.2333984375,1.0365853658536586,31.707317073170735,6.7682926829268295,90,6
55,0.6884765625,-0.50927734375,-0.23828125,-1.2195121951219514,35.0,5.487804878048781,90,6
56,0.6962890625,-0.50146484375,-0.22509765625,-4.024390243902439,38.23170731707317,5.670731707317073,90,6
57,0.67431640625,-0.51806640625,-0.22509765625,-7.560975609756098,40.79268292682927,5.853658536585367,90,6
58,0.662109375,-0.54052734375,-0.224609375,-9.695121951219512,42.37804878048781,5.426829268292684,90,6
59,0.662109375,-0.53759765625,-0.205078125,-8.536585365853659,41.890243902439025,4.817073170731708,90,6
60,0.65966796875,-0.55615234375,-0.16552734375,-3.5975609756097566,38.963414634146346,5.2439024390243905,90,6
61,0.63427734375,-0.59521484375,-0.13623046875,2.8658536585365857,33.78048780487805,5.7926829268292686,90,6
62,0.63232421875,-0.6025390625,-0.130859375,11.036585365853659,28.231707317073173,6.036585365853659,90,6
63,0.6435546875,-0.587890625,-0.1591796875,18.597560975609756,22.743902439024392,6.2804878048780495,90,6
64,0.67138671875,-0.56884765625,-0.17236328125,22.378048780487806,18.658536585365855,6.707317073170732,90,6
65,0.708984375,-0.5439453125,-0.193359375,24.634146341463417,15.243902439024392,5.548780487804878,90,6
66,0.759765625,-0.48876953125,-0.2060546875,24.573170731707318,15.914634146341465,5.487804878048781,90,6
67,0.76123046875,-0.48291015625,-0.20751953125,18.902439024390244,19.451219512195124,4.146341463414634,90,6
68,0.73876953125,-0.49072265625,-0.2236328125,13.719512195121952,24.146341463414636,2.378048780487805,90,6
69,0.7265625,-0.50048828125,-0.2109375,8.292682926829269,28.292682926829272,1.1585365853658538,90,6
70,0.72509765625,-0.5068359375,-0.193359375,4.939024390243903,31.463414634146343,1.1585365853658538,90,6
71,0.689453125,-0.517578125,-0.17578125,2.804878048780488,33.53658536585366,1.1585365853658538,90,6
72,0.66845703125,-0.52001953125,-0.14404296875,3.1707317073170733,33.90243902439025,0.7317073170731708,90,6
73,0.66650390625,-0.51220703125,-0.00244140625,4.634146341463415,32.743902439024396,1.402439024390244,90,6
74,0.64892578125,-0.521484375,-0.1279296875,7.01219512195122,30.792682926829272,2.682926829268293,90,6
75,0.64453125,-0.52734375,-0.12109375,10.060975609756099,29.26829268292683,4.024390243902439,90,6
76,0.66357421875,-0.5146484375,-0.1240234375,13.04878048780488,27.439024390243905,4.634146341463415,90,6
77,0.7060546875,-0.4716796875,-0.12109375,14.756097560975611,26.646341463414636,4.390243902439025,90,6
78,0.73876953125,-0.44580078125,-0.009765625,15.365853658536587,26.52439024390244,3.658536585365854,90,6
79,0.74609375,-0.4375,-0.14794921875,13.597560975609758,27.25609756097561,2.5609756097560976,90,6
80,0.744140625,-0.44677734375,-0.1611328125,9.939024390243903,26.03658536585366,2.073170731707317,90,6
81,0.7509765625,-0.427734375,-0.22265625,6.219512195121951,25.731707317073173,1.2804878048780488,90,6
82,0.744140625,-0.44140625,-0.2431640625,2.6219512195121952,27.073170731707318,0.853658536585366,90,6
83,0.72998046875,-0.478515625,-0.24072265625,-0.6097560975609757,29.207317073170735,0.5487804878048781,90,6
84,0.71630859375,-0.48779296875,-0.2412109375,-4.207317073170732,30.243902439024392,15.54878048780488,90,6
85,0.6953125,-0.490234375,-0.26123046875,-6.341463414634147,30.914634146341466,-0.7317073170731708,90,6
86,0.67529296875,-0.62255859375,-0.3115234375,-7.317073170731708,30.731707317073173,-0.6707317073170732,90,6
87,0.67431640625,-0.49951171875,-0.28857421875,-8.658536585365855,32.13414634146342,-0.12195121951219513,90,6
88,0.68017578125,-0.50732421875,-0.2509765625,-12.256097560975611,36.463414634146346,0.853658536585366,90,6
89,0.64599609375,-0.55029296875,-0.20068359375,-20.30487804878049,43.23170731707317,1.4634146341463417,90,6
90,0.65771484375,-0.517578125,-0.212890625,-28.353658536585368,48.47560975609756,1.6463414634146343,90,6
91,0.65478515625,-0.49853515625,-0.23291015625,-34.390243902439025,53.17073170731708,2.378048780487805,90,6
92,0.66845703125,-0.4765625,-0.23828125,-42.50000000000001,56.82926829268293,2.8658536585365857,90,6
93,0.70068359375,-0.4609375,-0.248046875,-49.87804878048781,60.304878048780495,3.4756097560975614,90,6
94,0.70166015625,-0.4677734375,-0.22998046875,-54.085365853658544,62.31707317073171,2.682926829268293,90,6
95,0.7060546875,-0.37939453125,-0.19482421875,-54.39024390243903,62.804878048780495,2.987804878048781,90,6
96,0.68408203125,-0.56640625,-0.14794921875,-51.40243902439025,61.768292682926834,4.573170731707317,90,6
97,0.65478515625,-0.60888671875,-0.119140625,-44.93902439024391,59.268292682926834,6.341463414634147,90,6
98,0.615234375,-0.6611328125,-0.09228515625,-37.86585365853659,57.19512195121952,9.817073170731708,90,6
99,0.59375,-0.67333984375,-0.11181640625,-31.82926829268293,53.10975609756098,14.02439024390244,90,6
100,0.58740234375,-0.64794921875,-0.1240234375,-25.121951219512198,49.63414634146342,18.04878048780488,90,6
101,0.60205078125,-0.61474609375,-0.1630859375,-18.475609756097562,44.32926829268293,21.890243902439025,90,6
102,0.64404296875,-0.54443359375,-0.2197265625,-14.451219512195124,39.81707317073171,24.146341463414636,90,6
103,0.70556640625,-0.47265625,-0.28759765625,-13.04878048780488,36.524390243902445,24.146341463414636,90,6
104,0.74169921875,-0.3818359375,-0.32470703125,-17.012195121951223,37.80487804878049,22.378048780487806,90,6
105,0.7880859375,-0.29833984375,-0.3388671875,-27.439024390243905,40.85365853658537,18.658536585365855,90,6
106,0.81494140625,-0.275390625,-0.31884765625,-40.0609756097561,44.51219512195122,13.536585365853659,90,6
107,0.7890625,-0.27490234375,-0.31982421875,-50.0609756097561,46.21951219512196,8.414634146341465,90,6
108,0.86767578125,-0.31298828125,-0.2734375,-57.6829268292683,46.951219512195124,2.073170731707317,90,6
109,0.68994140625,-0.2548828125,-0.22412109375,-60.79268292682927,44.87804878048781,-1.9512195121951221,90,6
110,0.63671875,-0.43310546875,-0.16845703125,-58.59756097560976,40.73170731707317,-3.5975609756097566,90,6
111,0.59033203125,-0.46240234375,-0.14111328125,-53.17073170731708,34.51219512195122,-4.878048780487806,90,6
112,0.6044921875,-0.46533203125,-0.1376953125,-47.86585365853659,29.02439024390244,-6.219512195121951,90,6
113,0.59228515625,-0.455078125,-0.158203125,-43.90243902439025,25.0609756097561,-7.317073170731708,90,6
114,0.6455078125,-0.3779296875,-0.1865234375,-44.451219512195124,23.78048780487805,-10.182926829268293,90,6
115,0.658203125,-0.3525390625,-0.20556640625,-48.170731707317074,22.682926829268293,-11.28048780487805,90,6
116,0.6650390625,-0.34765625,-0.3740234375,-50.36585365853659,21.463414634146343,-12.621951219512196,90,6
117,0.7099609375,-0.341796875,-0.2529296875,-51.463414634146346,20.30487804878049,-14.817073170731708,90,6
118,0.71728515625,-0.34375,-0.29052734375,-52.86585365853659,19.26829268292683,-15.975609756097562,90,6
119,0.7294921875,-0.33203125,-0.30224609375,-56.03658536585366,19.573170731707318,-18.353658536585368,90,6
120,0.72900390625,-0.33447265625,-0.3095703125,-59.75609756097562,20.243902439024392,-19.81707317073171,90,6
121,0.73828125,-0.3203125,-0.29443359375,-64.02439024390245,21.097560975609756,-21.585365853658537,90,6
122,0.7353515625,-0.32568359375,-0.2900390625,-68.23170731707317,21.76829268292683,-22.073170731707318,90,6
123,0.7109375,-0.33154296875,-0.28125,-71.58536585365854,22.865853658536587,-23.719512195121954,90,6
124,0.7294921875,-0.33203125,-0.2861328125,-75.3048780487805,23.231707317073173,-23.963414634146343,90,6
125,0.72900390625,-0.33203125,-0.28857421875,-79.20731707317074,23.59756097560976,-24.085365853658537,90,6
126,0.732421875,-0.32421875,-0.29833984375,-82.01219512195122,23.353658536585368,-25.243902439024392,90,6
127,0.74365234375,-0.31591796875,-0.3076171875,-83.84146341463415,22.682926829268293,-27.25609756097561,90,6
128,0.7373046875,-0.32763671875,-0.314453125,-85.85365853658537,21.707317073170735,-29.39024390243903,90,6
129,0.73779296875,-0.3115234375,-0.32861328125,-87.7439024390244,21.28048780487805,-15.670731707317074,90,6
130,0.76220703125,-0.287109375,-0.3056640625,-91.28048780487806,22.134146341463417,-32.86585365853659,90,6
131,0.78173828125,-0.27197265625,-0.29833984375,-95.79268292682927,23.475609756097562,-34.390243902439025,90,6
132,0.78564453125,-0.28125,-0.28564453125,-100.1219512195122,25.792682926829272,-36.34146341463415,90,6
133,0.7705078125,-0.28125,-0.314453125,-105.00000000000001,26.89024390243903,-39.024390243902445,90,6
134,0.7802734375,-0.26611328125,-0.27294921875,-108.23170731707317,27.926829268292686,-41.03658536585366,90,6
135,0.78955078125,-0.265625,-0.26416015625,-110.79268292682927,27.621951219512198,-42.804878048780495,90,6
136,0.79833984375,-0.27294921875,-0.28076171875,-112.8658536585366,27.378048780487806,-44.390243902439025,90,6
137,0.8154296875,-0.27734375,-0.3076171875,-113.53658536585367,25.914634146341466,-46.524390243902445,90,6
138,0.818359375,-0.27734375,-0.32373046875,-114.02439024390245,25.670731707317074,-49.085365853658544,90,6
139,0.8408203125,-0.2763671875,-0.3193359375,-114.87804878048782,25.54878048780488,-50.85365853658537,90,6
140,0.97802734375,-0.25537109375,-0.33740234375,-117.7439024390244,25.975609756097562,-53.35365853658537,90,6
141,0.86865234375,-0.23193359375,-0.3330078125,-122.19512195121952,27.378048780487806,-55.79268292682927,90,6
142,0.873046875,-0.21728515625,-0.3408203125,-125.73170731707319,28.475609756097562,-57.865853658536594,90,6
143,0.880859375,-0.2099609375,-0.33544921875,-129.81707317073173,30.243902439024392,-60.243902439024396,90,6
144,0.89599609375,-0.2080078125,-0.35009765625,-134.20731707317074,32.5609756097561,-63.59756097560976,90,6
145,0.89111328125,-0.19873046875,-0.3759765625,-137.9268292682927,33.109756097560975,-66.34146341463415,90,6
146,0.88134765625,-0.21044921875,-0.36767578125,-138.65853658536585,32.25609756097561,-68.84146341463415,90,6
147,0.87255859375,-0.23681640625,-0.25537109375,-137.01219512195124,29.81707317073171,-70.79268292682927,90,6
148,0.89892578125,-0.20556640625,-0.390625,-134.87804878048783,27.439024390243905,-72.98780487804879,90,6
149,0.91650390625,-0.1708984375,-0.4033203125,-135.1829268292683,27.012195121951223,-75.1219512195122,90,6
150,0.9423828125,-0.14111328125,-0.427734375,-136.95121951219514,27.25609756097561,-62.560975609756106,90,6
151,0.95947265625,-0.11669921875,-0.42822265625,-141.40243902439025,28.902439024390247,-81.58536585365854,90,6
152,0.95849609375,-0.11962890625,-0.431640625,-146.34146341463415,31.646341463414636,-84.81707317073172,90,6
153,0.994140625,-0.07373046875,-0.42431640625,-149.63414634146343,33.963414634146346,-88.47560975609757,90,6
154,1.02783203125,-0.06201171875,-0.419921875,-154.57317073170734,35.36585365853659,-91.64634146341464,90,6
155,1.01318359375,-0.07373046875,-0.4453125,-157.9268292682927,35.54878048780488,-94.02439024390245,90,6
156,0.9853515625,-0.1142578125,-0.48193359375,-157.8048780487805,33.71951219512196,-96.40243902439025,90,6
157,0.98974609375,-0.07373046875,-0.4609375,-155.0609756097561,31.89024390243903,-99.20731707317074,90,6
158,1.02685546875,-0.033203125,-0.4560546875,-153.59756097560978,29.81707317073171,-102.37804878048782,90,6
159,1.0654296875,0.02734375,-0.4931640625,-154.57317073170734,28.10975609756098,-106.46341463414635,90,6
160,1.1005859375,0.05322265625,-0.51611328125,-157.6219512195122,28.04878048780488,-111.09756097560977,90,6
161,1.1337890625,0.07080078125,-0.55078125,-161.09756097560978,26.89024390243903,-115.48780487804879,90,6
162,1.18994140625,0.07470703125,-0.56494140625,-164.51219512195124,27.682926829268297,-121.34146341463416,90,6
163,1.1328125,0.1064453125,-0.5537109375,-166.70731707317074,27.987804878048784,-126.89024390243904,90,6
164,1.30908203125,0.06689453125,-0.5517578125,-167.01219512195124,25.914634146341466,-131.58536585365854,90,6
165,1.34765625,0.07275390625,-0.59033203125,-167.13414634146343,24.085365853658537,-137.6219512195122,90,6
166,1.3681640625,0.0947265625,-0.55810546875,-166.58536585365854,22.31707317073171,-142.37804878048783,90,6
167,1.40185546875,0.10400390625,-0.53369140625,-166.76829268292684,22.865853658536587,-146.64634146341464,90,6
168,1.40771484375,0.125,-0.49560546875,-169.75609756097563,25.54878048780488,-151.15853658536588,90,6
169,1.4013671875,0.1083984375,-0.52490234375,-175.4878048780488,28.04878048780488,-155.1219512195122,90,6
170,1.3798828125,0.1005859375,-0.50244140625,-179.02439024390245,33.170731707317074,-162.31707317073173,90,6
171,1.41162109375,0.1103515625,-0.48828125,-179.57317073170734,36.21951219512196,-168.1707317073171,90,6
172,1.4423828125,0.119140625,-0.48779296875,-181.34146341463415,39.390243902439025,-174.32926829268294,90,6
173,1.4375,0.1181640625,-0.53857421875,-185.6707317073171,42.25609756097561,-179.63414634146343,90,6
174,1.41357421875,0.08935546875,-0.5283203125,-189.57317073170734,44.81707317073171,-182.7439024390244,90,6
175,1.43359375,0.0947265625,-0.4755859375,-188.96341463414635,46.03658536585366,-184.26829268292684,90,6
176,1.4462890625,0.1025390625,-0.40380859375,-185.85365853658539,62.37804878048781,-187.13414634146343,90,6
177,1.509765625,0.16015625,-0.41064453125,-181.34146341463415,44.81707317073171,-189.87804878048783,90,6
178,1.517578125,0.1611328125,-0.42529296875,-178.35365853658539,43.78048780487805,-193.35365853658539,90,6
179,1.54541015625,0.19873046875,-0.43115234375,-176.95121951219514,45.426829268292686,-198.90243902439025,90,6
180,1.56982421875,0.21337890625,-0.2509765625,-176.09756097560978,45.36585365853659,-187.50000000000003,90,6
181,1.60205078125,0.25390625,-0.41748046875,-173.78048780487808,45.00000000000001,-207.6829268292683,90,6
182,1.63671875,0.314453125,-0.373046875,-173.78048780487808,46.524390243902445,-213.1707317073171,90,6
183,1.671875,0.3525390625,-0.35791015625,-174.32926829268294,48.41463414634147,-218.1707317073171,90,6
184,1.66162109375,0.359375,-0.3056640625,-173.109756097561,49.93902439024391,-222.50000000000003,90,6
185,1.65283203125,0.35302734375,-0.25537109375,-168.59756097560978,50.60975609756098,-227.68292682926833,90,6
186,1.67333984375,0.36767578125,-0.205078125,-163.71951219512198,50.0609756097561,-230.00000000000003,90,6
187,1.63916015625,0.35498046875,-0.1640625,-158.53658536585368,50.487804878048784,-232.19512195121953,90,6
188,1.640625,0.25244140625,-0.130859375,-154.45121951219514,51.524390243902445,-235.6707317073171,90,6
189,1.64306640625,0.423828125,-0.08935546875,-153.1707317073171,54.75609756097561,-240.91463414634148,90,6
190,1.6376953125,0.44775390625,-0.07568359375,-152.6219512195122,57.13414634146342,-243.90243902439028,90,6
191,1.65283203125,0.49560546875,-0.04296875,-153.78048780487805,60.060975609756106,-247.8658536585366,90,6
192,1.6455078125,0.4912109375,0.025390625,-157.13414634146343,66.89024390243902,-251.03658536585368,90,6
193,1.66552734375,0.44677734375,0.05712890625,-157.8658536585366,73.17073170731707,-254.20731707317074,90,6
194,1.64111328125,0.44189453125,0.09033203125,-154.57317073170734,79.08536585365854,-258.109756097561,90,6
195,1.6435546875,0.47021484375,0.13037109375,-149.14634146341464,83.04878048780489,-261.70731707317077,90,6
196,1.5888671875,0.43408203125,0.17236328125,-143.59756097560978,86.09756097560977,-262.07317073170736,90,6
197,1.52392578125,0.333984375,0.17626953125,-134.14634146341464,87.8658536585366,-262.13414634146346,90,6
198,1.466796875,0.32275390625,0.22412109375,-121.40243902439025,88.10975609756099,-262.5609756097561,90,6
199,1.41259765625,0.271484375,0.1865234375,-112.37804878048782,89.75609756097562,-263.4756097560976,90,6
200,1.34814453125,0.20556640625,0.189453125,-106.15853658536587,89.02439024390245,-264.26829268292687,90,6
201,1.2666015625,0.126953125,0.171875,-98.53658536585367,90.60975609756099,-263.9024390243903,90,6
202,1.1845703125,0.0400390625,0.19091796875,-89.75609756097562,90.2439024390244,-262.3170731707317,90,6
203,1.115234375,-0.01318359375,0.18701171875,-79.57317073170732,87.8048780487805,-260.3048780487805,90,6
204,1.05712890625,-0.06103515625,0.169921875,-69.69512195121952,84.51219512195122,-256.89024390243907,90,6
205,1.0185546875,-0.0966796875,0.1513671875,-58.53658536585366,79.14634146341464,-252.9268292682927,90,6
206,0.97509765625,-0.001953125,0.1630859375,-50.426829268292686,76.64634146341464,-248.90243902439028,90,6
207,0.9208984375,-0.177734375,0.154296875,-47.31707317073171,75.1829268292683,-243.59756097560978,90,6
208,0.81884765625,-0.2431640625,0.16796875,-47.37804878048781,74.51219512195122,-238.59756097560978,90,6
209,0.7353515625,-0.287109375,0.2197265625,-46.15853658536586,75.3658536585366,-233.35365853658539,90,6
210,0.66015625,-0.34033203125,0.21875,-46.34146341463415,76.82926829268294,-225.5487804878049,90,6
211,0.57861328125,-0.3974609375,0.15673828125,-48.90243902439025,79.45121951219512,-233.71951219512198,90,6
212,0.47412109375,-0.4501953125,0.162109375,-52.37804878048781,81.46341463414635,-211.89024390243904,90,6
213,0.40966796875,-0.54443359375,0.1748046875,-50.00000000000001,79.75609756097562,-217.8048780487805,90,6
214,0.373046875,-0.64990234375,0.1826171875,-42.19512195121951,75.42682926829269,-190.6707317073171,90,6
215,0.16650390625,-0.72705078125,0.22021484375,-34.32926829268293,71.03658536585367,-179.51219512195124,90,6
216,0.11865234375,-0.76513671875,0.271484375,-28.53658536585366,67.01219512195122,-168.47560975609758,90,6
217,-0.06591796875,-0.859375,0.22314453125,-22.439024390243905,65.79268292682927,-156.21951219512198,90,6
218,-0.1630859375,-0.896484375,0.19580078125,-13.536585365853659,60.1219512195122,-140.85365853658539,90,6
219,-0.271484375,-1.06396484375,0.205078125,-2.6219512195121952,55.60975609756098,-122.37804878048782,90,6
220,-0.46044921875,-1.08935546875,0.251953125,6.951219512195123,49.87804878048781,-106.15853658536587,90,6
221,-0.53564453125,-1.16015625,0.13037109375,15.30487804878049,45.0609756097561,-91.76829268292684,90,6
222,-0.54541015625,-1.18115234375,0.28955078125,20.426829268292686,41.707317073170735,-76.15853658536587,90,6
223,-0.62744140625,-1.19921875,0.30029296875,25.182926829268293,40.243902439024396,-60.243902439024396,90,6
224,-0.64404296875,-1.23876953125,0.38427734375,29.207317073170735,38.90243902439025,-42.25609756097561,90,6
225,-0.69921875,-1.3681640625,0.390625,33.963414634146346,38.47560975609756,-23.53658536585366,90,6
226,-0.70458984375,-1.4580078125,0.43359375,42.926829268292686,36.951219512195124,-5.426829268292684,90,6
227,-0.72119140625,-1.54833984375,0.45166015625,55.365853658536594,32.19512195121951,13.04878048780488,90,6
228,-0.7109375,-1.59423828125,0.40673828125,70.79268292682927,25.792682926829272,16.219512195121954,90,6
229,-0.658203125,-1.58935546875,0.396484375,85.3658536585366,19.451219512195124,50.670731707317074,90,6
230,-0.58056640625,-1.60302734375,0.3828125,98.90243902439025,16.219512195121954,68.23170731707317,90,6
231,-0.5234375,-1.61962890625,0.30322265625,108.47560975609757,11.402439024390246,88.17073170731707,90,6
232,-0.44580078125,-1.662109375,0.2509765625,114.57317073170732,11.036585365853659,108.04878048780489,90,6
233,-0.37841796875,-1.806640625,0.2021484375,119.87804878048782,13.963414634146343,130.4878048780488,90,6
234,-0.36279296875,-1.9462890625,0.2548828125,129.14634146341464,15.121951219512196,152.6219512195122,90,6
235,-0.3173828125,-2.07666015625,0.2626953125,142.07317073170734,14.634146341463415,175.2439024390244,90,6
236,-0.21826171875,-2.12109375,0.29052734375,154.75609756097563,13.78048780487805,196.82926829268294,90,6
237,-0.08349609375,-2.197265625,0.2734375,161.40243902439025,17.195121951219512,220.91463414634148,90,6
238,0.01806640625,-2.34423828125,0.2314453125,162.13414634146343,25.243902439024392,247.43902439024393,90,6
239,0.06005859375,-2.60791015625,0.275390625,161.76829268292684,35.36585365853659,280.0609756097561,90,6
240,0.10888671875,-2.94091796875,0.31689453125,170.91463414634148,43.71951219512196,299.39024390243907,90,6
241,0.24853515625,-3.15234375,0.318359375,189.51219512195124,50.670731707317074,352.8658536585366,90,6
242,0.4482421875,-3.5869140625,0.36279296875,208.96341463414635,56.585365853658544,388.4146341463415,90,6
243,0.650390625,-3.771484375,0.0859375,232.31707317073173,59.268292682926834,407.62195121951225,90,6
244,1.2080078125,-4.20361328125,-0.1806640625,239.69512195121953,60.487804878048784,438.9634146341464,90,6
245,1.740234375,-4.44287109375,-0.42236328125,249.20731707317074,65.0,487.80487804878055,90,6
246,2.37353515625,-4.7421875,-0.392578125,216.95121951219514,87.98780487804879,501.1585365853659,90,6
247,2.8017578125,-5.30029296875,-0.037109375,214.08536585365854,114.63414634146342,543.9634146341464,90,6
248,3.48681640625,-5.8037109375,0.09033203125,208.96341463414635,110.67073170731709,591.4024390243903,90,6
249,4.521484375,-6.1494140625,-0.2412109375,222.25609756097563,141.70731707317074,653.4146341463415,90,6
250,5.6982421875,-6.36865234375,-0.8359375,280.6707317073171,141.09756097560978,730.9756097560976,90,6
251,6.5185546875,-6.00341796875,-1.60986328125,315.4878048780488,139.45121951219514,780.1219512195123,90,6
252,7.841796875,-5.72021484375,-2.3359375,355.06097560975616,157.31707317073173,796.8902439024391,90,6
253,9.34619140625,-4.94873046875,-3.02783203125,369.69512195121956,156.76829268292684,854.4512195121952,90,6
254,10.15478515625,-4.38916015625,-3.71875,412.80487804878055,112.6829268292683,889.4512195121952,90,6
255,10.9677734375,-3.98681640625,-4.70849609375,470.12195121951225,75.3048780487805,890.1829268292684,90,6
256,11.4951171875,-3.4306640625,-5.78466796875,554.3902439024391,-8.963414634146343,876.2804878048781,90,6
257,11.4599609375,-3.0498046875,-6.61376953125,616.8902439024391,-84.57317073170732,849.0853658536586,90,6
258,11.09130859375,-2.51416015625,-7.1357421875,716.9512195121952,-196.70731707317074,817.9878048780489,90,6
259,10.02001953125,-2.64111328125,-7.90478515625,864.0243902439025,-366.0975609756098,781.4634146341464,90,6
260,8.06884765625,-3.6826171875,-8.6474609375,1076.0365853658539,-562.6219512195122,687.3170731707318,90,6
261,7.37109375,-3.43603515625,-9.5927734375,1339.1463414634147,-784.0853658536586,546.829268292683,90,6
262,6.84228515625,-2.70703125,-10.37841796875,1578.719512195122,-848.5365853658537,357.25609756097566,90,6
263,4.43359375,-3.796875,-11.177734375,1983.7195121951222,-765.7317073170732,151.09756097560978,90,6
264,5.8330078125,-11.6611328125,-7.89599609375,89.63414634146342,851.7073170731708,-707.0731707317074,90,6
265,15.99951171875,15.99951171875,-0.150390625,714.5121951219513,68.59756097560977,229.93902439024393,90,6
266,-15.14794921875,-16.0,-4.56103515625,1552.6829268292684,-390.5487804878049,15.060975609756099,90,6
267,9.73681640625,2.70947265625,-2.03369140625,852.3780487804879,-142.19512195121953,-159.57317073170734,90,6
268,3.0400390625,-0.14501953125,-3.3623046875,837.9268292682927,70.48780487804879,-273.4756097560976,90,6
269,5.21044921875,-0.87548828125,-0.244140625,790.609756097561,-3.1097560975609757,-254.32926829268294,90,6
270,3.671875,-3.27587890625,-1.7939453125,881.5243902439025,-144.81707317073173,-428.9024390243903,90,6
271,4.44677734375,-1.90283203125,-3.09521484375,723.5365853658537,-115.73170731707319,-522.1951219512196,90,6
272,3.7119140625,-2.8916015625,-2.90087890625,656.4024390243903,-117.56097560975611,-620.609756097561,90,6
273,3.77685546875,-2.55615234375,-2.615234375,558.6585365853659,-66.82926829268293,-701.5243902439025,90,6
274,3.591796875,-2.32373046875,-2.04052734375,464.39024390243907,-10.914634146341465,-742.0731707317074,90,6
275,2.92578125,-2.603515625,-2.1962890625,390.06097560975616,34.207317073170735,-769.5731707317074,90,6
276,2.263671875,-2.4404296875,-1.880859375,313.8414634146342,91.46341463414635,-779.4512195121952,90,6
277,1.78466796875,-2.32666015625,-1.6962890625,274.32926829268297,110.73170731707319,-785.2439024390245,90,6
278,1.7392578125,-1.94140625,-1.4619140625,224.08536585365854,177.7439024390244,-781.0975609756098,90,6
279,1.78759765625,-1.75439453125,-1.4365234375,172.50000000000003,223.109756097561,-772.2560975609757,90,6
280,1.97265625,-1.67578125,-1.7939453125,116.95121951219514,259.8170731707317,-762.6829268292684,90,6
281,2.47412109375,-1.318359375,-1.8369140625,73.29268292682927,302.19512195121956,-704.4512195121952,90,6
282,2.30517578125,-1.33837890625,-1.732421875,26.82926829268293,321.82926829268297,-684.8780487804879,90,6
283,2.123046875,-1.4130859375,-1.78759765625,-6.341463414634147,328.1707317073171,-637.2560975609757,90,6
284,2.10595703125,-1.35498046875,-1.650390625,-41.15853658536586,327.9268292682927,-603.1707317073171,90,6
285,1.97802734375,-1.1650390625,-1.38818359375,-84.32926829268294,330.609756097561,-565.609756097561,90,6
286,1.55322265625,-1.27734375,-1.14697265625,-134.81707317073173,339.87804878048786,-525.7926829268293,90,6
287,1.34130859375,-1.36865234375,-0.9853515625,-158.2926829268293,348.719512195122,-491.4634146341464,90,6
288,1.017578125,-1.29150390625,-0.98681640625,-192.43902439024393,344.93902439024396,-464.63414634146346,90,6
289,0.9189453125,-1.22607421875,-1.1591796875,-193.41463414634148,335.7926829268293,-439.26829268292687,90,6
290,1.07373046875,-1.1591796875,-1.3759765625,-185.1829268292683,319.69512195121956,-436.3414634146342,90,6
291,1.158203125,-1.13427734375,-1.37060546875,-179.02439024390245,305.4268292682927,-400.5487804878049,90,6
292,1.19091796875,-1.16796875,-1.32080078125,-183.35365853658539,294.51219512195127,-382.13414634146346,90,6
293,1.2060546875,-1.11474609375,-1.31591796875,-188.109756097561,290.8536585365854,-364.39024390243907,90,6
294,0.998046875,-0.857421875,-1.14404296875,-193.109756097561,294.63414634146346,-340.4268292682927,90,6
295,0.53076171875,-0.8671875,-0.9951171875,-200.6707317073171,295.9146341463415,-319.57317073170736,90,6
296,0.2802734375,-0.80419921875,-1.02099609375,-196.09756097560978,292.5,-304.39024390243907,90,6
297,0.06640625,-0.65771484375,-1.04150390625,-179.14634146341464,276.70731707317077,-293.4146341463415,90,6
298,-0.052734375,-0.609375,-1.02734375,-164.57317073170734,265.8536585365854,-283.5975609756098,90,6
299,-0.01318359375,-0.43017578125,-1.08544921875,-169.26829268292684,258.9634146341464,-270.6707317073171,90,6
300,0.0751953125,-0.37255859375,-1.24853515625,-180.609756097561,252.80487804878052,-255.4268292682927,90,6
301,0.072265625,-0.291015625,-1.10791015625,-194.02439024390245,246.52439024390247,-234.39024390243904,90,6
302,-0.0107421875,-0.3349609375,-1.07470703125,-204.02439024390245,237.56097560975613,-208.47560975609758,90,6
303,-0.3994140625,-0.43798828125,-1.08935546875,-215.5487804878049,234.02439024390245,-183.59756097560978,90,6
304,-0.56982421875,-0.619140625,-0.8544921875,-225.85365853658539,224.26829268292684,-171.09756097560978,90,6
305,-1.05615234375,-0.5439453125,-0.5087890625,-210.2439024390244,200.6707317073171,-164.45121951219514,90,6
306,-0.65576171875,-0.40625,-0.46923828125,-201.09756097560978,197.50000000000003,-155.1829268292683,90,6
307,-0.82568359375,-0.3330078125,-0.35107421875,-217.62195121951223,173.90243902439025,-145.3658536585366,90,6
308,-0.81591796875,-0.22412109375,-0.400390625,-189.81707317073173,160.0,-137.4390243902439,90,6
309,-0.58544921875,-0.18359375,-0.52978515625,-201.03658536585368,150.609756097561,-123.78048780487806,90,6
310,-0.73583984375,-0.30908203125,-0.57666015625,-196.46341463414635,128.0487804878049,-103.84146341463415,90,6
311,-0.9580078125,-0.53173828125,-0.412109375,-195.1219512195122,134.57317073170734,-91.70731707317074,90,6
312,-1.1142578125,-0.54541015625,-0.390625,-202.50000000000003,127.6829268292683,-81.34146341463415,90,6
313,-1.15234375,-0.6005859375,-0.41015625,-180.3658536585366,120.60975609756099,-78.78048780487805,90,6
314,-0.98876953125,-0.35986328125,-0.4052734375,-163.90243902439025,111.40243902439025,-78.29268292682927,90,6
315,-0.86279296875,-0.03125,-0.40625,-154.81707317073173,104.32926829268294,-74.69512195121952,90,6
316,-0.68310546875,0.03955078125,-0.45849609375,-149.51219512195124,98.47560975609757,-70.2439024390244,90,6
317,-0.78173828125,0.02197265625,-0.47900390625,-144.87804878048783,108.35365853658537,-63.71951219512196,90,6
318,-0.90283203125,-0.08935546875,-0.46337890625,-155.91463414634148,89.93902439024392,-53.90243902439025,90,6
319,-1.06884765625,-0.21337890625,-0.3984375,-135.1829268292683,89.08536585365854,-45.243902439024396,90,6
320,-1.14501953125,-0.25,-0.37353515625,-127.43902439024392,88.17073170731707,-39.451219512195124,90,6
321,-1.0986328125,-0.2333984375,-0.4033203125,-118.04878048780489,82.07317073170732,-32.5,90,6
322,-1.09619140625,-0.2177734375,-0.44580078125,-106.64634146341464,72.43902439024392,-25.365853658536587,90,6
323,-1.09765625,-0.2099609375,-0.46923828125,-90.3658536585366,77.5,-17.31707317073171,90,6
324,-1.15283203125,-0.2646484375,-0.35009765625,-76.52439024390245,53.23170731707317,-12.378048780487806,90,6
325,-1.1962890625,-0.287109375,-0.2802734375,-67.5,46.89024390243903,-7.621951219512196,90,6
326,-1.1630859375,-0.2783203125,-0.255859375,-59.268292682926834,43.170731707317074,-2.439024390243903,90,6
327,-1.14013671875,-0.2255859375,-0.22705078125,-53.90243902439025,38.53658536585366,3.4756097560975614,90,6
328,-1.11865234375,-0.1943359375,-0.2900390625,-50.487804878048784,34.81707317073171,9.02439024390244,90,6
329,-1.10498046875,-0.1904296875,-0.35009765625,-45.1219512195122,29.26829268292683,13.04878048780488,90,6
330,-1.0966796875,-0.193359375,-0.3359375,-37.37804878048781,21.707317073170735,17.134146341463417,90,6
331,-1.09423828125,-0.189453125,-0.32275390625,-29.81707317073171,14.26829268292683,20.670731707317074,90,6
332,-1.12255859375,-0.16259765625,-0.25390625,-23.84146341463415,9.573170731707318,24.451219512195124,90,6
333,-1.169921875,-0.15966796875,-0.23046875,-25.121951219512198,4.2682926829268295,27.5609756097561,90,6
334,-1.18505859375,-0.24658203125,-0.2568359375,-22.743902439024392,15.487804878048783,30.30487804878049,90,6
335,-1.19580078125,-0.10693359375,-0.26708984375,-19.939024390243905,-7.01219512195122,34.87804878048781,90,6
336,-1.22705078125,-0.12451171875,-0.2822265625,-17.743902439024392,-12.987804878048781,38.47560975609756,90,6
337,-1.2578125,-0.1123046875,-0.27294921875,-12.74390243902439,-18.658536585365855,42.07317073170732,90,6
338,-1.2568359375,-0.0771484375,-0.26416015625,-8.536585365853659,-24.878048780487806,46.40243902439025,90,6
339,-1.2470703125,-0.06103515625,-0.26025390625,-5.182926829268293,-31.09756097560976,51.15853658536586,90,6
340,-1.23974609375,-0.04931640625,-0.2685546875,-1.524390243902439,-38.04878048780488,54.51219512195122,90,6
341,-1.20556640625,0.00927734375,-0.28369140625,2.5609756097560976,-45.426829268292686,57.13414634146342,90,6
342,-1.177734375,0.04541015625,-0.27392578125,7.073170731707318,-52.926829268292686,58.53658536585366,90,6
343,-1.1611328125,0.0791015625,-0.23681640625,11.036585365853659,-58.84146341463415,59.146341463414636,90,6
344,-1.15087890625,0.1123046875,-0.1943359375,13.170731707317074,-63.84146341463415,59.63414634146342,90,6
345,-1.13525390625,0.13818359375,-0.1640625,15.54878048780488,-68.23170731707317,59.63414634146342,90,6
346,-1.12109375,0.17236328125,-0.16015625,18.902439024390244,-73.53658536585367,58.963414634146346,90,6
347,-1.08642578125,0.2060546875,-0.1708984375,22.926829268292686,-62.6219512195122,58.59756097560976,90,6
348,-1.0849609375,0.2236328125,-0.1376953125,25.975609756097562,-82.8658536585366,58.23170731707317,90,6
349,-1.07275390625,0.2509765625,-0.12841796875,29.32926829268293,-85.00000000000001,58.53658536585366,90,6
350,-1.0673828125,0.2353515625,-0.0908203125,30.914634146341466,-87.98780487804879,58.78048780487806,90,6
351,-1.08154296875,0.23291015625,-0.080078125,32.25609756097561,-91.89024390243904,58.23170731707317,90,6
352,-1.07861328125,0.2255859375,-0.06884765625,34.390243902439025,-95.00000000000001,57.560975609756106,90,6
353,-1.0888671875,0.21826171875,-0.0546875,36.15853658536586,-100.00000000000001,57.804878048780495,90,6
354,-1.09619140625,0.21533203125,-0.0380859375,37.80487804878049,-104.08536585365854,57.804878048780495,90,6
355,-1.1025390625,0.21630859375,-0.01171875,38.35365853658537,-107.07317073170732,57.743902439024396,90,6
356,-1.07470703125,0.236328125,-0.0029296875,39.146341463414636,-109.75609756097562,58.29268292682927,90,6
357,-1.06201171875,0.25830078125,0.02001953125,38.963414634146346,-111.21951219512196,58.65853658536586,90,6
358,-1.02001953125,0.2802734375,0.025390625,39.32926829268293,-113.47560975609757,59.51219512195122,90,6
359,-0.98974609375,0.28515625,0.0322265625,39.87804878048781,-115.79268292682927,60.426829268292686,90,6
360,-0.95166015625,0.3017578125,0.03173828125,41.40243902439025,-118.47560975609757,60.60975609756098,90,6
361,-0.9326171875,0.3154296875,0.05517578125,42.926829268292686,-122.13414634146342,60.85365853658537,90,6
362,-0.8984375,0.318359375,0.05908203125,44.69512195121952,-126.28048780487806,60.73170731707317,90,6
363,-0.87548828125,0.31884765625,0.0810546875,47.01219512195122,-130.3658536585366,60.54878048780488,90,6
364,-0.859375,0.3056640625,0.09912109375,49.207317073170735,-134.08536585365854,60.487804878048784,90,6
365,-0.8193359375,0.3095703125,0.1396484375,50.1219512195122,-134.20731707317074,59.93902439024391,90,6
366,-0.771484375,0.3251953125,0.1748046875,48.71951219512196,-134.57317073170734,60.060975609756106,90,6
367,-0.73681640625,0.35009765625,0.1923828125,46.707317073170735,-135.91463414634148,60.00000000000001,90,6
368,-0.71435546875,0.3515625,0.2197265625,47.01219512195122,-140.3048780487805,59.57317073170732,90,6
369,-0.7158203125,0.34521484375,0.22021484375,49.87804878048781,-144.69512195121953,57.987804878048784,90,6
370,-0.71337890625,0.34326171875,0.27392578125,54.39024390243903,-148.0487804878049,56.707317073170735,90,6
371,-0.69091796875,0.3603515625,0.291015625,57.01219512195122,-148.109756097561,55.67073170731708,90,6
372,-0.64599609375,0.390625,0.28955078125,58.41463414634147,-148.59756097560978,55.0609756097561,90,6
373,-0.61279296875,0.41015625,0.2890625,58.41463414634147,-148.47560975609758,54.146341463414636,90,6
374,-0.58154296875,0.42626953125,0.29248046875,58.53658536585366,-150.4268292682927,53.47560975609757,90,6
375,-0.5771484375,0.4189453125,0.27734375,58.10975609756098,-151.46341463414635,52.43902439024391,90,6
376,-0.5498046875,0.43212890625,0.28857421875,57.6829268292683,-151.70731707317074,51.40243902439025,90,6
377,-0.513671875,0.4296875,0.29248046875,57.19512195121952,-152.7439024390244,51.89024390243903,90,6
378,-0.4912109375,0.427734375,0.322265625,57.07317073170732,-153.59756097560978,52.25609756097561,90,6
379,-0.48974609375,0.39697265625,0.3798828125,58.53658536585366,-155.0609756097561,53.41463414634147,90,6
380,-0.49951171875,0.39208984375,0.4189453125,60.243902439024396,-156.40243902439025,54.32926829268293,90,6
381,-0.4892578125,0.39013671875,0.4384765625,62.01219512195122,-156.52439024390245,54.87804878048781,90,6
382,-0.4814453125,0.400390625,0.4443359375,63.71951219512196,-155.7317073170732,55.79268292682927,90,6
383,-0.46435546875,0.40869140625,0.4296875,63.78048780487806,-155.609756097561,57.19512195121952,90,6
384,-0.419921875,0.43603515625,0.39990234375,64.20731707317074,-156.34146341463415,58.29268292682927,90,6
385,-0.40380859375,0.44140625,0.38525390625,64.57317073170732,-157.13414634146343,59.207317073170735,90,6
386,-0.36181640625,0.46826171875,0.37939453125,65.85365853658537,-159.02439024390245,60.1829268292683,90,6
387,-0.31884765625,0.47900390625,0.39404296875,66.40243902439025,-160.3658536585366,61.82926829268293,90,6
388,-0.2802734375,0.4833984375,0.41943359375,64.63414634146342,-160.7317073170732,63.04878048780488,90,6
389,-0.23388671875,0.486328125,0.4267578125,61.82926829268293,-160.4878048780488,64.45121951219512,90,6
390,-0.22802734375,0.48974609375,0.427734375,60.243902439024396,-160.4878048780488,64.9390243902439,90,6
391,-0.19873046875,0.5078125,0.43408203125,59.32926829268293,-161.03658536585368,65.79268292682927,90,6
392,-0.189453125,0.51513671875,0.451171875,57.50000000000001,-161.28048780487805,66.82926829268293,90,6
393,-0.16796875,0.515625,0.4365234375,54.69512195121952,-161.76829268292684,67.5609756097561,90,6
394,-0.15380859375,0.53662109375,0.427734375,52.01219512195122,-161.76829268292684,67.8048780487805,90,6
395,-0.12744140625,0.5517578125,0.41650390625,49.69512195121952,-162.07317073170734,68.96341463414635,90,6
396,-0.06396484375,0.57568359375,0.41748046875,49.146341463414636,-163.65853658536588,69.93902439024392,90,6
397,-0.01416015625,0.576171875,0.43798828125,50.304878048780495,-166.64634146341464,71.95121951219512,90,6
398,0.0107421875,0.5634765625,0.4521484375,52.50000000000001,-169.26829268292684,73.35365853658537,90,6
399,0.025390625,0.57177734375,0.4375,52.5609756097561,-168.0487804878049,73.78048780487805,90,6
400,0.06103515625,0.60400390625,0.4287109375,49.146341463414636,-166.28048780487805,74.75609756097562,90,6
401,0.1123046875,0.6435546875,0.41943359375,44.57317073170732,-164.63414634146343,75.67073170731707,90,6
402,0.1474609375,0.66845703125,0.39453125,40.91463414634147,-164.26829268292684,76.09756097560977,90,6
403,0.18798828125,0.6875,0.3974609375,39.451219512195124,-166.46341463414635,75.97560975609757,90,6
404,0.203125,0.677734375,0.44775390625,40.304878048780495,-170.1219512195122,76.82926829268294,90,6
405,0.1708984375,0.6103515625,0.51220703125,40.304878048780495,-170.3048780487805,77.31707317073172,90,6
406,0.17822265625,0.62255859375,0.55029296875,42.50000000000001,-170.1829268292683,77.25609756097562,90,6
407,0.201171875,0.634765625,0.56884765625,31.402439024390247,-170.4878048780488,78.17073170731707,90,6
408,0.24755859375,0.64453125,0.5546875,50.54878048780488,-170.1829268292683,79.20731707317074,90,6
409,0.28515625,0.6279296875,0.5205078125,49.81707317073171,-168.78048780487805,80.73170731707317,90,6
410,0.31396484375,0.63916015625,0.48486328125,44.93902439024391,-165.91463414634148,81.46341463414635,90,6
411,0.35546875,0.67529296875,0.474609375,40.487804878048784,-163.59756097560978,82.43902439024392,90,6
412,0.36962890625,0.65576171875,0.5224609375,38.41463414634147,-161.82926829268294,83.84146341463415,90,6
413,0.37109375,0.6298828125,0.5517578125,38.71951219512196,-160.3658536585366,85.79268292682927,90,6
414,0.384765625,0.6220703125,0.54541015625,41.21951219512196,-159.93902439024393,87.6219512195122,90,6
415,0.39990234375,0.63330078125,0.6220703125,43.65853658536586,-161.95121951219514,89.39024390243904,90,6
416,0.423828125,0.6689453125,0.4736328125,47.25609756097561,-165.609756097561,90.3658536585366,90,6
417,0.4580078125,0.66845703125,0.51123046875,48.10975609756098,-166.21951219512198,90.2439024390244,90,6
418,0.47509765625,0.6591796875,0.541015625,45.1219512195122,-163.47560975609758,89.75609756097562,90,6
419,0.5224609375,0.68310546875,0.52197265625,41.40243902439025,-158.53658536585368,88.78048780487805,90,6
420,0.5556640625,0.69140625,0.5244140625,40.670731707317074,-155.2439024390244,88.59756097560977,90,6
421,0.58447265625,0.6923828125,0.51220703125,42.43902439024391,-153.59756097560978,88.53658536585367,90,6
422,0.6357421875,0.6904296875,0.44873046875,43.84146341463415,-152.8048780487805,87.6219512195122,90,6
423,0.69140625,0.708984375,0.498046875,45.00000000000001,-152.8048780487805,86.70731707317074,90,6
424,0.73193359375,0.7158203125,0.3193359375,45.79268292682927,-154.39024390243904,86.40243902439025,90,6
425,0.74462890625,0.72314453125,0.28564453125,48.170731707317074,-157.43902439024393,86.95121951219512,90,6
426,0.75439453125,0.701171875,0.30859375,50.426829268292686,-160.7317073170732,87.31707317073172,90,6
427,0.72021484375,0.63623046875,0.3623046875,45.54878048780488,-156.64634146341464,84.63414634146342,90,6
428,0.74951171875,0.68505859375,0.40576171875,40.36585365853659,-151.15853658536588,81.58536585365854,90,6
429,0.744140625,0.7177734375,0.48388671875,36.09756097560976,-145.4268292682927,80.2439024390244,90,6
430,0.74609375,0.7041015625,0.48583984375,31.707317073170735,-138.78048780487805,79.87804878048782,90,6
431,0.7431640625,0.68603515625,0.46484375,29.32926829268293,-134.57317073170734,79.87804878048782,90,6
432,0.75439453125,0.69140625,0.4052734375,32.43902439024391,-136.70731707317074,79.93902439024392,90,6
433,0.75244140625,0.65869140625,0.3212890625,39.63414634146342,-142.07317073170734,80.1219512195122,90,6
434,0.75439453125,0.6201171875,0.25634765625,48.170731707317074,-148.2926829268293,79.26829268292684,90,6
435,0.77392578125,0.62109375,0.23193359375,56.585365853658544,-152.8048780487805,78.29268292682927,90,6
436,0.7763671875,0.50390625,0.1923828125,54.207317073170735,-152.8658536585366,77.43902439024392,90,6
437,0.79052734375,0.64794921875,0.138671875,41.951219512195124,-148.2926829268293,77.25609756097562,90,6
438,0.81689453125,0.6923828125,0.138671875,28.963414634146343,-143.53658536585368,77.19512195121952,90,6
439,0.81494140625,0.708984375,0.267578125,20.670731707317074,-138.78048780487805,78.78048780487805,90,6
440,0.76123046875,0.6396484375,0.34521484375,16.646341463414636,-133.0487804878049,80.85365853658537,90,6
441,0.71484375,0.59912109375,0.345703125,15.975609756097562,-127.8658536585366,81.40243902439025,90,6
442,0.67529296875,0.5673828125,0.2958984375,20.731707317073173,-127.98780487804879,81.64634146341464,90,6
443,0.68701171875,0.56689453125,0.20751953125,29.573170731707318,-132.4390243902439,82.25609756097562,90,6
444,0.6708984375,0.494140625,0.24560546875,30.000000000000004,-130.6707317073171,81.15853658536587,90,6
445,0.71337890625,0.5048828125,0.02880859375,27.439024390243905,-130.1219512195122,81.03658536585367,90,6
446,0.74462890625,0.5498046875,0.0185546875,23.10975609756098,-126.28048780487806,81.70731707317074,90,6
447,0.78857421875,0.5966796875,-0.0126953125,14.02439024390244,-120.91463414634147,82.31707317073172,90,6
448,0.79541015625,0.56884765625,-0.03857421875,15.30487804878049,-111.76829268292684,83.04878048780489,90,6
449,0.7890625,0.5908203125,-0.03125,-5.7926829268292686,-106.82926829268294,82.13414634146342,90,6
450,0.77392578125,0.5419921875,0.01123046875,-3.353658536585366,-106.46341463414635,81.70731707317074,90,6
451,0.63623046875,0.51953125,0.01904296875,6.097560975609756,-110.67073170731709,82.92682926829269,90,6
452,0.73828125,0.4326171875,0.10400390625,0.7317073170731708,-115.67073170731709,82.8048780487805,90,6
453,0.70751953125,0.45361328125,-0.07080078125,26.34146341463415,-118.53658536585367,80.48780487804879,90,6
454,0.7138671875,0.4609375,-0.0595703125,30.121951219512198,-119.39024390243904,79.45121951219512,90,6
455,0.80322265625,0.53369140625,-0.1416015625,29.75609756097561,-118.84146341463416,79.20731707317074,90,6
456,0.82958984375,0.55712890625,-0.14794921875,27.012195121951223,-116.46341463414635,78.96341463414635,90,6
457,0.84326171875,0.564453125,-0.11865234375,25.792682926829272,-116.46341463414635,80.3048780487805,90,6
458,0.79150390625,0.62060546875,-0.107421875,25.60975609756098,-115.91463414634147,81.34146341463415,90,6
459,0.77099609375,0.4453125,-0.12109375,28.475609756097562,-115.48780487804879,82.07317073170732,90,6
460,0.7646484375,0.42724609375,-0.09521484375,34.69512195121951,-116.28048780487806,82.43902439024392,90,6
461,0.736328125,0.3544921875,-0.15478515625,34.69512195121951,-116.03658536585367,82.50000000000001,90,6
462,0.7041015625,0.3154296875,-0.22802734375,30.792682926829272,-111.58536585365854,80.42682926829269,90,6
463,0.74609375,0.3671875,-0.23046875,28.231707317073173,-108.47560975609757,93.59756097560977,90,6
464,0.8291015625,0.451171875,-0.22119140625,30.487804878048784,-109.26829268292684,77.8658536585366,90,6
465,0.82373046875,0.419921875,-0.234375,29.451219512195124,-110.2439024390244,79.26829268292684,90,6
466,0.79931640625,0.345703125,-0.31494140625,27.195121951219516,-109.39024390243904,80.1829268292683,90,6
467,0.7890625,0.3330078125,-0.2919921875,15.975609756097562,-111.46341463414635,79.81707317073172,90,6
468,0.7900390625,0.33642578125,-0.23388671875,41.82926829268293,-115.00000000000001,80.0609756097561,90,6
469,0.78369140625,0.30029296875,-0.13232421875,42.6829268292683,-110.3048780487805,80.48780487804879,90,6
470,0.75927734375,0.2783203125,-0.27099609375,36.890243902439025,-101.46341463414635,80.1219512195122,90,6
471,0.76416015625,0.33056640625,-0.2421875,46.463414634146346,-92.19512195121952,80.42682926829269,90,6
472,0.7783203125,0.34912109375,-0.20458984375,25.243902439024392,-83.71951219512196,81.64634146341464,90,6
473,0.76953125,0.32421875,-0.1943359375,22.134146341463417,-77.37804878048782,81.70731707317074,90,6
474,0.7626953125,0.30517578125,-0.19580078125,21.28048780487805,-75.79268292682927,78.41463414634147,90,6
475,0.6982421875,0.18994140625,-0.46435546875,36.646341463414636,-101.64634146341464,79.75609756097562,90,6
476,0.5927734375,0.07275390625,-0.63671875,55.1219512195122,-115.97560975609757,83.90243902439025,90,6
477,0.615234375,0.0419921875,-0.58154296875,72.13414634146342,-127.01219512195124,86.34146341463415,90,6
478,0.7373046875,0.087890625,-0.53515625,80.79268292682927,-130.609756097561,85.0609756097561,90,6
479,0.7890625,0.00048828125,-0.6474609375,56.34146341463415,-115.73170731707319,82.8048780487805,90,6
480,0.8193359375,0.27783203125,-0.69384765625,22.926829268292686,-91.70731707317074,80.79268292682927,90,6
481,0.876953125,0.3837890625,-0.626953125,-5.670731707317073,-72.07317073170732,82.8048780487805,90,6
482,0.81201171875,0.29541015625,-0.62158203125,-20.48780487804878,-63.90243902439025,87.8048780487805,90,6
483,0.685546875,0.0947265625,-0.66357421875,-25.30487804878049,-60.97560975609757,89.93902439024392,90,6
484,0.54443359375,0.03369140625,-0.57861328125,-18.719512195121954,-64.9390243902439,89.08536585365854,90,6
485,0.529296875,-0.080078125,-0.56640625,-14.26829268292683,-73.59756097560977,87.50000000000001,90,6
486,0.49609375,-0.20849609375,-0.52685546875,17.98780487804878,-62.804878048780495,86.64634146341464,90,6
487,0.5283203125,-0.125,-0.560546875,30.487804878048784,-79.69512195121952,86.95121951219512,90,6
488,0.5029296875,-0.12060546875,-0.5830078125,42.19512195121951,-83.53658536585367,86.28048780487805,90,6
489,0.494140625,-0.12548828125,-0.63818359375,48.65853658536586,-84.45121951219512,86.95121951219512,90,6
490,0.48876953125,-0.15283203125,-0.697265625,46.89024390243903,-78.29268292682927,85.91463414634147,90,6
491,0.53125,-0.11767578125,-0.712890625,40.54878048780488,-69.63414634146342,84.87804878048782,90,6
492,0.541015625,-0.10009765625,-0.78173828125,24.81707317073171,-58.35365853658537,84.20731707317074,90,6
493,0.57275390625,-0.06005859375,-0.82080078125,8.353658536585366,-44.57317073170732,83.29268292682927,90,6
494,0.62548828125,-0.04541015625,-0.791015625,-3.963414634146342,-33.90243902439025,79.87804878048782,90,6
495,0.55859375,-0.31787109375,-0.66015625,-31.158536585365855,-21.585365853658537,80.97560975609757,90,6
496,0.5927734375,-0.22412109375,-0.67724609375,-28.780487804878053,-6.585365853658537,82.50000000000001,90,6
497,0.447265625,-0.24951171875,-0.58447265625,-31.707317073170735,-4.329268292682928,82.13414634146342,90,6
498,0.4052734375,-0.3271484375,-0.55126953125,-21.951219512195124,-3.7195121951219514,85.54878048780489,90,6
499,0.41455078125,-0.2939453125,-0.576171875,-24.451219512195124,6.158536585365854,86.09756097560977,90,6
