,Ax,Ay,Az,Gx,Gy,Gz,distance,shot_type
0,0.64453125,-0.56201171875,-0.2255859375,-11.463414634146343,6.52439024390244,6.463414634146342,60,8
1,0.63525390625,-0.55029296875,-0.23046875,-6.463414634146342,3.353658536585366,5.7926829268292686,60,8
2,0.658203125,-0.53271484375,-0.22265625,-2.682926829268293,1.524390243902439,5.0,60,8
3,0.68505859375,-0.52001953125,-0.2490234375,-1.5853658536585367,0.7317073170731708,4.51219512195122,60,8
4,0.70361328125,-0.47998046875,-0.26708984375,-1.707317073170732,0.7317073170731708,4.024390243902439,60,8
5,0.72802734375,-0.42431640625,-0.27783203125,-3.353658536585366,1.2195121951219514,3.048780487804878,60,8
6,0.75244140625,-0.38623046875,-0.283203125,-9.146341463414634,2.1951219512195124,1.4634146341463417,60,8
7,0.7900390625,-0.35009765625,-0.3017578125,-14.02439024390244,5.3048780487804885,-0.7317073170731708,60,8
8,0.80859375,-0.3154296875,-0.2783203125,-18.84146341463415,8.109756097560977,-3.5975609756097566,60,8
9,0.80908203125,-0.30517578125,-0.21533203125,-22.98780487804878,11.402439024390246,-6.097560975609756,60,8
10,0.79248046875,-0.3134765625,-0.15869140625,-28.475609756097562,14.51219512195122,-8.719512195121952,60,8
11,0.80859375,-0.3017578125,-0.14111328125,-29.87804878048781,17.5609756097561,-11.097560975609756,60,8
12,0.7822265625,-0.3349609375,-0.09423828125,-27.926829268292686,17.195121951219512,-11.52439024390244,60,8
13,0.72119140625,-0.4111328125,-0.05712890625,-19.207317073170735,13.170731707317074,-10.487804878048781,60,8
14,0.748046875,-0.51611328125,-0.0283203125,-7.743902439024391,7.500000000000001,-9.26829268292683,60,8
15,0.59130859375,-0.54345703125,-0.03564453125,3.353658536585366,3.8414634146341466,-7.987804878048781,60,8
16,0.60498046875,-0.51513671875,-0.0537109375,10.24390243902439,2.987804878048781,-5.914634146341464,60,8
17,0.50390625,-0.52587890625,-0.10205078125,13.841463414634148,3.536585365853659,-4.146341463414634,60,8
18,0.64208984375,-0.52587890625,-0.01318359375,16.097560975609756,5.426829268292684,-2.8658536585365857,60,8
19,0.6748046875,-0.53369140625,-0.1552734375,13.658536585365855,10.0,-1.4634146341463417,60,8
20,0.6953125,-0.5341796875,-0.173828125,7.073170731707318,0.48780487804878053,-0.6097560975609757,60,8
21,0.6962890625,-0.525390625,-0.19580078125,2.7439024390243905,19.81707317073171,0.9146341463414634,60,8
22,0.64697265625,-0.5869140625,-0.18603515625,3.353658536585366,19.634146341463417,2.682926829268293,60,8
23,0.50146484375,-0.63916015625,-0.208984375,6.829268292682928,16.28048780487805,3.2926829268292686,60,8
24,0.61474609375,-0.62646484375,-0.23974609375,9.878048780487806,13.109756097560977,3.1097560975609757,60,8
25,0.630859375,-0.6220703125,-0.2666015625,12.317073170731708,9.817073170731708,3.658536585365854,60,8
26,0.63427734375,-0.75,-0.2880859375,13.719512195121952,7.073170731707318,3.414634146341464,60,8
27,0.6435546875,-0.63916015625,-0.30322265625,12.80487804878049,5.3048780487804885,2.6219512195121952,60,8
28,0.65478515625,-0.6416015625,-0.32177734375,11.28048780487805,4.51219512195122,1.707317073170732,60,8
29,0.66357421875,-0.646484375,-0.30810546875,9.02439024390244,4.878048780487806,1.3414634146341464,60,8
30,0.65869140625,-0.65625,-0.3037109375,5.731707317073171,5.7926829268292686,1.402439024390244,60,8
31,0.634765625,-0.669921875,-0.2724609375,4.939024390243903,6.036585365853659,1.707317073170732,60,8
32,0.60302734375,-0.67333984375,-0.23046875,5.914634146341464,5.670731707317073,1.2804878048780488,60,8
33,0.61083984375,-0.63330078125,-0.2119140625,6.646341463414635,5.609756097560976,0.853658536585366,60,8
34,0.634765625,-0.5869140625,-0.1904296875,7.987804878048781,5.548780487804878,0.9146341463414634,60,8
35,0.64111328125,-0.5693359375,-0.18212890625,8.414634146341465,5.7926829268292686,2.073170731707317,60,8
36,0.6279296875,-0.58544921875,-0.17138671875,8.78048780487805,6.585365853658537,2.3170731707317076,60,8
37,0.60595703125,-0.57470703125,-0.1611328125,10.487804878048781,5.426829268292684,2.682926829268293,60,8
38,0.61328125,-0.57568359375,-0.16748046875,13.841463414634148,3.7195121951219514,3.353658536585366,60,8
39,0.61865234375,-0.5869140625,-0.15380859375,16.219512195121954,2.804878048780488,4.75609756097561,60,8
40,0.6123046875,-0.59130859375,-0.1708984375,19.02439024390244,-0.6097560975609757,5.853658536585367,60,8
41,0.6591796875,-0.5458984375,-0.205078125,22.073170731707318,-4.146341463414634,5.487804878048781,60,8
42,0.70751953125,-0.5078125,-0.22509765625,21.707317073170735,-2.5,5.121951219512195,60,8
43,0.73681640625,-0.4794921875,-0.2294921875,16.28048780487805,0.426829268292683,4.085365853658537,60,8
44,0.7197265625,-0.474609375,-0.20849609375,11.76829268292683,4.146341463414634,2.9268292682926833,60,8
45,0.7265625,-0.4716796875,-0.19384765625,7.439024390243903,7.500000000000001,1.9512195121951221,60,8
46,0.71435546875,-0.4638671875,-0.1640625,3.1707317073170733,11.219512195121952,1.7682926829268295,60,8
47,0.6884765625,-0.4736328125,-0.14404296875,0.6707317073170732,13.29268292682927,1.8902439024390245,60,8
48,0.673828125,-0.48095703125,-0.1103515625,1.2804878048780488,14.329268292682928,1.4634146341463417,60,8
49,0.67529296875,-0.5107421875,-0.07666015625,2.1951219512195124,15.731707317073171,1.6463414634146343,60,8
50,0.67041015625,-0.51708984375,-0.041015625,2.9268292682926833,17.682926829268293,2.073170731707317,60,8
51,0.65966796875,-0.51953125,-0.025390625,4.75609756097561,16.646341463414636,2.987804878048781,60,8
52,0.6806640625,-0.5224609375,-0.0361328125,8.78048780487805,13.597560975609758,3.1097560975609757,60,8
53,0.72900390625,-0.505859375,-0.03759765625,10.853658536585368,14.878048780487806,4.024390243902439,60,8
54,0.73974609375,-0.5,-0.06201171875,7.560975609756098,19.26829268292683,3.9024390243902443,60,8
55,0.7490234375,-0.5029296875,-0.0791015625,2.9268292682926833,23.78048780487805,4.024390243902439,60,8
56,0.73193359375,-0.51123046875,-0.11181640625,-2.5,28.170731707317074,4.939024390243903,60,8
57,0.7197265625,-0.533203125,-0.12744140625,-7.25609756097561,32.5609756097561,6.2804878048780495,60,8
58,0.70849609375,-0.56201171875,-0.09814453125,-9.817073170731708,36.21951219512196,6.52439024390244,60,8
59,0.70849609375,-0.58349609375,-0.06298828125,-9.878048780487806,39.268292682926834,7.195121951219513,60,8
60,0.7021484375,-0.591796875,-0.04638671875,-9.939024390243903,42.01219512195122,7.865853658536586,60,8
61,0.68994140625,-0.60400390625,-0.029296875,-9.939024390243903,44.93902439024391,8.719512195121952,60,8
62,0.66015625,-0.615234375,-0.0263671875,-8.78048780487805,47.07317073170732,9.634146341463415,60,8
63,0.64501953125,-0.62158203125,-0.00830078125,-6.890243902439025,48.41463414634147,10.914634146341465,60,8
64,0.65087890625,-0.6162109375,0.009765625,-4.51219512195122,49.32926829268293,12.500000000000002,60,8
65,0.658203125,-0.62255859375,0.0400390625,-4.390243902439025,50.1219512195122,14.329268292682928,60,8
66,0.634765625,-0.638671875,0.0107421875,-6.951219512195123,51.768292682926834,16.70731707317073,60,8
67,0.63232421875,-0.62060546875,-0.01123046875,-7.865853658536586,53.84146341463415,18.475609756097562,60,8
68,0.6455078125,-0.580078125,-0.03515625,-8.109756097560977,55.365853658536594,19.085365853658537,60,8
69,0.6513671875,-0.5546875,-0.041015625,-9.817073170731708,57.804878048780495,18.353658536585368,60,8
70,0.68505859375,-0.51318359375,-0.04931640625,-11.402439024390246,60.243902439024396,16.34146341463415,60,8
71,0.71923828125,-0.4873046875,-0.060546875,-14.573170731707318,62.6219512195122,14.02439024390244,60,8
72,0.732421875,-0.4951171875,-0.0751953125,-18.902439024390244,64.32926829268293,11.890243902439025,60,8
73,0.72705078125,-0.5087890625,-0.11181640625,-19.207317073170735,63.23170731707317,11.036585365853659,60,8
74,0.72900390625,-0.533203125,-0.130859375,-16.70731707317073,60.060975609756106,10.182926829268293,60,8
75,0.71240234375,-0.54248046875,-0.1484375,-11.890243902439025,54.93902439024391,8.597560975609756,60,8
76,0.70556640625,-0.55029296875,-0.1533203125,-7.134146341463415,50.73170731707317,7.987804878048781,60,8
77,0.71484375,-0.5263671875,-0.14892578125,-3.658536585365854,48.10975609756098,8.414634146341465,60,8
78,0.71923828125,-0.5068359375,-0.1337890625,-2.073170731707317,46.15853658536586,8.475609756097562,60,8
79,0.72021484375,-0.49365234375,-0.14013671875,-5.121951219512195,47.43902439024391,8.292682926829269,60,8
80,0.69970703125,-0.4833984375,-0.1728515625,-11.829268292682928,51.768292682926834,7.865853658536586,60,8
81,0.71484375,-0.42822265625,-0.1796875,-17.25609756097561,54.207317073170735,7.134146341463415,60,8
82,0.728515625,-0.4013671875,-0.16259765625,-20.182926829268293,54.085365853658544,6.646341463414635,60,8
83,0.732421875,-0.41748046875,-0.1474609375,-21.707317073170735,54.085365853658544,6.890243902439025,60,8
84,0.72216796875,-0.45166015625,-0.13671875,-22.926829268292686,52.743902439024396,7.926829268292684,60,8
85,0.70263671875,-0.47705078125,-0.1572265625,-22.31707317073171,50.73170731707317,8.78048780487805,60,8
86,0.7041015625,-0.486328125,-0.1474609375,-22.134146341463417,49.75609756097561,8.597560975609756,60,8
87,0.6826171875,-0.45068359375,-0.16455078125,-23.59756097560976,48.963414634146346,8.048780487804878,60,8
88,0.68212890625,-0.4599609375,-0.12646484375,-27.012195121951223,49.87804878048781,6.707317073170732,60,8
89,0.6787109375,-0.49951171875,-0.12060546875,-29.207317073170735,50.487804878048784,6.2804878048780495,60,8
90,0.67626953125,-0.49609375,-0.0087890625,-29.695121951219516,49.57317073170732,5.914634146341464,60,8
91,0.68017578125,-0.48974609375,-0.1552734375,-29.146341463414636,47.01219512195122,5.060975609756098,60,8
92,0.69140625,-0.490234375,-0.14794921875,-26.463414634146343,42.86585365853659,3.2926829268292686,60,8
93,0.7109375,-0.46484375,-0.15478515625,-22.926829268292686,37.37804878048781,1.5853658536585367,60,8
94,0.73583984375,-0.44580078125,-0.166015625,-22.31707317073171,34.51219512195122,0.0,60,8
95,0.72509765625,-0.4482421875,-0.158203125,-24.390243902439025,34.63414634146342,-1.0975609756097562,60,8
96,0.7119140625,-0.42822265625,-0.1455078125,-27.987804878048784,36.40243902439025,-2.987804878048781,60,8
97,0.72265625,-0.39453125,-0.13916015625,-32.31707317073171,38.65853658536586,-5.2439024390243905,60,8
98,0.7119140625,-0.38720703125,-0.12939453125,-36.951219512195124,39.268292682926834,-7.439024390243903,60,8
99,0.71435546875,-0.3779296875,-0.12158203125,-40.91463414634147,38.963414634146346,-8.841463414634147,60,8
100,0.70849609375,-0.3984375,-0.10400390625,-41.890243902439025,37.80487804878049,-10.30487804878049,60,8
101,0.69384765625,-0.43603515625,-0.08544921875,-41.58536585365854,36.28048780487805,-10.609756097560977,60,8
102,0.6904296875,-0.4384765625,-0.0830078125,-39.75609756097561,34.146341463414636,-11.52439024390244,60,8
103,0.685546875,-0.43310546875,-0.0732421875,-38.90243902439025,32.43902439024391,-12.74390243902439,60,8
104,0.67529296875,-0.43701171875,-0.09521484375,-37.37804878048781,30.000000000000004,-14.146341463414636,60,8
105,0.6875,-0.41845703125,-0.11474609375,-36.951219512195124,28.231707317073173,-16.158536585365855,60,8
106,0.69482421875,-0.3984375,-0.1318359375,-41.951219512195124,28.353658536585368,-21.097560975609756,60,8
107,0.70751953125,-0.3759765625,-0.001953125,-46.768292682926834,28.719512195121954,-22.5609756097561,60,8
108,0.70166015625,-0.39794921875,-0.12158203125,-49.57317073170732,27.500000000000004,-23.353658536585368,60,8
109,0.69775390625,-0.3916015625,-0.1279296875,-50.1219512195122,25.670731707317074,-24.75609756097561,60,8
110,0.69970703125,-0.38427734375,-0.1279296875,-50.426829268292686,24.451219512195124,-25.426829268292686,60,8
111,0.69775390625,-0.37939453125,-0.1318359375,-51.15853658536586,23.902439024390247,-25.731707317073173,60,8
112,0.70556640625,-0.38671875,-0.12548828125,-52.43902439024391,24.085365853658537,-25.975609756097562,60,8
113,0.71142578125,-0.36083984375,-0.1455078125,-53.963414634146346,23.84146341463415,-26.82926829268293,60,8
114,0.7109375,-0.35888671875,-0.15380859375,-56.03658536585366,23.963414634146343,-27.865853658536587,60,8
115,0.72314453125,-0.35888671875,-0.14404296875,-58.53658536585366,25.000000000000004,-28.84146341463415,60,8
116,0.73974609375,-0.34033203125,-0.158203125,-61.768292682926834,26.34146341463415,-29.573170731707318,60,8
117,0.759765625,-0.3125,-0.16748046875,-66.58536585365854,27.80487804878049,-30.792682926829272,60,8
118,0.76953125,-0.3017578125,-0.18408203125,-72.6219512195122,29.87804878048781,-32.6219512195122,60,8
119,0.7880859375,-0.29150390625,-0.19287109375,-77.6219512195122,31.707317073170735,-34.63414634146342,60,8
120,0.78759765625,-0.29638671875,-0.17724609375,-81.52439024390245,32.37804878048781,-36.82926829268293,60,8
121,0.77880859375,-0.32666015625,-0.1767578125,-83.10975609756099,32.13414634146342,-39.024390243902445,60,8
122,0.76220703125,-0.33642578125,-0.17138671875,-82.8048780487805,30.975609756097565,-41.03658536585366,60,8
123,0.76220703125,-0.33056640625,-0.1787109375,-81.95121951219512,29.207317073170735,-43.35365853658537,60,8
124,0.779296875,-0.31298828125,-0.17138671875,-81.58536585365854,27.743902439024392,-45.426829268292686,60,8
125,0.7783203125,-0.298828125,-0.16259765625,-82.7439024390244,27.25609756097561,-46.951219512195124,60,8
126,0.77392578125,-0.29052734375,-0.1806640625,-84.14634146341464,26.707317073170735,-48.78048780487805,60,8
127,0.7890625,-0.2861328125,-0.16064453125,-85.67073170731707,26.34146341463415,-50.1219512195122,60,8
128,0.783203125,-0.2939453125,-0.16650390625,-86.58536585365854,26.28048780487805,-51.82926829268293,60,8
129,0.79638671875,-0.27880859375,-0.18505859375,-87.31707317073172,25.60975609756098,-54.024390243902445,60,8
130,0.8076171875,-0.2578125,-0.19775390625,-88.96341463414635,25.365853658536587,-56.28048780487806,60,8
131,0.81396484375,-0.2685546875,-0.216796875,-91.34146341463415,25.121951219512198,-58.53658536585366,60,8
132,0.818359375,-0.263671875,-0.220703125,-91.46341463414635,23.78048780487805,-60.487804878048784,60,8
133,0.82568359375,-0.26513671875,-0.2255859375,-91.09756097560977,22.25609756097561,-62.13414634146342,60,8
134,0.82763671875,-0.27197265625,-0.2470703125,-91.21951219512196,21.585365853658537,-64.32926829268293,60,8
135,0.8466796875,-0.22265625,-0.27978515625,-91.64634146341464,20.48780487804878,-67.25609756097562,60,8
136,0.88720703125,-0.17578125,-0.2646484375,-93.53658536585367,19.939024390243905,-70.1829268292683,60,8
137,0.90380859375,-0.17529296875,-0.27685546875,-97.98780487804879,21.219512195121954,-73.35365853658537,60,8
138,0.9091796875,-0.1806640625,-0.2939453125,-102.43902439024392,23.10975609756098,-77.5,60,8
139,0.9189453125,-0.1787109375,-0.28466796875,-106.52439024390245,24.390243902439025,-81.52439024390245,60,8
140,0.9091796875,-0.1953125,-0.2666015625,-108.90243902439025,24.634146341463417,-83.90243902439025,60,8
141,0.8857421875,-0.23095703125,-0.26220703125,-109.08536585365854,24.878048780487806,-86.52439024390245,60,8
142,0.88818359375,-0.20947265625,-0.26416015625,-108.35365853658537,24.390243902439025,-89.63414634146342,60,8
143,0.8916015625,-0.17529296875,-0.2734375,-109.26829268292684,24.695121951219516,-92.6829268292683,60,8
144,0.92626953125,-0.1640625,-0.2529296875,-111.76829268292684,26.09756097560976,-96.21951219512196,60,8
145,0.95849609375,-0.1484375,-0.2509765625,-114.39024390243904,27.31707317073171,-98.78048780487806,60,8
146,0.9833984375,-0.13037109375,-0.296875,-116.09756097560977,26.463414634146343,-100.85365853658537,60,8
147,1.01904296875,-0.10400390625,-0.31494140625,-116.46341463414635,25.243902439024392,-103.41463414634147,60,8
148,1.02099609375,-0.0947265625,-0.318359375,-116.58536585365854,24.32926829268293,-105.60975609756099,60,8
149,1.048828125,-0.06201171875,-0.3388671875,-118.23170731707319,24.695121951219516,-108.29268292682927,60,8
150,1.07861328125,-0.04150390625,-0.35205078125,-119.08536585365854,24.512195121951223,-112.01219512195122,60,8
151,1.11865234375,-0.01904296875,-0.34619140625,-120.91463414634147,25.365853658536587,-116.34146341463416,60,8
152,1.13671875,-0.009765625,-0.32470703125,-123.78048780487806,26.158536585365855,-118.23170731707319,60,8
153,1.14404296875,-0.029296875,-0.31787109375,-126.76829268292684,26.707317073170735,-120.67073170731709,60,8
154,1.1376953125,-0.03271484375,-0.30126953125,-127.92682926829269,26.58536585365854,-123.65853658536587,60,8
155,1.13427734375,-0.0732421875,-0.3056640625,-127.92682926829269,26.09756097560976,-125.97560975609757,60,8
156,1.1328125,-0.08837890625,-0.2890625,-125.48780487804879,25.182926829268293,-128.84146341463415,60,8
157,1.1591796875,-0.04833984375,-0.2822265625,-122.56097560975611,23.170731707317074,-132.19512195121953,60,8
158,1.1787109375,-0.01513671875,-0.28759765625,-123.04878048780489,23.04878048780488,-136.09756097560978,60,8
159,1.216796875,0.01904296875,-0.2822265625,-125.3658536585366,24.26829268292683,-139.51219512195124,60,8
160,1.220703125,0.01416015625,-0.328125,-129.02439024390245,23.53658536585366,-142.9878048780488,60,8
161,1.22216796875,0.03369140625,-0.310546875,-131.03658536585368,23.902439024390247,-147.4390243902439,60,8
162,1.2333984375,0.03369140625,-0.28515625,-131.21951219512195,23.231707317073173,-150.0,60,8
163,1.23486328125,0.02734375,-0.26025390625,-129.69512195121953,21.34146341463415,-151.95121951219514,60,8
164,1.22265625,0.123046875,-0.3017578125,-129.63414634146343,19.451219512195124,-153.65853658536588,60,8
165,1.197265625,0.033203125,-0.30029296875,-129.45121951219514,18.414634146341466,-157.37804878048783,60,8
166,1.21728515625,0.0625,-0.31201171875,-129.57317073170734,17.621951219512198,-159.26829268292684,60,8
167,1.24462890625,0.0693359375,-0.28125,-129.51219512195124,17.926829268292686,-161.03658536585368,60,8
168,1.26806640625,0.09375,-0.2919921875,-129.26829268292684,19.573170731707318,-163.84146341463415,60,8
169,1.3017578125,0.00341796875,-0.2841796875,-129.57317073170734,20.182926829268293,-165.85365853658539,60,8
170,1.310546875,0.1259765625,-0.29345703125,-130.4268292682927,19.573170731707318,-167.31707317073173,60,8
171,1.30810546875,0.14111328125,-0.2744140625,-129.81707317073173,20.975609756097562,-170.3048780487805,60,8
172,1.326171875,0.13232421875,-0.26806640625,-129.69512195121953,21.951219512195124,-156.15853658536588,60,8
173,1.34521484375,0.150390625,-0.2275390625,-129.08536585365854,23.84146341463415,-175.3658536585366,60,8
174,1.37158203125,0.19189453125,-0.208984375,-127.37804878048782,24.634146341463417,-177.8048780487805,60,8
175,1.38134765625,0.208984375,-0.19775390625,-125.00000000000001,21.82926829268293,-180.3658536585366,60,8
176,1.408203125,0.12744140625,-0.21875,-122.31707317073172,22.25609756097561,-184.51219512195124,60,8
177,1.44970703125,0.30908203125,-0.17578125,-122.25609756097562,23.414634146341466,-189.20731707317074,60,8
178,1.4677734375,0.30859375,-0.185546875,-124.75609756097562,25.000000000000004,-193.41463414634148,60,8
179,1.45458984375,0.27978515625,-0.17529296875,-124.69512195121952,27.134146341463417,-197.25609756097563,60,8
180,1.47412109375,0.291015625,-0.146484375,-123.47560975609757,29.02439024390244,-199.51219512195124,60,8
181,1.498046875,0.3095703125,-0.123046875,-122.50000000000001,30.914634146341466,-202.43902439024393,60,8
182,1.52685546875,0.31689453125,-0.1396484375,-123.47560975609757,32.926829268292686,-204.75609756097563,60,8
183,1.54931640625,0.33837890625,-0.13818359375,-124.32926829268294,33.65853658536586,-205.6707317073171,60,8
184,1.5595703125,0.33349609375,-0.1552734375,-124.81707317073172,36.40243902439025,-209.14634146341464,60,8
185,1.58984375,0.33740234375,-0.1591796875,-127.13414634146342,39.024390243902445,-211.15853658536588,60,8
186,1.5634765625,0.32421875,-0.17138671875,-127.8048780487805,39.87804878048781,-212.9268292682927,60,8
187,1.54931640625,0.29931640625,-0.138671875,-126.21951219512196,40.79268292682927,-216.34146341463418,60,8
188,1.529296875,0.3076171875,-0.08203125,-122.19512195121952,39.57317073170732,-219.51219512195124,60,8
189,1.5009765625,0.29150390625,-0.03955078125,-118.17073170731709,37.13414634146342,-222.19512195121953,60,8
190,1.453125,0.26953125,-0.00634765625,-112.92682926829269,36.03658536585366,-224.63414634146343,60,8
191,1.4033203125,0.24560546875,0.01611328125,-107.8658536585366,34.32926829268293,-225.609756097561,60,8
192,1.3447265625,0.22998046875,0.05712890625,-102.56097560975611,31.58536585365854,-225.6707317073171,60,8
193,1.27197265625,0.18994140625,0.1025390625,-95.42682926829269,29.451219512195124,-226.28048780487808,60,8
194,1.1962890625,0.169921875,0.158203125,-87.37804878048782,26.82926829268293,-226.95121951219514,60,8
195,1.1298828125,0.16259765625,0.18359375,-79.63414634146342,23.84146341463415,-227.19512195121953,60,8
196,1.0546875,0.18310546875,0.18505859375,-74.63414634146342,23.53658536585366,-230.4878048780488,60,8
197,1.048828125,0.22265625,0.17822265625,-73.96341463414635,22.98780487804878,-232.9268292682927,60,8
198,1.0224609375,0.20947265625,0.1396484375,-75.79268292682927,26.76829268292683,-235.18292682926833,60,8
199,0.97021484375,0.18310546875,0.203125,-75.79268292682927,29.87804878048781,-234.75609756097563,60,8
200,0.92333984375,0.146484375,0.21728515625,-71.46341463414635,30.000000000000004,-234.02439024390245,60,8
201,0.890625,0.126953125,0.20703125,-64.26829268292684,30.487804878048784,-231.64634146341464,60,8
202,0.84765625,0.07958984375,0.2353515625,-55.85365853658537,30.30487804878049,-228.2926829268293,60,8
203,0.791015625,0.046875,0.27197265625,-47.01219512195122,29.32926829268293,-222.9268292682927,60,8
204,0.70751953125,0.0341796875,0.3076171875,-39.69512195121951,29.207317073170735,-217.9878048780488,60,8
205,0.67724609375,0.0439453125,0.23583984375,-35.426829268292686,27.987804878048784,-213.1707317073171,60,8
206,0.60205078125,0.06689453125,0.17626953125,-33.59756097560976,27.621951219512198,-209.75609756097563,60,8
207,0.57373046875,0.06396484375,0.1728515625,-32.6829268292683,27.682926829268297,-205.4878048780488,60,8
208,0.56005859375,0.05517578125,0.2109375,-31.646341463414636,27.682926829268297,-202.43902439024393,60,8
209,0.52001953125,0.0068359375,0.22216796875,-29.695121951219516,29.39024390243903,-199.45121951219514,60,8
210,0.4619140625,-0.029296875,0.2470703125,-25.426829268292686,28.53658536585366,-194.63414634146343,60,8
211,0.40380859375,-0.04296875,0.26513671875,-20.914634146341466,27.012195121951223,-189.32926829268294,60,8
212,0.32958984375,-0.08935546875,0.2998046875,-13.841463414634148,25.975609756097562,-182.6829268292683,60,8
213,0.29345703125,-0.1474609375,0.3251953125,-6.890243902439025,24.451219512195124,-174.87804878048783,60,8
214,0.208984375,-0.21923828125,0.34912109375,-1.6463414634146343,20.731707317073173,-167.6829268292683,60,8
215,0.15185546875,-0.26025390625,0.3193359375,0.9146341463414634,17.378048780487806,-160.3048780487805,60,8
216,0.0869140625,-0.32373046875,0.306640625,1.8902439024390245,17.5,-150.4878048780488,60,8
217,0.01904296875,-0.40380859375,0.3203125,3.1707317073170733,18.719512195121954,-138.90243902439025,60,8
218,-0.10498046875,-0.3779296875,0.38525390625,7.01219512195122,14.329268292682928,-123.47560975609757,60,8
219,-0.22509765625,-0.62451171875,0.35107421875,9.390243902439025,14.573170731707318,-111.95121951219514,60,8
220,-0.15673828125,-0.58251953125,0.306640625,8.231707317073171,17.134146341463417,-97.5609756097561,60,8
221,-0.12744140625,-0.68505859375,0.27587890625,1.829268292682927,21.463414634146343,-83.35365853658537,60,8
222,-0.36962890625,-0.79443359375,0.39111328125,2.8658536585365857,23.170731707317074,-68.59756097560977,60,8
223,-0.43505859375,-0.89208984375,0.42919921875,7.8048780487804885,20.975609756097562,-51.646341463414636,60,8
224,-0.45263671875,-0.97705078125,0.421875,16.82926829268293,17.682926829268293,-36.34146341463415,60,8
225,-0.4287109375,-1.0126953125,0.43505859375,25.121951219512198,14.817073170731708,-21.52439024390244,60,8
226,-0.40087890625,-1.03173828125,0.5625,33.65853658536586,13.170731707317074,-5.548780487804878,60,8
227,-0.39990234375,-1.0830078125,0.6044921875,40.60975609756098,13.109756097560977,9.878048780487806,60,8
228,-0.3974609375,-1.00390625,0.6162109375,45.304878048780495,0.1829268292682927,23.902439024390247,60,8
229,-0.3955078125,-1.19091796875,0.74072265625,48.10975609756098,17.865853658536587,39.57317073170732,60,8
230,-0.40576171875,-1.33642578125,0.5615234375,53.23170731707317,20.853658536585368,57.560975609756106,60,8
231,-0.416015625,-1.51611328125,0.52001953125,63.71951219512196,22.378048780487806,77.19512195121952,60,8
232,-0.40478515625,-1.6748046875,0.5439453125,62.560975609756106,22.31707317073171,97.50000000000001,60,8
233,-0.3642578125,-1.79833984375,0.55517578125,93.41463414634147,23.231707317073173,117.50000000000001,60,8
234,-0.287109375,-1.89501953125,0.5400390625,105.54878048780489,26.219512195121954,138.59756097560978,60,8
235,-0.24072265625,-1.99853515625,0.5361328125,111.15853658536587,32.86585365853659,160.91463414634148,60,8
236,-0.21240234375,-2.15380859375,0.54345703125,113.10975609756099,42.86585365853659,185.3658536585366,60,8
237,-0.22998046875,-2.25341796875,0.59814453125,112.43902439024392,54.451219512195124,210.7926829268293,60,8
238,-0.203125,-2.59228515625,0.67724609375,109.69512195121952,65.42682926829269,220.06097560975613,60,8
239,-0.06494140625,-2.79052734375,0.6416015625,113.23170731707319,72.43902439024392,262.2560975609756,60,8
240,0.11669921875,-3.07958984375,0.5439453125,117.8658536585366,78.84146341463415,292.8048780487805,60,8
241,0.3359375,-3.27783203125,0.49462890625,129.26829268292684,83.78048780487805,327.5609756097561,60,8
242,0.564453125,-3.630859375,0.4130859375,144.9390243902439,88.29268292682927,365.9146341463415,60,8
243,0.80419921875,-4.087890625,0.4287109375,165.5487804878049,93.29268292682927,405.3048780487805,60,8
244,1.01416015625,-4.42041015625,0.44677734375,186.21951219512198,95.60975609756099,445.8536585365854,60,8
245,1.59619140625,-4.74658203125,0.33251953125,211.46341463414635,87.6829268292683,483.719512195122,60,8
246,2.23583984375,-4.9033203125,0.0048828125,231.34146341463418,77.25609756097562,519.5121951219512,60,8
247,2.85107421875,-5.10595703125,-0.19384765625,234.26829268292684,80.1829268292683,553.8414634146342,60,8
248,3.5703125,-5.5771484375,-0.59130859375,251.34146341463418,75.67073170731707,583.5365853658537,60,8
249,4.14990234375,-6.03271484375,-0.77001953125,267.8048780487805,73.96341463414635,605.9756097560976,60,8
250,5.21826171875,-6.57861328125,-1.2978515625,284.20731707317077,70.60975609756098,639.939024390244,60,8
251,6.38623046875,-6.52685546875,-2.0361328125,347.37804878048786,86.95121951219512,674.3902439024391,60,8
252,7.6279296875,-6.38037109375,-3.04248046875,374.57317073170736,134.81707317073173,746.9512195121952,60,8
253,8.6455078125,-5.71044921875,-4.0322265625,392.01219512195127,165.3048780487805,801.829268292683,60,8
254,10.00146484375,-4.9560546875,-4.64306640625,417.25609756097566,180.609756097561,849.1463414634147,60,8
255,10.86083984375,-3.92333984375,-5.42431640625,474.20731707317077,143.71951219512195,877.7439024390245,60,8
256,11.20849609375,-2.84033203125,-6.30859375,534.7560975609756,106.03658536585367,913.2317073170733,60,8
257,11.25244140625,-1.994140625,-7.06494140625,590.548780487805,15.609756097560977,903.7804878048781,60,8
258,11.36279296875,-0.693359375,-7.42919921875,661.3414634146342,-81.21951219512196,873.8414634146342,60,8
259,10.400390625,-0.61669921875,-7.50439453125,808.9634146341464,-225.6707317073171,799.1463414634147,60,8
260,9.4169921875,-0.9189453125,-7.93359375,929.7560975609757,-420.24390243902445,728.5365853658537,60,8
261,8.259765625,-0.9921875,-8.53564453125,1097.0731707317075,-566.219512195122,605.3048780487806,60,8
262,8.1787109375,0.2421875,-8.24609375,1330.9756097560976,-710.548780487805,481.95121951219517,60,8
263,7.4970703125,0.74658203125,1.8388671875,1997.987804878049,-1467.8658536585367,678.048780487805,60,8
264,-8.34912109375,-16.0,-10.63232421875,776.8902439024391,147.6219512195122,-727.0731707317074,60,8
265,15.99951171875,15.99951171875,-2.85302734375,872.3170731707318,-148.109756097561,295.2439024390244,60,8
266,-13.95556640625,-15.86572265625,-0.5703125,1195.9146341463415,-445.7317073170732,-214.02439024390245,60,8
267,8.13330078125,-1.63232421875,1.94677734375,976.9512195121952,-74.14634146341464,-100.79268292682927,60,8
268,3.91796875,-1.2607421875,-2.45751953125,868.1707317073171,-132.9268292682927,-294.9390243902439,60,8
269,4.8583984375,-1.26513671875,-2.77685546875,756.0365853658537,-60.97560975609757,-378.2926829268293,60,8
270,6.6884765625,0.224609375,-0.59228515625,759.5121951219513,-99.93902439024392,-439.45121951219517,60,8
271,3.939453125,-3.78662109375,-2.5732421875,742.439024390244,-141.21951219512195,-588.719512195122,60,8
272,3.89453125,-1.7099609375,-2.84130859375,564.6341463414635,-89.14634146341464,-610.0609756097562,60,8
273,2.68310546875,-2.09423828125,-2.470703125,475.30487804878055,-45.91463414634147,-648.5365853658537,60,8
274,1.83447265625,-2.255859375,-2.154296875,435.9756097560976,15.243902439024392,-666.1585365853659,60,8
275,1.552734375,-1.89892578125,-1.5322265625,362.56097560975616,57.19512195121952,-700.6707317073171,60,8
276,1.35498046875,-1.4306640625,-1.25439453125,333.9634146341464,99.63414634146342,-728.8414634146342,60,8
277,1.8076171875,-0.68359375,-1.10791015625,302.25609756097566,132.8048780487805,-742.439024390244,60,8
278,2.060546875,-0.40234375,-1.1982421875,271.0365853658537,140.609756097561,-755.0000000000001,60,8
279,2.40771484375,-0.3896484375,-1.2705078125,245.5487804878049,166.89024390243904,-751.1585365853659,60,8
280,2.3759765625,-0.37353515625,-1.28515625,173.65853658536588,196.95121951219514,-730.7317073170732,60,8
281,2.3408203125,-0.5146484375,-1.11083984375,109.93902439024392,227.13414634146343,-704.1463414634147,60,8
282,2.35107421875,-0.8515625,-1.02734375,54.268292682926834,252.43902439024393,-665.9756097560976,60,8
283,2.326171875,-0.9814453125,-1.35498046875,-9.939024390243903,266.3414634146342,-630.1829268292684,60,8
284,2.36279296875,-0.91357421875,-1.56787109375,-75.0609756097561,273.719512195122,-607.1341463414635,60,8
285,1.919921875,-1.03173828125,-1.46826171875,-135.2439024390244,277.25609756097566,-555.0,60,8
286,1.72119140625,-1.35498046875,-0.8662109375,-163.59756097560978,272.5609756097561,-524.2073170731708,60,8
287,1.28759765625,-1.47412109375,-0.39892578125,-168.35365853658539,270.9146341463415,-502.80487804878055,60,8
288,1.1865234375,-1.24267578125,-0.18603515625,-171.28048780487805,270.1829268292683,-487.92682926829275,60,8
289,1.32470703125,-0.93115234375,-0.3076171875,-174.63414634146343,280.6707317073171,-474.39024390243907,60,8
290,1.6005859375,-0.6806640625,-0.431640625,-185.00000000000003,296.5243902439025,-457.92682926829275,60,8
291,1.81201171875,-0.6728515625,-0.57958984375,-201.21951219512198,308.1707317073171,-432.56097560975616,60,8
292,1.9052734375,-0.71875,-0.7216796875,-210.1829268292683,311.4634146341464,-401.4024390243903,60,8
293,1.75244140625,-0.77685546875,-0.9501953125,-225.6707317073171,310.4268292682927,-388.2317073170732,60,8
294,1.46630859375,-0.853515625,-1.2421875,-235.609756097561,306.82926829268297,-347.7439024390244,60,8
295,1.2255859375,-0.99609375,-1.23828125,-236.76829268292684,297.6219512195122,-328.3536585365854,60,8
296,0.916015625,-0.8291015625,-1.22607421875,-228.78048780487808,286.6463414634147,-314.1463414634147,60,8
297,0.73828125,-0.68212890625,-1.0673828125,-233.96341463414637,281.219512195122,-303.4146341463415,60,8
298,0.60107421875,-0.580078125,-0.98486328125,-215.5487804878049,284.9390243902439,-290.3048780487805,60,8
299,0.552734375,-0.37548828125,-0.81494140625,-231.28048780487808,293.2317073170732,-278.109756097561,60,8
300,0.25732421875,-0.27734375,-0.869140625,-242.8658536585366,292.9878048780488,-259.45121951219517,60,8
301,0.1552734375,-0.23193359375,-0.9599609375,-243.0487804878049,274.32926829268297,-243.78048780487808,60,8
302,0.2421875,-0.49560546875,-1.1513671875,-230.12195121951223,259.8170731707317,-232.31707317073173,60,8
303,-0.02490234375,-0.30615234375,-1.0068359375,-230.3048780487805,240.18292682926833,-215.18292682926833,60,8
304,-0.1630859375,-0.41552734375,-0.7763671875,-214.39024390243904,230.3048780487805,-206.58536585365854,60,8
305,-0.27587890625,-0.4326171875,-0.61279296875,-213.109756097561,226.70731707317074,-195.97560975609758,60,8
306,-0.27099609375,-0.474609375,-0.607421875,-217.9878048780488,223.0487804878049,-186.52439024390245,60,8
307,-0.15087890625,-0.2236328125,-0.67822265625,-224.14634146341464,221.15853658536588,-176.64634146341464,60,8
308,-0.1787109375,-0.21728515625,-0.796875,-224.08536585365854,210.7317073170732,-167.13414634146343,60,8
309,-0.24609375,-0.2138671875,-0.84716796875,-212.7439024390244,195.6707317073171,-156.95121951219514,60,8
310,-0.36083984375,-0.28857421875,-0.912109375,-200.609756097561,175.1219512195122,-145.7926829268293,60,8
311,-0.48095703125,-0.34423828125,-0.921875,-188.71951219512198,158.65853658536588,-135.1829268292683,60,8
312,-0.65771484375,-0.4638671875,-0.91455078125,-179.39024390243904,142.37804878048783,-139.75609756097563,60,8
313,-0.78125,-0.46533203125,-0.77001953125,-170.97560975609758,129.75609756097563,-112.37804878048782,60,8
314,-0.79052734375,-0.5,-0.681640625,-168.41463414634148,113.47560975609757,-98.10975609756099,60,8
315,-0.8564453125,-0.501953125,-0.62158203125,-158.71951219512198,122.62195121951221,-90.0609756097561,60,8
316,-0.82568359375,-0.388671875,-0.72021484375,-171.70731707317074,118.17073170731709,-81.34146341463415,60,8
317,-0.75927734375,-0.37158203125,-0.8095703125,-149.26829268292684,110.00000000000001,-71.70731707317074,60,8
318,-0.82275390625,-0.33447265625,-0.81298828125,-134.45121951219514,95.97560975609757,-77.7439024390244,60,8
319,-0.95068359375,-0.36328125,-0.71630859375,-122.8658536585366,86.28048780487805,-54.75609756097561,60,8
320,-1.041015625,-0.35595703125,-0.61181640625,-115.12195121951221,80.0,-48.53658536585366,60,8
321,-1.10205078125,-0.34033203125,-0.54345703125,-110.1219512195122,75.48780487804879,-43.59756097560976,60,8
322,-1.0009765625,-0.3212890625,-0.53759765625,-107.01219512195122,69.57317073170732,-38.59756097560976,60,8
323,-1.15185546875,-0.31396484375,-0.55712890625,-102.8658536585366,77.8658536585366,-31.951219512195124,60,8
324,-1.19873046875,-0.3349609375,-0.57275390625,-94.14634146341464,50.91463414634147,-23.53658536585366,60,8
325,-1.23291015625,-0.4140625,-0.56103515625,-84.93902439024392,40.79268292682927,-30.670731707317074,60,8
326,-1.259765625,-0.42431640625,-0.57861328125,-76.64634146341464,33.170731707317074,-7.621951219512196,60,8
327,-1.27197265625,-0.39208984375,-0.5595703125,-69.57317073170732,27.012195121951223,-1.0975609756097562,60,8
328,-1.2578125,-0.30126953125,-0.537109375,-61.463414634146346,20.121951219512198,5.060975609756098,60,8
329,-1.24853515625,-0.3740234375,-0.5283203125,-57.37804878048781,14.634146341463415,9.878048780487806,60,8
330,-1.2275390625,-0.205078125,-0.5400390625,-54.146341463414636,8.475609756097562,11.951219512195124,60,8
331,-1.19970703125,-0.16552734375,-0.5087890625,-49.75609756097561,2.073170731707317,14.451219512195124,60,8
332,-1.16796875,-0.14892578125,-0.42919921875,-45.487804878048784,-4.024390243902439,18.353658536585368,60,8
333,-1.166015625,-0.15234375,-0.3818359375,-42.07317073170732,-8.475609756097562,22.80487804878049,60,8
334,-1.20751953125,-0.1572265625,-0.33251953125,-37.13414634146342,-12.80487804878049,27.987804878048784,60,8
335,-1.23291015625,-0.1572265625,-0.34423828125,-32.926829268292686,-18.231707317073173,33.41463414634146,60,8
336,-1.23974609375,-0.15576171875,-0.49951171875,-25.182926829268293,-23.170731707317074,36.524390243902445,60,8
337,-1.20068359375,-0.12841796875,-0.3515625,-16.76829268292683,-29.02439024390244,39.81707317073171,60,8
338,-1.17431640625,-0.095703125,-0.314453125,-9.329268292682928,-33.90243902439025,42.6829268292683,60,8
339,-1.142578125,-0.05859375,-0.27294921875,-4.207317073170732,-36.890243902439025,44.57317073170732,60,8
340,-1.14208984375,-0.02587890625,-0.23291015625,-0.30487804878048785,-40.73170731707317,46.58536585365854,60,8
341,-1.1640625,0.01220703125,-0.20556640625,4.451219512195122,-44.63414634146342,48.35365853658537,60,8
342,-1.193359375,0.01123046875,-0.1875,8.719512195121952,-48.71951219512196,49.146341463414636,60,8
343,-1.21044921875,0.03369140625,-0.171875,12.926829268292684,-51.15853658536586,49.57317073170732,60,8
344,-1.1943359375,0.0439453125,-0.15673828125,16.951219512195124,-54.024390243902445,49.87804878048781,60,8
345,-1.17529296875,0.0908203125,-0.15771484375,21.646341463414636,-56.82926829268293,50.487804878048784,60,8
346,-1.166015625,0.1083984375,-0.16259765625,26.09756097560976,-59.75609756097562,51.03658536585366,60,8
347,-1.16748046875,0.00634765625,-0.14697265625,29.75609756097561,-62.13414634146342,50.670731707317074,60,8
348,-1.166015625,0.1591796875,-0.14599609375,33.78048780487805,-64.45121951219512,50.97560975609756,60,8
349,-1.181640625,0.1630859375,-0.12744140625,36.40243902439025,-66.70731707317074,50.85365853658537,60,8
350,-1.17822265625,0.1669921875,-0.0947265625,38.59756097560976,-68.59756097560977,51.34146341463415,60,8
351,-1.18408203125,0.17578125,-0.06494140625,40.85365853658537,-70.85365853658537,51.768292682926834,60,8
352,-1.19775390625,0.18896484375,-0.03173828125,41.40243902439025,-72.5,52.13414634146342,60,8
353,-1.19873046875,0.18505859375,0.00830078125,41.524390243902445,-73.96341463414635,52.25609756097561,60,8
354,-1.1982421875,0.201171875,0.0341796875,43.29268292682927,-75.91463414634147,52.07317073170732,60,8
355,-1.189453125,0.205078125,0.03173828125,46.768292682926834,-78.59756097560977,51.707317073170735,60,8
356,-1.17236328125,0.2255859375,0.0283203125,51.40243902439025,-81.03658536585367,51.21951219512196,60,8
357,-1.1513671875,0.24267578125,0.0400390625,54.81707317073171,-82.37804878048782,50.36585365853659,60,8
358,-1.12060546875,0.2685546875,0.04345703125,55.91463414634147,-82.8048780487805,49.57317073170732,60,8
359,-1.0908203125,0.2939453125,0.0439453125,54.69512195121952,-82.8048780487805,48.71951219512196,60,8
360,-1.09130859375,0.30810546875,0.05322265625,54.207317073170735,-85.0609756097561,47.86585365853659,60,8
361,-1.09716796875,0.30126953125,0.080078125,53.41463414634147,-87.19512195121952,47.13414634146342,60,8
362,-1.1123046875,0.27880859375,0.10009765625,53.65853658536586,-88.71951219512196,45.73170731707317,60,8
363,-1.10595703125,0.27001953125,0.11572265625,53.47560975609757,-89.69512195121952,44.51219512195122,60,8
364,-1.0810546875,0.2861328125,0.11474609375,53.29268292682927,-91.03658536585367,43.84146341463415,60,8
365,-1.04736328125,0.296875,0.1162109375,53.84146341463415,-92.7439024390244,43.53658536585366,60,8
366,-1.04833984375,0.27978515625,0.1357421875,54.63414634146342,-94.45121951219512,43.35365853658537,60,8
367,-1.0419921875,0.26904296875,0.166015625,56.82926829268293,-96.58536585365854,42.987804878048784,60,8
368,-1.0302734375,0.27392578125,0.17529296875,59.32926829268293,-97.92682926829269,43.10975609756098,60,8
369,-1.12158203125,0.279296875,0.18359375,60.365853658536594,-98.65853658536587,42.926829268292686,60,8
370,-0.96826171875,0.2939453125,0.18701171875,59.51219512195122,-98.47560975609757,43.47560975609756,60,8
371,-0.93896484375,0.306640625,0.18701171875,59.268292682926834,-99.57317073170732,43.53658536585366,60,8
372,-0.9365234375,0.306640625,0.17626953125,58.65853658536586,-100.06097560975611,42.926829268292686,60,8
373,-0.919921875,0.30078125,0.16943359375,59.268292682926834,-101.58536585365854,42.743902439024396,60,8
374,-0.92578125,0.29833984375,0.19482421875,59.63414634146342,-103.17073170731709,42.6219512195122,60,8
375,-0.9228515625,0.3037109375,0.22314453125,59.51219512195122,-103.96341463414635,42.43902439024391,60,8
376,-0.919921875,0.3056640625,0.2412109375,59.024390243902445,-103.96341463414635,42.37804878048781,60,8
377,-0.9267578125,0.30908203125,0.265625,58.17073170731708,-102.7439024390244,42.37804878048781,60,8
378,-0.89990234375,0.31298828125,0.27734375,58.04878048780488,-102.25609756097562,43.10975609756098,60,8
379,-0.998046875,0.32666015625,0.27734375,57.987804878048784,-101.76829268292684,43.65853658536586,60,8
380,-0.83984375,0.3388671875,0.28173828125,58.41463414634147,-101.70731707317074,44.207317073170735,60,8
381,-0.81640625,0.34326171875,0.2861328125,58.53658536585366,-101.89024390243904,44.268292682926834,60,8
382,-0.79248046875,0.3515625,0.296875,59.268292682926834,-102.31707317073172,43.65853658536586,60,8
383,-0.7587890625,0.357421875,0.31640625,59.87804878048781,-102.13414634146342,43.47560975609756,60,8
384,-0.736328125,0.359375,0.32177734375,58.41463414634147,-101.03658536585367,42.6829268292683,60,8
385,-0.73095703125,0.373046875,0.34033203125,55.60975609756098,-98.96341463414635,41.15853658536586,60,8
386,-0.728515625,0.39990234375,0.3642578125,53.59756097560976,-96.89024390243904,39.451219512195124,60,8
387,-0.72216796875,0.42431640625,0.36181640625,52.926829268292686,-96.89024390243904,38.170731707317074,60,8
388,-0.7060546875,0.4287109375,0.3544921875,52.86585365853659,-97.01219512195122,36.768292682926834,60,8
389,-0.69775390625,0.43017578125,0.3603515625,52.987804878048784,-97.31707317073172,36.21951219512196,60,8
390,-0.69482421875,0.41748046875,0.35693359375,53.41463414634147,-97.8658536585366,35.609756097560975,60,8
391,-0.6728515625,0.42822265625,0.35400390625,53.53658536585366,-97.25609756097562,34.75609756097561,60,8
392,-0.63671875,0.435546875,0.33740234375,53.47560975609757,-98.47560975609757,34.146341463414636,60,8
393,-0.5048828125,0.44091796875,0.341796875,52.37804878048781,-99.51219512195122,33.90243902439025,60,8
394,-0.6513671875,0.42822265625,0.37255859375,49.81707317073171,-99.39024390243904,32.80487804878049,60,8
395,-0.66357421875,0.439453125,0.40478515625,48.04878048780488,-98.10975609756099,31.82926829268293,60,8
396,-0.666015625,0.447265625,0.42138671875,47.25609756097561,-96.89024390243904,31.158536585365855,60,8
397,-0.6474609375,0.46630859375,0.44384765625,46.89024390243903,-95.1219512195122,30.731707317073173,60,8
398,-0.7490234375,0.4765625,0.4404296875,47.19512195121952,-94.69512195121952,30.426829268292686,60,8
399,-0.5087890625,0.4970703125,0.4296875,46.646341463414636,-93.78048780487806,30.000000000000004,60,8
400,-0.62158203125,0.52783203125,0.42822265625,45.73170731707317,-92.98780487804879,29.634146341463417,60,8
401,-0.60302734375,0.548828125,0.4169921875,43.65853658536586,-93.41463414634147,30.182926829268297,60,8
402,-0.6044921875,0.552734375,0.41650390625,41.463414634146346,-94.75609756097562,30.670731707317074,60,8
403,-0.60693359375,0.5498046875,0.4052734375,39.81707317073171,-96.40243902439025,30.54878048780488,60,8
404,-0.6083984375,0.54931640625,0.40625,39.93902439024391,-98.65853658536587,30.792682926829272,60,8
405,-0.59814453125,0.54541015625,0.41650390625,40.60975609756098,-102.07317073170732,31.76829268292683,60,8
406,-0.61767578125,0.53466796875,0.443359375,41.28048780487805,-103.71951219512196,31.82926829268293,60,8
407,-0.6279296875,0.5302734375,0.47216796875,39.75609756097561,-102.8048780487805,31.402439024390247,60,8
408,-0.60986328125,0.5576171875,0.49267578125,37.31707317073171,-101.03658536585367,30.670731707317074,60,8
409,-0.5859375,0.56396484375,0.52880859375,34.207317073170735,-98.90243902439025,30.365853658536587,60,8
410,-0.5625,0.56201171875,0.53955078125,33.04878048780488,-97.6829268292683,30.243902439024392,60,8
411,-0.54638671875,0.55419921875,0.56982421875,33.109756097560975,-96.95121951219512,30.426829268292686,60,8
412,-0.53759765625,0.5654296875,0.5693359375,34.451219512195124,-96.58536585365854,30.60975609756098,60,8
413,-0.50244140625,0.580078125,0.55126953125,35.85365853658537,-96.21951219512196,30.853658536585368,60,8
414,-0.49658203125,0.58837890625,0.53662109375,35.1829268292683,-95.2439024390244,31.463414634146343,60,8
415,-0.4765625,0.6044921875,0.51123046875,34.57317073170732,-95.0609756097561,31.951219512195124,60,8
416,-0.4619140625,0.61376953125,0.62451171875,34.69512195121951,-96.03658536585367,32.13414634146342,60,8
417,-0.4638671875,0.62841796875,0.50048828125,35.243902439024396,-98.29268292682927,32.25609756097561,60,8
418,-0.451171875,0.65869140625,0.513671875,36.58536585365854,-101.52439024390245,32.01219512195122,60,8
419,-0.43408203125,0.67236328125,0.50732421875,36.463414634146346,-102.7439024390244,30.426829268292686,60,8
420,-0.3818359375,0.68408203125,0.51611328125,35.91463414634147,-103.71951219512196,28.353658536585368,60,8
421,-0.33349609375,0.68017578125,0.5244140625,36.03658536585366,-103.35365853658537,27.25609756097561,60,8
422,-0.3017578125,0.65625,0.5556640625,36.707317073170735,-103.17073170731709,26.646341463414636,60,8
423,-0.29638671875,0.6533203125,0.6025390625,38.47560975609756,-102.6829268292683,25.792682926829272,60,8
424,-0.3076171875,0.6396484375,0.65576171875,40.304878048780495,-100.91463414634147,25.121951219512198,60,8
425,-0.3134765625,0.6357421875,0.69775390625,43.29268292682927,-99.39024390243904,25.731707317073173,60,8
426,-0.30859375,0.66357421875,0.7060546875,46.646341463414636,-97.25609756097562,26.52439024390244,60,8
427,-0.314453125,0.66845703125,0.69775390625,47.13414634146342,-92.8658536585366,27.195121951219516,60,8
428,-0.33984375,0.67626953125,0.6494140625,45.670731707317074,-89.69512195121952,27.743902439024392,60,8
429,-0.35888671875,0.70703125,0.5,42.6219512195122,-87.50000000000001,27.439024390243905,60,8
430,-0.3681640625,0.71875,0.59765625,39.87804878048781,-86.95121951219512,27.378048780487806,60,8
431,-0.35693359375,0.72607421875,0.568359375,36.28048780487805,-86.95121951219512,26.76829268292683,60,8
432,-0.35107421875,0.73193359375,0.58447265625,34.51219512195122,-88.10975609756099,26.52439024390244,60,8
433,-0.31494140625,0.69091796875,0.6171875,35.426829268292686,-90.54878048780489,26.646341463414636,60,8
434,-0.29736328125,0.658203125,0.74755859375,35.54878048780488,-91.76829268292684,26.82926829268293,60,8
435,-0.2841796875,0.64111328125,0.67724609375,39.81707317073171,-95.0609756097561,28.414634146341466,60,8
436,-0.27490234375,0.63037109375,0.70703125,31.402439024390247,-97.6219512195122,29.81707317073171,60,8
437,-0.27099609375,0.646484375,0.7490234375,53.84146341463415,-98.96341463414635,30.60975609756098,60,8
438,-0.27978515625,0.65234375,0.7646484375,57.07317073170732,-96.03658536585367,32.25609756097561,60,8
439,-0.28564453125,0.68017578125,0.751953125,53.84146341463415,-90.54878048780489,33.47560975609756,60,8
440,-0.25439453125,0.72607421875,0.7470703125,62.25609756097562,-81.46341463414635,34.63414634146342,60,8
441,-0.2236328125,0.69775390625,0.693359375,35.1829268292683,-74.63414634146342,34.75609756097561,60,8
442,-0.16845703125,0.7353515625,0.72509765625,29.32926829268293,-71.40243902439025,31.219512195121954,60,8
443,-0.1298828125,0.75537109375,0.64892578125,27.25609756097561,-70.0,30.182926829268297,60,8
444,-0.12548828125,0.6875,0.673828125,27.195121951219516,-69.75609756097562,29.81707317073171,60,8
445,-0.10791015625,0.63916015625,0.68505859375,15.914634146341465,-69.93902439024392,28.963414634146343,60,8
446,-0.10205078125,0.65576171875,0.7060546875,37.6829268292683,-70.67073170731707,28.780487804878053,60,8
447,-0.076171875,0.7255859375,0.71923828125,42.25609756097561,-69.26829268292684,26.52439024390244,60,8
448,-0.06298828125,0.7998046875,0.8701171875,42.50000000000001,-65.60975609756098,23.719512195121954,60,8
449,-0.01904296875,0.849609375,0.625,42.19512195121951,-62.19512195121952,21.402439024390247,60,8
450,-0.12353515625,0.87890625,0.7431640625,43.53658536585366,-59.57317073170732,16.890243902439025,60,8
451,0.0458984375,0.9189453125,0.78125,48.170731707317074,-58.29268292682927,11.829268292682928,60,8
452,0.09326171875,0.9609375,0.78271484375,55.365853658536594,-59.51219512195122,8.292682926829269,60,8
453,0.10986328125,0.876953125,0.77197265625,60.85365853658537,-59.93902439024391,4.51219512195122,60,8
454,0.10791015625,1.00244140625,0.71923828125,61.28048780487806,-59.32926829268293,15.54878048780488,60,8
455,0.12646484375,0.99755859375,0.70263671875,61.21951219512196,-58.10975609756098,-3.963414634146342,60,8
456,0.07763671875,0.9296875,0.6748046875,59.57317073170732,-56.524390243902445,-6.52439024390244,60,8
457,0.01806640625,0.875,0.6513671875,60.1219512195122,-55.60975609756098,-6.7682926829268295,60,8
458,-0.04443359375,0.86083984375,0.6298828125,62.6219512195122,-55.91463414634147,-8.292682926829269,60,8
459,-0.095703125,0.8955078125,0.626953125,65.1829268292683,-56.03658536585366,-11.097560975609756,60,8
460,-0.11083984375,0.931640625,0.59912109375,77.6219512195122,-53.47560975609757,-12.195121951219512,60,8
461,-0.25,0.90771484375,0.61083984375,55.67073170731708,-50.54878048780488,-13.963414634146343,60,8
462,-0.08837890625,0.91259765625,0.58251953125,47.6219512195122,-62.25609756097562,-14.085365853658537,60,8
463,-0.1259765625,0.88525390625,0.55419921875,41.28048780487805,-46.707317073170735,-15.060975609756099,60,8
464,-0.12109375,0.92041015625,0.51708984375,40.0609756097561,-47.43902439024391,-16.158536585365855,60,8
465,-0.15380859375,0.8818359375,0.51708984375,39.207317073170735,-48.23170731707317,-16.28048780487805,60,8
466,-0.15966796875,0.99560546875,0.486328125,36.03658536585366,-49.207317073170735,-15.182926829268293,60,8
467,-0.18017578125,0.75732421875,0.46044921875,35.487804878048784,-52.01219512195122,-16.76829268292683,60,8
468,-0.1435546875,0.9140625,0.40576171875,34.207317073170735,-52.987804878048784,-15.975609756097562,60,8
469,-0.1953125,0.84130859375,0.443359375,38.59756097560976,-55.54878048780488,-11.76829268292683,60,8
470,-0.306640625,0.69677734375,0.4033203125,34.08536585365854,-61.463414634146346,-5.487804878048781,60,8
471,-0.3662109375,0.64111328125,0.41552734375,34.93902439024391,-61.463414634146346,-6.707317073170732,60,8
472,-0.251953125,0.7607421875,0.3017578125,22.865853658536587,-58.23170731707317,-5.7926829268292686,60,8
473,-0.201171875,0.83935546875,0.27734375,16.28048780487805,-55.97560975609757,-6.402439024390245,60,8
474,-0.2333984375,0.80078125,0.26123046875,9.207317073170733,-59.085365853658544,-7.8048780487804885,60,8
475,-0.17138671875,0.888671875,0.22900390625,11.585365853658537,-62.987804878048784,-13.414634146341465,60,8
476,-0.12353515625,0.88037109375,0.197265625,9.26829268292683,-65.42682926829269,-15.914634146341465,60,8
477,-0.07275390625,0.83837890625,0.2451171875,7.195121951219513,-66.76829268292684,-16.70731707317073,60,8
478,-0.09033203125,0.73193359375,0.2900390625,15.54878048780488,-67.5,-12.621951219512196,60,8
479,-0.12939453125,0.69189453125,0.32373046875,-3.414634146341464,-67.25609756097562,-11.341463414634147,60,8
480,-0.18115234375,0.70263671875,0.29638671875,-3.353658536585366,-71.15853658536587,-11.341463414634147,60,8
481,-0.16064453125,0.7509765625,0.2470703125,4.2682926829268295,-62.50000000000001,-10.609756097560977,60,8
482,-0.1845703125,0.72998046875,0.24169921875,9.329268292682928,-84.20731707317074,-9.146341463414634,60,8
483,-0.17724609375,0.720703125,0.25,10.792682926829269,-87.8658536585366,-5.609756097560976,60,8
484,-0.15283203125,0.71142578125,0.263671875,12.01219512195122,-92.13414634146342,-0.9756097560975611,60,8
485,-0.185546875,0.666015625,0.26025390625,9.390243902439025,-91.46341463414635,3.231707317073171,60,8
486,-0.19482421875,0.62548828125,0.21923828125,15.487804878048783,-88.65853658536587,7.560975609756098,60,8
487,-0.18994140625,0.572265625,0.17333984375,-8.475609756097562,-87.19512195121952,11.219512195121952,60,8
488,-0.18798828125,0.5107421875,0.14892578125,-15.426829268292684,-85.85365853658537,14.634146341463415,60,8
489,-0.16845703125,0.44384765625,0.09521484375,-22.98780487804878,-85.97560975609757,22.195121951219512,60,8
490,-0.1953125,0.36572265625,0.00146484375,-29.695121951219516,-90.67073170731707,29.939024390243905,60,8
491,-0.19189453125,0.3154296875,-0.125,-44.390243902439025,-91.76829268292684,37.25609756097561,60,8
492,-0.1591796875,0.2353515625,-0.15576171875,-54.207317073170735,-91.21951219512196,46.707317073170735,60,8
493,-0.13671875,0.2431640625,-0.1181640625,-59.32926829268293,-95.00000000000001,60.060975609756106,60,8
494,-0.171875,-0.01025390625,-0.04345703125,-61.15853658536586,-99.93902439024392,73.35365853658537,60,8
495,-0.11181640625,-0.0263671875,0.0126953125,-55.85365853658537,-103.59756097560977,87.6219512195122,60,8
496,-0.07763671875,-0.072265625,0.11669921875,-54.63414634146342,-105.91463414634147,108.59756097560977,60,8
497,-0.1943359375,-0.33837890625,0.12548828125,-62.07317073170732,-110.3658536585366,125.91463414634147,60,8
498,-0.36669921875,-0.509765625,0.1796875,-55.79268292682927,-115.42682926829269,168.71951219512198,60,8
499,-0.49365234375,-0.8681640625,0.158203125,-48.71951219512196,-124.14634146341464,189.08536585365854,60,8
