,Ax,Ay,Az,Gx,Gy,Gz,distance,shot_type
0,0.65869140625,-0.5390625,-0.28125,3.9024390243902443,10.182926829268293,-1.524390243902439,60,8
1,0.650390625,-0.5625,-0.2509765625,3.5975609756097566,10.792682926829269,-1.4634146341463417,60,8
2,0.64794921875,-0.560546875,-0.2333984375,3.2926829268292686,11.52439024390244,-1.4634146341463417,60,8
3,0.646484375,-0.55615234375,-0.23095703125,2.804878048780488,12.439024390243903,-1.2804878048780488,60,8
4,0.66259765625,-0.54736328125,-0.20703125,2.6219512195121952,12.926829268292684,-1.6463414634146343,60,8
5,0.64794921875,-0.5595703125,-0.1943359375,3.658536585365854,12.987804878048781,-1.707317073170732,60,8
6,0.64453125,-0.5859375,-0.18310546875,4.329268292682928,12.926829268292684,-1.9512195121951221,60,8
7,0.640625,-0.58984375,-0.19677734375,6.7682926829268295,11.158536585365855,-1.9512195121951221,60,8
8,0.63525390625,-0.5927734375,-0.193359375,9.878048780487806,8.963414634146343,-1.6463414634146343,60,8
9,0.62890625,-0.59228515625,-0.2060546875,12.621951219512196,7.500000000000001,-1.524390243902439,60,8
10,0.63427734375,-0.5859375,-0.24267578125,13.902439024390246,6.463414634146342,-1.3414634146341464,60,8
11,0.65966796875,-0.5634765625,-0.27099609375,13.963414634146343,6.646341463414635,-0.9146341463414634,60,8
12,0.6787109375,-0.544921875,-0.26611328125,12.865853658536587,8.048780487804878,-0.6707317073170732,60,8
13,0.67138671875,-0.55859375,-0.26123046875,11.951219512195124,9.390243902439025,-0.5487804878048781,60,8
14,0.6767578125,-0.5546875,-0.251953125,9.695121951219512,11.646341463414634,-0.3658536585365854,60,8
15,0.67626953125,-0.52392578125,-0.24609375,7.439024390243903,12.74390243902439,-0.1829268292682927,60,8
16,0.6748046875,-0.51611328125,-0.2431640625,6.52439024390244,13.353658536585368,-0.1829268292682927,60,8
17,0.6787109375,-0.5244140625,-0.2314453125,6.402439024390245,14.146341463414636,-0.426829268292683,60,8
18,0.6923828125,-0.53125,-0.21435546875,7.25609756097561,13.353658536585368,-0.3658536585365854,60,8
19,0.6796875,-0.53173828125,-0.22265625,9.329268292682928,11.463414634146343,-0.12195121951219513,60,8
20,0.67236328125,-0.5322265625,-0.2294921875,11.158536585365855,10.365853658536587,15.54878048780488,60,8
21,0.66796875,-0.525390625,-0.22265625,11.646341463414634,9.756097560975611,0.24390243902439027,60,8
22,0.6669921875,-0.52685546875,-0.25927734375,11.463414634146343,9.634146341463415,15.54878048780488,60,8
23,0.67724609375,-0.5087890625,-0.26416015625,9.451219512195122,10.853658536585368,0.06097560975609757,60,8
24,0.68798828125,-0.52197265625,-0.25634765625,8.292682926829269,12.317073170731708,0.3658536585365854,60,8
25,0.67724609375,-0.55615234375,-0.24609375,6.402439024390245,14.26829268292683,0.5487804878048781,60,8
26,0.68017578125,-0.54443359375,-0.23388671875,5.609756097560976,15.670731707317074,0.853658536585366,60,8
27,0.685546875,-0.546875,-0.2255859375,5.2439024390243905,16.951219512195124,0.7317073170731708,60,8
28,0.67724609375,-0.55029296875,-0.21728515625,6.097560975609756,17.439024390243905,0.6707317073170732,60,8
29,0.67236328125,-0.55224609375,-0.20458984375,7.439024390243903,16.158536585365855,0.5487804878048781,60,8
30,0.677734375,-0.53857421875,-0.248046875,9.02439024390244,12.621951219512196,-15.609756097560977,60,8
31,0.68017578125,-0.51513671875,-0.2783203125,10.975609756097562,10.121951219512196,-0.9756097560975611,60,8
32,0.6640625,-0.5234375,-0.27880859375,10.426829268292684,9.634146341463415,-1.3414634146341464,60,8
33,0.6591796875,-0.5263671875,-0.2607421875,7.865853658536586,10.426829268292684,-1.829268292682927,60,8
34,0.662109375,-0.52001953125,-0.2509765625,5.426829268292684,11.52439024390244,-2.1951219512195124,60,8
35,0.66064453125,-0.525390625,-0.2373046875,4.695121951219512,12.378048780487806,-1.707317073170732,60,8
36,0.66064453125,-0.5478515625,-0.21923828125,5.975609756097562,12.195121951219512,-1.5853658536585367,60,8
37,0.66064453125,-0.5791015625,-0.20703125,7.926829268292684,12.073170731707318,-1.5853658536585367,60,8
38,0.66357421875,-0.57275390625,-0.21630859375,9.817073170731708,11.463414634146343,-1.2195121951219514,60,8
39,0.68603515625,-0.55517578125,-0.22119140625,10.548780487804878,10.670731707317074,-1.3414634146341464,60,8
40,0.662109375,-0.54736328125,-0.126953125,10.731707317073171,9.207317073170733,-1.707317073170732,60,8
41,0.6552734375,-0.54052734375,-0.27001953125,10.792682926829269,7.560975609756098,-1.707317073170732,60,8
42,0.6513671875,-0.5478515625,-0.2783203125,10.426829268292684,6.890243902439025,-1.5853658536585367,60,8
43,0.64501953125,-0.56005859375,-0.2626953125,10.670731707317074,6.585365853658537,-1.0975609756097562,60,8
44,0.6396484375,-0.5556640625,-0.259765625,10.121951219512196,6.2804878048780495,-1.0975609756097562,60,8
45,0.6435546875,-0.529296875,-0.2490234375,9.207317073170733,6.463414634146342,-2.1341463414634148,60,8
46,0.6630859375,-0.49755859375,-0.24951171875,7.195121951219513,7.621951219512196,-2.682926829268293,60,8
47,0.6611328125,-0.50390625,-0.2392578125,4.207317073170732,9.390243902439025,-2.8658536585365857,60,8
48,0.6611328125,-0.51318359375,-0.23828125,2.0121951219512195,10.914634146341465,-2.5,60,8
49,0.65283203125,-0.521484375,-0.2421875,0.7926829268292683,11.585365853658537,-2.1341463414634148,60,8
50,0.65380859375,-0.53759765625,-0.248046875,0.48780487804878053,11.707317073170733,-1.7682926829268295,60,8
51,0.65673828125,-0.5400390625,-0.25390625,0.24390243902439027,12.134146341463415,-1.2195121951219514,60,8
52,0.6708984375,-0.5419921875,-0.373046875,0.24390243902439027,11.28048780487805,-1.0975609756097562,60,8
53,0.6748046875,-0.54833984375,-0.251953125,1.829268292682927,9.878048780487806,-0.9756097560975611,60,8
54,0.666015625,-0.5625,-0.263671875,3.4756097560975614,8.170731707317074,-0.7926829268292683,60,8
55,0.6650390625,-0.55615234375,-0.26806640625,4.939024390243903,7.134146341463415,-0.9146341463414634,60,8
56,0.6767578125,-0.54296875,-0.22607421875,4.878048780487806,7.317073170731708,-1.2195121951219514,60,8
57,0.67919921875,-0.53515625,-0.21630859375,4.390243902439025,7.378048780487806,-1.524390243902439,60,8
58,0.67431640625,-0.53466796875,-0.1884765625,4.207317073170732,7.134146341463415,-1.7682926829268295,60,8
59,0.65869140625,-0.5439453125,-0.1767578125,4.878048780487806,6.341463414634147,-1.8902439024390245,60,8
60,0.6484375,-0.5625,-0.15673828125,5.548780487804878,6.2804878048780495,-1.7682926829268295,60,8
61,0.64892578125,-0.57373046875,-0.13037109375,6.463414634146342,5.609756097560976,-1.2195121951219514,60,8
62,0.6435546875,-0.572265625,-0.14990234375,7.743902439024391,5.0,-1.1585365853658538,60,8
63,0.6669921875,-0.5537109375,-0.14306640625,8.292682926829269,4.817073170731708,-1.2195121951219514,60,8
64,0.66943359375,-0.556640625,-0.14990234375,9.207317073170733,4.085365853658537,-1.5853658536585367,60,8
65,0.671875,-0.55029296875,-0.15234375,10.121951219512196,4.207317073170732,-1.6463414634146343,60,8
66,0.67529296875,-0.54736328125,-0.154296875,10.24390243902439,5.121951219512195,-2.0121951219512195,60,8
67,0.6787109375,-0.56201171875,-0.14306640625,10.365853658536587,6.7682926829268295,-1.5853658536585367,60,8
68,0.67919921875,-0.5673828125,-0.1044921875,9.329268292682928,9.451219512195122,-1.3414634146341464,60,8
69,0.68603515625,-0.56982421875,-0.0791015625,7.8048780487804885,13.658536585365855,-0.426829268292683,60,8
70,0.65771484375,-0.58740234375,-0.06298828125,5.670731707317073,17.5,0.48780487804878053,60,8
71,0.64501953125,-0.59326171875,-0.0361328125,5.426829268292684,20.731707317073173,1.524390243902439,60,8
72,0.6240234375,-0.62060546875,-0.00244140625,6.158536585365854,23.84146341463415,3.4756097560975614,60,8
73,0.6201171875,-0.6474609375,0.03173828125,8.414634146341465,26.89024390243903,5.3048780487804885,60,8
74,0.60595703125,-0.65087890625,0.07373046875,11.402439024390246,29.26829268292683,6.707317073170732,60,8
75,0.61328125,-0.6572265625,0.0986328125,15.487804878048783,15.731707317073171,8.048780487804878,60,8
76,0.61767578125,-0.6513671875,0.1181640625,20.914634146341466,32.987804878048784,9.756097560975611,60,8
77,0.6328125,-0.6337890625,0.10009765625,25.48780487804878,34.207317073170735,11.036585365853659,60,8
78,0.66064453125,-0.59423828125,0.05810546875,28.963414634146343,34.75609756097561,12.500000000000002,60,8
79,0.69580078125,-0.53466796875,-0.0166015625,30.426829268292686,34.207317073170735,13.963414634146343,60,8
80,0.6259765625,-0.46337890625,-0.181640625,23.10975609756098,30.792682926829272,14.207317073170733,60,8
81,0.82080078125,-0.31689453125,-0.3203125,12.378048780487806,36.34146341463415,11.036585365853659,60,8
82,0.94921875,-0.224609375,-0.3515625,15.487804878048783,43.35365853658537,7.25609756097561,60,8
83,0.97265625,-0.2333984375,-0.337890625,-15.000000000000002,49.085365853658544,3.7195121951219514,60,8
84,0.953125,-0.271484375,-0.32275390625,-25.975609756097562,53.963414634146346,1.1585365853658538,60,8
85,0.892578125,-0.35595703125,-0.30908203125,-35.73170731707317,56.89024390243903,0.24390243902439027,60,8
86,0.81884765625,-0.39990234375,-0.2890625,-37.6829268292683,58.23170731707317,-0.48780487804878053,60,8
87,0.87255859375,-0.4296875,-0.27001953125,-37.5609756097561,58.41463414634147,-1.0365853658536586,60,8
88,0.7099609375,-0.44775390625,-0.259765625,-36.463414634146346,56.585365853658544,-0.24390243902439027,60,8
89,0.6513671875,-0.466796875,-0.25830078125,-36.03658536585366,56.89024390243903,-0.30487804878048785,60,8
90,0.64697265625,-0.45068359375,-0.287109375,-38.53658536585366,56.646341463414636,-0.06097560975609757,60,8
91,0.6279296875,-0.4560546875,-0.34375,-40.97560975609756,54.207317073170735,-0.853658536585366,60,8
92,0.6416015625,-0.42041015625,-0.37939453125,-40.97560975609756,51.89024390243903,-2.7439024390243905,60,8
93,0.6689453125,-0.4072265625,-0.2509765625,-39.57317073170732,48.71951219512196,-3.353658536585366,60,8
94,0.6943359375,-0.41162109375,-0.37646484375,-39.51219512195122,46.21951219512196,-4.207317073170732,60,8
95,0.69189453125,-0.4130859375,-0.3408203125,-38.59756097560976,42.25609756097561,-4.51219512195122,60,8
96,0.6884765625,-0.392578125,-0.32763671875,-37.07317073170732,38.65853658536586,-5.487804878048781,60,8
97,0.69091796875,-0.35498046875,-0.33349609375,-36.707317073170735,35.54878048780488,-6.7682926829268295,60,8
98,0.69140625,-0.33447265625,-0.3447265625,-39.390243902439025,34.451219512195124,-8.597560975609756,60,8
99,0.69580078125,-0.33056640625,-0.35498046875,-42.01219512195122,33.78048780487805,-10.426829268292684,60,8
100,0.70263671875,-0.3251953125,-0.36962890625,-42.804878048780495,31.52439024390244,-13.414634146341465,60,8
101,0.69970703125,-0.34912109375,-0.33642578125,-42.86585365853659,28.475609756097562,-14.02439024390244,60,8
102,0.69384765625,-0.37255859375,-0.33642578125,-42.25609756097561,24.085365853658537,-14.634146341463415,60,8
103,0.66796875,-0.3798828125,-0.328125,-40.79268292682927,19.512195121951223,-15.853658536585368,60,8
104,0.65478515625,-0.388671875,-0.3486328125,-37.86585365853659,15.670731707317074,-17.926829268292686,60,8
105,0.67431640625,-0.3662109375,-0.38330078125,-37.6829268292683,13.170731707317074,-19.75609756097561,60,8
106,0.70654296875,-0.30322265625,-0.39794921875,-42.37804878048781,12.317073170731708,-21.76829268292683,60,8
107,0.72265625,-0.275390625,-0.41455078125,-50.0609756097561,13.29268292682927,-24.26829268292683,60,8
108,0.6884765625,-0.29248046875,-0.42041015625,-57.31707317073171,13.963414634146343,-25.792682926829272,60,8
109,0.68994140625,-0.30712890625,-0.39794921875,-61.463414634146346,13.658536585365855,-26.89024390243903,60,8
110,0.7099609375,-0.30322265625,-0.38525390625,-63.29268292682927,12.439024390243903,-27.621951219512198,60,8
111,0.71630859375,-0.32373046875,-0.3935546875,-64.63414634146342,10.792682926829269,-28.475609756097562,60,8
112,0.70263671875,-0.33642578125,-0.4072265625,-66.09756097560977,10.24390243902439,-29.512195121951223,60,8
113,0.71142578125,-0.3349609375,-0.421875,-68.53658536585367,9.939024390243903,-30.30487804878049,60,8
114,0.7373046875,-0.31298828125,-0.42138671875,-72.31707317073172,10.914634146341465,-31.707317073170735,60,8
115,0.767578125,-0.3154296875,-0.4248046875,-77.25609756097562,11.890243902439025,-32.25609756097561,60,8
116,0.7578125,-0.33837890625,-0.43701171875,-81.46341463414635,11.036585365853659,-33.109756097560975,60,8
117,0.75537109375,-0.3330078125,-0.4267578125,-84.39024390243902,10.792682926829269,-33.59756097560976,60,8
118,0.7841796875,-0.3046875,-0.44775390625,-89.32926829268294,11.951219512195124,-35.30487804878049,60,8
119,0.79248046875,-0.2548828125,-0.43603515625,-95.79268292682927,13.109756097560977,-37.6219512195122,60,8
120,0.80419921875,-0.27197265625,-0.42138671875,-101.21951219512196,14.390243902439027,-38.71951219512196,60,8
121,0.78955078125,-0.2939453125,-0.41796875,-104.87804878048782,14.573170731707318,-39.81707317073171,60,8
122,0.7958984375,-0.29833984375,-0.41357421875,-107.31707317073172,14.451219512195124,-40.73170731707317,60,8
123,0.794921875,-0.31396484375,-0.443359375,-109.63414634146342,13.963414634146343,-41.951219512195124,60,8
124,0.8232421875,-0.26708984375,-0.46826171875,-112.6219512195122,13.170731707317074,-43.963414634146346,60,8
125,0.83544921875,-0.2607421875,-0.45361328125,-115.54878048780489,11.829268292682928,-45.36585365853659,60,8
126,0.8681640625,-0.2578125,-0.486328125,-117.31707317073172,11.28048780487805,-47.6219512195122,60,8
127,0.8681640625,-0.26513671875,-0.501953125,-120.73170731707319,10.975609756097562,-50.243902439024396,60,8
128,0.8935546875,-0.22509765625,-0.49609375,-124.63414634146342,11.28048780487805,-52.743902439024396,60,8
129,0.91357421875,-0.21337890625,-0.5029296875,-128.78048780487805,10.609756097560977,-55.365853658536594,60,8
130,0.90771484375,-0.12890625,-0.5263671875,-131.46341463414635,9.451219512195122,-57.07317073170732,60,8
131,0.89599609375,-0.28955078125,-0.5693359375,-132.07317073170734,6.7682926829268295,-59.085365853658544,60,8
132,0.89697265625,-0.2724609375,-0.57470703125,-132.4390243902439,4.329268292682928,-60.79268292682927,60,8
133,0.89990234375,-0.28076171875,-0.6025390625,-132.9268292682927,1.9512195121951221,-63.23170731707317,60,8
134,0.91259765625,-0.271484375,-0.63671875,-134.63414634146343,-0.5487804878048781,-66.64634146341464,60,8
135,0.91943359375,-0.12841796875,-0.67822265625,-137.13414634146343,-3.5975609756097566,-69.51219512195122,60,8
136,0.9169921875,-0.275390625,-0.7275390625,-137.13414634146343,-10.060975609756099,-71.95121951219512,60,8
137,0.9296875,-0.2470703125,-0.63720703125,-137.9268292682927,-12.987804878048781,-75.54878048780489,60,8
138,0.99365234375,-0.22119140625,-0.76708984375,-142.8048780487805,-12.682926829268293,-77.8658536585366,60,8
139,1.01025390625,-0.22509765625,-0.7177734375,-148.0487804878049,-11.829268292682928,-79.93902439024392,60,8
140,1.02685546875,-0.2001953125,-0.6865234375,-152.43902439024393,-10.426829268292684,-83.84146341463415,60,8
141,1.07666015625,-0.14990234375,-0.67724609375,-158.2926829268293,-9.085365853658537,-87.8658536585366,60,8
142,1.07470703125,-0.16064453125,-0.65234375,-163.2317073170732,-8.902439024390244,-91.40243902439025,60,8
143,1.08642578125,-0.19287109375,-0.64013671875,-164.02439024390245,-9.939024390243903,-95.1829268292683,60,8
144,1.119140625,-0.181640625,-0.60693359375,-164.32926829268294,-9.695121951219512,-98.84146341463415,60,8
145,1.14990234375,-0.173828125,-0.576171875,-164.51219512195124,-10.731707317073171,-101.76829268292684,60,8
146,1.14697265625,-0.16552734375,-0.5703125,-164.20731707317074,-10.609756097560977,-105.42682926829269,60,8
147,1.1826171875,-0.158203125,-0.5703125,-165.2439024390244,-10.426829268292684,-108.90243902439025,60,8
148,1.2041015625,-0.1083984375,-0.55712890625,-166.34146341463415,-10.365853658536587,-112.13414634146342,60,8
149,1.21826171875,-0.10546875,-0.61572265625,-167.43902439024393,-10.670731707317074,-115.12195121951221,60,8
150,1.2294921875,-0.09814453125,-0.66162109375,-170.609756097561,-9.329268292682928,-117.43902439024392,60,8
151,1.2412109375,-0.0673828125,-0.68359375,-173.84146341463415,-7.682926829268293,-119.69512195121952,60,8
152,1.2802734375,-0.05078125,-0.7138671875,-177.6219512195122,-5.670731707317073,-122.56097560975611,60,8
153,1.291015625,-0.0419921875,-0.7177734375,-181.89024390243904,-3.1097560975609757,-125.67073170731709,60,8
154,1.29296875,-0.041015625,-0.7470703125,-185.609756097561,-0.6097560975609757,-129.45121951219514,60,8
155,1.29736328125,-0.03125,-0.728515625,-188.71951219512198,1.829268292682927,-134.08536585365854,60,8
156,1.3173828125,-0.01171875,-0.63037109375,-192.37804878048783,2.1951219512195124,-137.9878048780488,60,8
157,1.310546875,-0.00537109375,-0.73828125,-195.4878048780488,4.329268292682928,-142.6829268292683,60,8
158,1.32470703125,0.0087890625,-0.72509765625,-196.28048780487808,3.1707317073170733,-146.95121951219514,60,8
159,1.322265625,-0.02490234375,-0.68408203125,-194.93902439024393,3.4756097560975614,-150.4268292682927,60,8
160,1.314453125,-0.048828125,-0.6865234375,-192.7439024390244,1.6463414634146343,-152.8048780487805,60,8
161,1.28173828125,-0.025390625,-0.7138671875,-190.2439024390244,-0.7926829268292683,-156.09756097560978,60,8
162,1.287109375,0.00537109375,-0.74072265625,-188.96341463414635,-1.6463414634146343,-160.2439024390244,60,8
163,1.3525390625,0.0556640625,-0.7158203125,-187.7439024390244,-2.1341463414634148,-164.51219512195124,60,8
164,1.40966796875,0.0703125,-0.7099609375,-188.47560975609758,-3.414634146341464,-168.59756097560978,60,8
165,1.40234375,0.06005859375,-0.74755859375,-189.87804878048783,-2.6219512195121952,-174.87804878048783,60,8
166,1.431640625,0.0810546875,-0.73291015625,-189.81707317073173,-2.0121951219512195,-180.1829268292683,60,8
167,1.4599609375,0.12939453125,-0.68603515625,-190.06097560975613,-1.402439024390244,-185.609756097561,60,8
168,1.4755859375,0.154296875,-0.65283203125,-190.91463414634148,-0.9146341463414634,-189.45121951219514,60,8
169,1.439453125,0.16162109375,-0.65234375,-192.19512195121953,-0.9756097560975611,-193.59756097560978,60,8
170,1.43310546875,0.19091796875,-0.6279296875,-190.2439024390244,-1.7682926829268295,-197.6829268292683,60,8
171,1.45458984375,0.2265625,-0.5537109375,-185.1829268292683,-3.780487804878049,-200.91463414634148,60,8
172,1.4716796875,0.12890625,-0.51953125,-182.13414634146343,-4.024390243902439,-204.14634146341464,60,8
173,1.470703125,0.24072265625,-0.55029296875,-180.5487804878049,-4.390243902439025,-208.71951219512198,60,8
174,1.47705078125,0.2783203125,-0.52294921875,-176.28048780487808,-6.402439024390245,-214.32926829268294,60,8
175,1.521484375,0.2880859375,-0.48681640625,-170.97560975609758,-10.24390243902439,-219.20731707317074,60,8
176,1.5185546875,0.2763671875,-0.49609375,-167.01219512195124,-11.890243902439025,-224.87804878048783,60,8
177,1.4970703125,0.306640625,-0.4775390625,-163.0487804878049,-13.719512195121952,-230.97560975609758,60,8
178,1.48583984375,0.3017578125,-0.44140625,-159.02439024390245,-17.682926829268293,-235.7317073170732,60,8
179,1.45751953125,0.29541015625,-0.42236328125,-154.20731707317074,-20.54878048780488,-239.08536585365854,60,8
180,1.3876953125,0.27880859375,-0.4169921875,-151.40243902439025,-23.78048780487805,-242.07317073170734,60,8
181,1.33642578125,0.2705078125,-0.35986328125,-142.6829268292683,-30.426829268292686,-244.75609756097563,60,8
182,1.3046875,0.2353515625,-0.39453125,-136.64634146341464,-34.08536585365854,-246.09756097560978,60,8
183,1.3115234375,0.298828125,-0.39990234375,-131.89024390243904,-35.0,-247.62195121951223,60,8
184,1.31591796875,0.31982421875,-0.39697265625,-130.3048780487805,-35.426829268292686,-248.47560975609758,60,8
185,1.298828125,0.30810546875,-0.46142578125,-134.51219512195124,-29.451219512195124,-249.20731707317074,60,8
186,1.27099609375,0.29541015625,-0.484375,-125.12195121951221,-23.10975609756098,-249.45121951219514,60,8
187,1.1962890625,0.263671875,-0.38330078125,-144.9390243902439,-17.621951219512198,-247.68292682926833,60,8
188,1.0986328125,0.18017578125,-0.328125,-145.7317073170732,-15.365853658536587,-244.75609756097563,60,8
189,0.95654296875,0.04931640625,-0.24072265625,-143.1707317073171,-14.817073170731708,-240.24390243902442,60,8
190,0.79443359375,-0.06201171875,-0.18359375,-132.7439024390244,-20.243902439024392,-234.75609756097563,60,8
191,0.6845703125,-0.1142578125,-0.1376953125,-116.21951219512196,-25.914634146341466,-230.85365853658539,60,8
192,0.64697265625,-0.0986328125,-0.06005859375,-100.48780487804879,-30.000000000000004,-228.53658536585368,60,8
193,0.6416015625,-0.06884765625,-0.03759765625,-88.47560975609757,-36.40243902439025,-224.93902439024393,60,8
194,0.58984375,-0.0654296875,-0.111328125,-84.39024390243902,-36.34146341463415,-224.51219512195124,60,8
195,0.5498046875,-0.0029296875,-0.09814453125,-81.28048780487805,-34.451219512195124,-223.109756097561,60,8
196,0.560546875,0.07666015625,0.0185546875,-80.91463414634147,-32.07317073170732,-221.15853658536588,60,8
197,0.57958984375,0.08203125,0.12060546875,-81.89024390243902,-27.926829268292686,-217.8658536585366,60,8
198,0.53662109375,0.0419921875,0.23974609375,-84.87804878048782,-26.82926829268293,-214.93902439024393,60,8
199,0.41455078125,-0.0576171875,0.05810546875,-83.41463414634147,-30.000000000000004,-213.0487804878049,60,8
200,0.3876953125,-0.05810546875,0.18115234375,-70.91463414634147,-36.40243902439025,-211.21951219512198,60,8
201,0.37109375,-0.037109375,0.3125,-59.146341463414636,-43.53658536585366,-205.91463414634148,60,8
202,0.3076171875,-0.07958984375,0.22802734375,-55.1219512195122,-43.963414634146346,-199.08536585365854,60,8
203,0.22265625,-0.09326171875,0.1572265625,-49.75609756097561,-44.87804878048781,-194.08536585365854,60,8
204,0.22509765625,-0.119140625,0.162109375,-40.91463414634147,-47.19512195121952,-189.81707317073173,60,8
205,0.193359375,0.00390625,0.130859375,-37.743902439024396,-44.93902439024391,-185.609756097561,60,8
206,0.15673828125,0.02978515625,0.126953125,-38.963414634146346,-41.28048780487805,-180.4268292682927,60,8
207,0.24267578125,0.00146484375,0.03857421875,-31.89024390243903,-34.93902439024391,-176.58536585365854,60,8
208,0.134765625,0.02734375,-0.01708984375,-57.865853658536594,-25.48780487804878,-172.01219512195124,60,8
209,0.09765625,-0.041015625,0.05859375,-69.32926829268293,-9.939024390243903,-167.7439024390244,60,8
210,0.12255859375,-0.0400390625,0.2412109375,-83.84146341463415,1.7682926829268295,-160.7926829268293,60,8
211,0.04345703125,-0.0068359375,0.390625,-84.75609756097562,8.414634146341465,-150.3048780487805,60,8
212,-0.01806640625,-0.28173828125,0.54150390625,-78.29268292682927,10.609756097560977,-138.109756097561,60,8
213,-0.12890625,-0.3408203125,0.52685546875,-73.29268292682927,14.634146341463415,-140.3048780487805,60,8
214,-0.328125,-0.421875,0.5302734375,-67.92682926829269,13.414634146341465,-112.25609756097562,60,8
215,-0.3515625,-0.4765625,0.6728515625,-58.65853658536586,11.036585365853659,-98.90243902439025,60,8
216,-0.4150390625,-0.5625,0.6533203125,-50.487804878048784,12.926829268292684,-85.1219512195122,60,8
217,-0.47314453125,-0.5908203125,0.66455078125,-52.5609756097561,20.60975609756098,-73.65853658536587,60,8
218,-0.49462890625,-0.55859375,0.72802734375,-64.45121951219512,16.82926829268293,-59.87804878048781,60,8
219,-0.53759765625,-0.556640625,0.61962890625,-63.04878048780488,48.29268292682927,-49.63414634146342,60,8
220,-0.5458984375,-0.55712890625,0.7509765625,-83.23170731707317,53.47560975609757,-36.524390243902445,60,8
221,-0.64453125,-0.64599609375,0.8232421875,-76.82926829268294,53.963414634146346,-18.902439024390244,60,8
222,-0.75439453125,-0.8896484375,0.82177734375,-77.7439024390244,51.34146341463415,-1.4634146341463417,60,8
223,-0.75537109375,-0.9052734375,0.85791015625,-61.463414634146346,49.146341463414636,0.7317073170731708,60,8
224,-0.66162109375,-0.857421875,0.8818359375,-31.280487804878053,45.426829268292686,33.170731707317074,60,8
225,-0.5927734375,-0.90087890625,0.93115234375,-16.34146341463415,45.73170731707317,49.63414634146342,60,8
226,-0.5595703125,-0.8798828125,0.765625,-5.975609756097562,46.15853658536586,69.39024390243902,60,8
227,-0.5048828125,-1.046875,0.44921875,-4.817073170731708,53.59756097560976,87.25609756097562,60,8
228,-0.4130859375,-1.05810546875,0.34326171875,-12.317073170731708,64.9390243902439,103.04878048780489,60,8
229,-0.28515625,-1.03369140625,0.34521484375,-21.951219512195124,80.0609756097561,116.34146341463416,60,8
230,-0.19873046875,-1.0859375,0.3974609375,-15.79268292682927,95.3658536585366,128.59756097560978,60,8
231,-0.10791015625,-1.15087890625,0.49853515625,-38.71951219512196,106.82926829268294,142.6219512195122,60,8
232,-0.0693359375,-1.26220703125,0.33642578125,-34.390243902439025,104.26829268292684,161.52439024390245,60,8
233,-0.1171875,-1.443359375,0.3447265625,-12.926829268292684,88.41463414634147,182.31707317073173,60,8
234,-0.15283203125,-1.501953125,0.42626953125,20.0,71.15853658536587,205.4878048780488,60,8
235,-0.103515625,-1.732421875,0.3466796875,43.963414634146346,60.54878048780488,229.51219512195124,60,8
236,0.08349609375,-1.7705078125,0.35888671875,55.97560975609757,58.04878048780488,253.84146341463418,60,8
237,0.2373046875,-1.88330078125,0.2431640625,57.07317073170732,60.79268292682927,276.5853658536586,60,8
238,0.25390625,-2.0322265625,0.0302734375,52.07317073170732,63.23170731707317,298.9024390243903,60,8
239,0.5361328125,-2.23779296875,-0.03125,62.01219512195122,66.21951219512195,322.19512195121956,60,8
240,0.68798828125,-2.466796875,0.02490234375,42.13414634146342,64.9390243902439,348.3536585365854,60,8
241,0.88671875,-2.68798828125,0.02685546875,45.91463414634147,61.646341463414636,380.00000000000006,60,8
242,1.08349609375,-2.92822265625,-0.07666015625,54.451219512195124,59.451219512195124,410.3658536585366,60,8
243,1.32177734375,-3.1103515625,-0.236328125,64.02439024390245,54.085365853658544,445.4878048780488,60,8
244,1.56298828125,-3.3642578125,-0.341796875,71.82926829268294,51.524390243902445,482.07317073170736,60,8
245,1.86962890625,-3.62353515625,-0.4462890625,73.47560975609757,37.987804878048784,526.0975609756098,60,8
246,2.14306640625,-4.02392578125,-0.736328125,63.53658536585366,6.158536585365854,562.6219512195122,60,8
247,2.853515625,-4.43603515625,-1.0048828125,99.14634146341464,-21.03658536585366,615.3048780487806,60,8
248,3.61279296875,-4.72119140625,-1.4091796875,133.0487804878049,-32.31707317073171,662.1951219512196,60,8
249,4.626953125,-5.064453125,-1.78271484375,202.13414634146343,-50.1219512195122,699.939024390244,60,8
250,5.76904296875,-5.4541015625,-1.6865234375,289.51219512195127,-17.743902439024392,727.6829268292684,60,8
251,6.59521484375,-5.7001953125,-1.44970703125,341.3414634146342,13.414634146341465,753.4146341463415,60,8
252,7.13037109375,-5.59814453125,-1.5439453125,351.82926829268297,16.097560975609756,769.5731707317074,60,8
253,7.71337890625,-5.09326171875,-1.91943359375,380.7317073170732,22.926829268292686,797.5000000000001,60,8
254,8.1767578125,-5.06640625,-2.125,467.74390243902445,-8.658536585365855,863.1097560975611,60,8
255,9.0224609375,-5.2900390625,-2.59375,539.7560975609756,-34.024390243902445,896.7073170731708,60,8
256,10.2744140625,-5.10498046875,-3.26025390625,596.7073170731708,-65.1219512195122,917.8658536585367,60,8
257,11.93115234375,-4.318359375,-4.1240234375,655.3048780487806,-94.81707317073172,913.6585365853659,60,8
258,12.78857421875,-3.00146484375,-4.95166015625,690.9756097560976,-63.65853658536586,909.0243902439025,60,8
259,12.7939453125,-1.09228515625,-5.77783203125,717.8048780487806,-48.90243902439025,882.6219512195123,60,8
260,11.8173828125,-0.2060546875,-6.12841796875,755.0000000000001,-112.8658536585366,848.9024390243903,60,8
261,10.6884765625,-0.0244140625,-6.0478515625,834.0853658536586,-209.02439024390245,804.329268292683,60,8
262,8.41748046875,-0.6669921875,-6.46484375,890.7317073170733,-410.5487804878049,661.5853658536586,60,8
263,7.1142578125,-1.29931640625,-7.5439453125,1132.6219512195123,-498.2317073170732,747.0731707317074,60,8
264,8.67236328125,-8.3564453125,-2.1318359375,1990.3048780487807,-546.9512195121952,193.109756097561,60,8
265,-4.33984375,-5.77099609375,-15.466796875,915.8536585365855,-423.109756097561,-145.6707317073171,60,8
266,15.99951171875,15.0966796875,-5.18505859375,1078.2926829268295,-490.7926829268293,66.15853658536587,60,8
267,0.76171875,-2.85888671875,1.47802734375,1489.878048780488,-626.829268292683,-236.58536585365854,60,8
268,5.376953125,1.0576171875,-5.1474609375,1525.1219512195123,-350.2439024390244,-254.26829268292684,60,8
269,4.9931640625,0.4931640625,-2.4462890625,1090.9146341463415,-291.89024390243907,-501.3414634146342,60,8
270,3.7490234375,2.1611328125,0.52197265625,724.2073170731708,11.097560975609756,-447.31707317073176,60,8
271,3.06591796875,-0.392578125,0.55712890625,647.1341463414635,121.28048780487806,-326.3414634146342,60,8
272,3.181640625,-4.392578125,1.365234375,585.7317073170732,137.9268292682927,-394.0853658536586,60,8
273,3.3935546875,-4.8935546875,1.2236328125,552.6829268292684,83.10975609756099,-501.95121951219517,60,8
274,3.5029296875,-4.70654296875,-0.3896484375,541.2804878048781,20.365853658536587,-627.9268292682927,60,8
275,3.96533203125,-2.984375,-1.61962890625,497.92682926829275,66.40243902439025,-684.2682926829269,60,8
276,3.59326171875,-2.59130859375,-2.4609375,377.8658536585366,134.45121951219514,-681.4634146341464,60,8
277,3.7470703125,-1.54541015625,-2.2724609375,274.0243902439025,231.03658536585368,-633.5365853658537,60,8
278,3.0048828125,-2.0390625,-2.3828125,173.65853658536588,293.4146341463415,-602.0731707317074,60,8
279,2.63916015625,-2.408203125,-3.00244140625,96.95121951219512,338.9634146341464,-557.8048780487806,60,8
280,1.8515625,-2.7880859375,-2.60986328125,80.54878048780489,347.19512195121956,-499.87804878048786,60,8
281,1.13330078125,-2.7724609375,-2.54443359375,76.58536585365854,340.1219512195122,-484.81707317073176,60,8
282,1.126953125,-2.3251953125,-2.0849609375,78.78048780487805,346.6463414634147,-468.5975609756098,60,8
283,0.998046875,-2.1962890625,-1.62060546875,65.54878048780489,341.5243902439025,-460.48780487804885,60,8
284,1.30908203125,-1.90283203125,-1.5693359375,46.707317073170735,348.9024390243903,-449.81707317073176,60,8
285,1.3017578125,-1.82861328125,-1.80322265625,-20.365853658536587,353.5365853658537,-425.7926829268293,60,8
286,0.947265625,-1.73583984375,-1.84423828125,-51.82926829268293,345.3048780487805,-395.3048780487805,60,8
287,0.60546875,-1.74462890625,-1.8720703125,-65.1219512195122,334.20731707317077,-359.93902439024396,60,8
288,-0.01318359375,-1.63232421875,-1.30859375,-76.15853658536587,342.9268292682927,-324.26829268292687,60,8
289,-0.42919921875,-1.4501953125,-1.12353515625,-72.01219512195122,324.26829268292687,-290.1829268292683,60,8
290,-0.43212890625,-1.02734375,-0.93212890625,-63.53658536585366,322.25609756097566,-259.39024390243907,60,8
291,-0.197265625,-0.68896484375,-1.048828125,-51.707317073170735,310.7317073170732,-226.82926829268294,60,8
292,-0.0029296875,-0.3671875,-1.017578125,-53.29268292682927,297.31707317073176,-206.46341463414635,60,8
293,0.1005859375,-0.2021484375,-1.02685546875,-56.82926829268293,285.609756097561,-190.00000000000003,60,8
294,0.248046875,-0.0986328125,-0.8857421875,-70.2439024390244,276.6463414634147,-181.40243902439025,60,8
295,0.1181640625,-0.0146484375,-1.14794921875,-84.02439024390245,268.3536585365854,-186.82926829268294,60,8
296,0.06982421875,-0.0166015625,-1.09228515625,-82.6829268292683,259.69512195121956,-159.75609756097563,60,8
297,-0.15380859375,-0.1572265625,-0.9375,-92.8048780487805,244.69512195121953,-144.51219512195124,60,8
298,-0.23095703125,-0.314453125,-0.6689453125,-60.487804878048784,228.109756097561,-143.109756097561,60,8
299,-0.32177734375,-0.208984375,-0.53271484375,-50.426829268292686,213.2317073170732,-122.25609756097562,60,8
300,-0.25439453125,-0.150390625,-0.4892578125,-64.32926829268293,209.87804878048783,-104.93902439024392,60,8
301,-0.11181640625,0.04638671875,-0.53564453125,-62.865853658536594,207.13414634146343,-92.01219512195122,60,8
302,-0.17578125,-0.0224609375,-0.5810546875,-91.76829268292684,198.1707317073171,-78.96341463414635,60,8
303,-0.3271484375,-0.04931640625,-0.62255859375,-94.32926829268294,182.01219512195124,-70.73170731707317,60,8
304,-0.4775390625,-0.0439453125,-0.42578125,-90.0609756097561,165.97560975609758,-66.21951219512195,60,8
305,-0.53076171875,-0.02734375,-0.42431640625,-90.3658536585366,153.109756097561,-65.42682926829269,60,8
306,-0.4345703125,0.07177734375,-0.474609375,-81.82926829268294,137.19512195121953,-65.79268292682927,60,8
307,-0.34423828125,0.13525390625,-0.47314453125,-70.42682926829269,122.01219512195124,-59.39024390243903,60,8
308,-0.3837890625,0.16162109375,-0.43212890625,-67.13414634146342,115.00000000000001,-49.451219512195124,60,8
309,-0.6142578125,0.1279296875,-0.375,-64.08536585365854,110.54878048780489,-40.243902439024396,60,8
310,-0.8408203125,0.06298828125,-0.3740234375,-59.268292682926834,104.63414634146342,-34.268292682926834,60,8
311,-0.9521484375,0.04248046875,-0.3173828125,-54.146341463414636,100.79268292682927,-29.08536585365854,60,8
312,-0.88037109375,0.103515625,-0.181640625,-52.804878048780495,97.92682926829269,-22.378048780487806,60,8
313,-0.99169921875,0.1572265625,-0.1611328125,-56.768292682926834,93.96341463414635,-13.536585365853659,60,8
314,-0.97216796875,0.1708984375,-0.1259765625,-57.6219512195122,84.87804878048782,-7.25609756097561,60,8
315,-0.9326171875,0.24951171875,-0.34765625,-51.646341463414636,68.90243902439025,-2.9268292682926833,60,8
316,-0.8857421875,0.32470703125,-0.38037109375,-43.71951219512196,53.84146341463415,3.7195121951219514,60,8
317,-0.927734375,0.38330078125,-0.36572265625,-37.6829268292683,42.37804878048781,10.731707317073171,60,8
318,-0.998046875,0.41064453125,-0.3369140625,-32.987804878048784,34.268292682926834,15.121951219512196,60,8
319,-1.06884765625,0.39111328125,-0.26171875,-29.207317073170735,29.39024390243903,17.743902439024392,60,8
320,-1.06591796875,0.44677734375,-0.158203125,-24.512195121951223,21.890243902439025,18.10975609756098,60,8
321,-1.0048828125,0.47900390625,-0.0625,-23.963414634146343,18.53658536585366,17.073170731707318,60,8
322,-0.94091796875,0.5078125,-0.015625,-26.34146341463415,13.170731707317074,16.34146341463415,60,8
323,-0.89599609375,0.52734375,-0.04052734375,-27.25609756097561,7.317073170731708,15.060975609756099,60,8
324,-0.88134765625,0.52392578125,-0.056640625,-27.25609756097561,0.9756097560975611,14.26829268292683,60,8
325,-0.87109375,0.5283203125,-0.068359375,-24.75609756097561,-4.207317073170732,13.963414634146343,60,8
326,-0.84716796875,0.548828125,-0.04345703125,-20.914634146341466,-9.329268292682928,16.52439024390244,60,8
327,-0.86083984375,0.57275390625,-0.00830078125,-18.902439024390244,-11.707317073170733,19.085365853658537,60,8
328,-0.8974609375,0.56787109375,0.01904296875,-16.585365853658537,-16.646341463414636,21.707317073170735,60,8
329,-0.9384765625,0.54931640625,0.0498046875,-13.353658536585368,-23.04878048780488,22.5609756097561,60,8
330,-0.97509765625,0.51611328125,0.068359375,-10.060975609756099,-27.073170731707318,22.500000000000004,60,8
331,-0.95361328125,0.53662109375,0.11572265625,-6.463414634146342,-30.975609756097565,23.29268292682927,60,8
332,-0.9189453125,0.5478515625,0.12451171875,-3.9024390243902443,-36.09756097560976,25.54878048780488,60,8
333,-0.8994140625,0.56591796875,0.1123046875,-0.853658536585366,-42.43902439024391,27.621951219512198,60,8
334,-0.90478515625,0.56103515625,0.10888671875,4.024390243902439,-50.0609756097561,29.81707317073171,60,8
335,-0.91357421875,0.55859375,0.08203125,7.560975609756098,-55.426829268292686,30.731707317073173,60,8
336,-0.8828125,0.56640625,0.0966796875,9.634146341463415,-58.71951219512196,31.951219512195124,60,8
337,-0.8447265625,0.57275390625,0.01025390625,10.792682926829269,-61.707317073170735,33.35365853658537,60,8
338,-0.79736328125,0.59033203125,0.203125,12.621951219512196,-63.90243902439025,34.390243902439025,60,8
339,-0.751953125,0.59912109375,0.126953125,14.51219512195122,-69.63414634146342,36.34146341463415,60,8
340,-0.7421875,0.5849609375,0.2490234375,16.585365853658537,-74.51219512195122,37.01219512195122,60,8
341,-0.716796875,0.57470703125,0.2578125,18.414634146341466,-78.65853658536587,36.21951219512196,60,8
342,-0.68798828125,0.6005859375,0.28955078125,18.963414634146343,-81.82926829268294,36.890243902439025,60,8
343,-0.64208984375,0.6015625,0.33251953125,18.29268292682927,-84.08536585365854,37.07317073170732,60,8
344,-0.63134765625,0.5849609375,0.35498046875,18.658536585365855,-88.53658536585367,37.01219512195122,60,8
345,-0.62451171875,0.56005859375,0.36376953125,20.79268292682927,-91.70731707317074,36.09756097560976,60,8
346,-0.59912109375,0.5458984375,0.38232421875,22.743902439024392,-95.1219512195122,36.03658536585366,60,8
347,-0.56982421875,0.54638671875,0.41015625,23.29268292682927,-94.02439024390245,35.97560975609756,60,8
348,-0.54638671875,0.5625,0.43505859375,24.26829268292683,-94.45121951219512,37.13414634146342,60,8
349,-0.56005859375,0.5419921875,0.41015625,26.28048780487805,-94.87804878048782,36.951219512195124,60,8
350,-0.56298828125,0.5537109375,0.40771484375,30.121951219512198,-95.00000000000001,37.5609756097561,60,8
351,-0.5546875,0.5703125,0.43408203125,33.41463414634146,-95.48780487804879,39.146341463414636,60,8
352,-0.5419921875,0.6142578125,0.4462890625,34.024390243902445,-94.93902439024392,40.670731707317074,60,8
353,-0.5263671875,0.6337890625,0.4599609375,32.6219512195122,-93.35365853658537,41.28048780487805,60,8
354,-0.51904296875,0.65087890625,0.484375,30.54878048780488,-93.47560975609757,41.58536585365854,60,8
355,-0.51708984375,0.6318359375,0.47314453125,28.963414634146343,-93.17073170731707,41.768292682926834,60,8
356,-0.5078125,0.6298828125,0.48486328125,28.780487804878053,-94.02439024390245,41.40243902439025,60,8
357,-0.494140625,0.61376953125,0.51416015625,30.487804878048784,-97.13414634146342,41.82926829268293,60,8
358,-0.48486328125,0.5625,0.484375,31.03658536585366,-95.91463414634147,40.1219512195122,60,8
359,-0.44775390625,0.587890625,0.4697265625,31.09756097560976,-94.87804878048782,38.59756097560976,60,8
360,-0.3994140625,0.62109375,0.44580078125,31.03658536585366,-94.39024390243904,37.987804878048784,60,8
361,-0.34375,0.63427734375,0.44189453125,31.03658536585366,-94.75609756097562,38.04878048780488,60,8
362,-0.33740234375,0.609375,0.451171875,31.158536585365855,-94.93902439024392,39.024390243902445,60,8
363,-0.3505859375,0.59375,0.48046875,32.25609756097561,-94.81707317073172,39.63414634146342,60,8
364,-0.36279296875,0.58203125,0.49951171875,31.646341463414636,-92.92682926829269,39.51219512195122,60,8
365,-0.33935546875,0.58837890625,0.380859375,30.731707317073173,-91.64634146341464,40.91463414634147,60,8
366,-0.35205078125,0.55712890625,0.47314453125,29.634146341463417,-90.54878048780489,41.890243902439025,60,8
367,-0.38232421875,0.568359375,0.62158203125,31.951219512195124,-92.07317073170732,42.804878048780495,60,8
368,-0.3955078125,0.54052734375,0.5087890625,34.51219512195122,-93.17073170731707,44.87804878048781,60,8
369,-0.3818359375,0.56103515625,0.51171875,35.54878048780488,-91.82926829268294,45.670731707317074,60,8
370,-0.37109375,0.57080078125,0.53466796875,33.90243902439025,-90.0609756097561,47.43902439024391,60,8
371,-0.3564453125,0.5986328125,0.52197265625,32.743902439024396,-89.63414634146342,49.146341463414636,60,8
372,-0.33251953125,0.57861328125,0.49169921875,32.25609756097561,-88.84146341463415,50.0609756097561,60,8
373,-0.31103515625,0.59228515625,0.486328125,31.951219512195124,-89.39024390243904,51.40243902439025,60,8
374,-0.2958984375,0.59423828125,0.490234375,32.37804878048781,-89.69512195121952,52.804878048780495,60,8
375,-0.28857421875,0.58642578125,0.4951171875,32.31707317073171,-89.08536585365854,53.90243902439025,60,8
376,-0.28955078125,0.56884765625,0.49267578125,31.09756097560976,-87.43902439024392,54.81707317073171,60,8
377,-0.2646484375,0.587890625,0.48388671875,30.243902439024392,-85.0609756097561,54.81707317073171,60,8
378,-0.2255859375,0.6142578125,0.47900390625,30.0609756097561,-83.10975609756099,55.0609756097561,60,8
379,-0.17919921875,0.62744140625,0.49853515625,30.365853658536587,-80.91463414634147,55.00000000000001,60,8
380,-0.14306640625,0.625,0.49169921875,15.609756097560977,-80.42682926829269,55.487804878048784,60,8
381,-0.1484375,0.60302734375,0.4794921875,31.646341463414636,-80.54878048780489,55.73170731707317,60,8
382,-0.158203125,0.60595703125,0.44091796875,31.280487804878053,-81.21951219512196,56.09756097560976,60,8
383,-0.15283203125,0.6220703125,0.45263671875,29.207317073170735,-80.79268292682927,55.60975609756098,60,8
384,-0.119140625,0.6611328125,0.4599609375,27.012195121951223,-79.02439024390245,55.426829268292686,60,8
385,-0.10107421875,0.66796875,0.4775390625,24.81707317073171,-77.01219512195122,55.1829268292683,60,8
386,-0.09814453125,0.66748046875,0.4853515625,24.085365853658537,-76.58536585365854,55.73170731707317,60,8
387,-0.1015625,0.6357421875,0.47119140625,25.182926829268293,-77.19512195121952,55.365853658536594,60,8
388,-0.0810546875,0.6220703125,0.4873046875,28.414634146341466,-79.08536585365854,55.243902439024396,60,8
389,-0.0654296875,0.59814453125,0.474609375,29.695121951219516,-77.8048780487805,55.1829268292683,60,8
390,-0.03515625,0.6025390625,0.45556640625,29.451219512195124,-75.60975609756098,54.93902439024391,60,8
391,-0.11865234375,0.61376953125,0.43505859375,28.10975609756098,-74.26829268292684,54.57317073170732,60,8
392,0.021484375,0.61328125,0.408203125,27.743902439024392,-75.79268292682927,55.60975609756098,60,8
393,0.00634765625,0.57177734375,0.37841796875,24.207317073170735,-74.93902439024392,55.487804878048784,60,8
394,0.0185546875,0.60693359375,0.3916015625,21.34146341463415,-74.14634146341464,55.85365853658537,60,8
395,0.0234375,0.6298828125,0.4013671875,18.597560975609756,-72.5,56.707317073170735,60,8
396,0.037109375,0.6376953125,0.41650390625,16.585365853658537,-70.60975609756098,57.31707317073171,60,8
397,0.0390625,0.630859375,0.39013671875,15.182926829268293,-68.90243902439025,58.963414634146346,60,8
398,0.021484375,0.61865234375,0.39501953125,15.365853658536587,-67.98780487804879,60.79268292682927,60,8
399,0.02880859375,0.6083984375,0.39453125,16.158536585365855,-68.96341463414635,62.6829268292683,60,8
400,0.0126953125,0.58447265625,0.40087890625,17.012195121951223,-69.75609756097562,65.42682926829269,60,8
401,-0.12451171875,0.5712890625,0.39453125,18.53658536585366,-72.07317073170732,67.25609756097562,60,8
402,-0.00537109375,0.55908203125,0.38525390625,19.695121951219512,-73.10975609756098,69.69512195121952,60,8
403,0.0126953125,0.5849609375,0.39208984375,18.353658536585368,-71.46341463414635,71.52439024390245,60,8
404,0.060546875,0.6123046875,0.390625,16.03658536585366,-69.32926829268293,74.32926829268294,60,8
405,0.07861328125,0.6357421875,0.38427734375,14.329268292682928,-67.13414634146342,76.52439024390245,60,8
406,0.11083984375,0.64208984375,0.38427734375,14.02439024390244,-65.85365853658537,78.65853658536587,60,8
407,0.13427734375,0.64990234375,0.3583984375,14.146341463414636,-64.75609756097562,79.57317073170732,60,8
408,0.18115234375,0.65380859375,0.328125,15.30487804878049,-66.09756097560977,80.67073170731707,60,8
409,0.20068359375,0.63134765625,0.28564453125,17.195121951219512,-69.81707317073172,81.34146341463415,60,8
410,0.21826171875,0.61669921875,0.2724609375,18.231707317073173,-73.23170731707317,80.67073170731707,60,8
411,0.25390625,0.6279296875,0.294921875,16.951219512195124,-74.02439024390245,80.48780487804879,60,8
412,0.28857421875,0.6416015625,0.328125,13.78048780487805,-72.25609756097562,80.54878048780489,60,8
413,0.29638671875,0.6396484375,0.35986328125,10.365853658536587,-70.73170731707317,80.42682926829269,60,8
414,0.29150390625,0.6015625,0.353515625,10.182926829268293,-68.90243902439025,80.2439024390244,60,8
415,0.302734375,0.59130859375,0.33837890625,12.01219512195122,-68.41463414634147,79.93902439024392,60,8
416,0.3330078125,0.6162109375,0.3271484375,14.390243902439027,-69.69512195121952,79.57317073170732,60,8
417,0.37060546875,0.62744140625,0.30615234375,15.54878048780488,-70.67073170731707,78.90243902439025,60,8
418,0.37890625,0.62646484375,0.2890625,15.731707317073171,-71.03658536585367,78.23170731707317,60,8
419,0.40576171875,0.6298828125,0.27685546875,14.573170731707318,-71.03658536585367,77.19512195121952,60,8
420,0.4267578125,0.6318359375,0.2822265625,13.475609756097562,-71.09756097560977,76.70731707317074,60,8
421,0.4541015625,0.63525390625,0.27294921875,11.76829268292683,-71.28048780487805,76.76829268292684,60,8
422,0.4482421875,0.611328125,0.283203125,8.170731707317074,-70.91463414634147,76.58536585365854,60,8
423,0.46240234375,0.6103515625,0.30615234375,6.036585365853659,-70.97560975609757,77.13414634146342,60,8
424,0.46533203125,0.58154296875,0.30126953125,4.451219512195122,-71.40243902439025,78.17073170731707,60,8
425,0.435546875,0.53759765625,0.25634765625,2.0121951219512195,-70.42682926829269,79.32926829268294,60,8
426,0.4462890625,0.529296875,0.23388671875,0.3658536585365854,-71.15853658536587,80.0609756097561,60,8
427,0.4619140625,0.521484375,0.2333984375,0.0,-73.04878048780489,80.48780487804879,60,8
428,0.48974609375,0.5166015625,0.25,0.24390243902439027,-72.7439024390244,79.87804878048782,60,8
429,0.50830078125,0.5126953125,0.28173828125,1.6463414634146343,-72.01219512195122,78.71951219512196,60,8
430,0.53125,0.51953125,0.26416015625,2.25609756097561,-70.1219512195122,77.6219512195122,60,8
431,0.568359375,0.54150390625,0.2470703125,2.682926829268293,-67.6219512195122,76.46341463414635,60,8
432,0.57421875,0.55029296875,0.21044921875,2.5,-67.31707317073172,76.15853658536587,60,8
433,0.57080078125,0.53076171875,0.17724609375,2.7439024390243905,-67.37804878048782,74.87804878048782,60,8
434,0.5693359375,0.513671875,0.17138671875,4.573170731707317,-67.92682926829269,73.78048780487805,60,8
435,0.55712890625,0.51806640625,0.19140625,6.097560975609756,-68.17073170731707,73.17073170731707,60,8
436,0.57666015625,0.51953125,0.1943359375,7.134146341463415,-67.37804878048782,72.5609756097561,60,8
437,0.5771484375,0.501953125,0.205078125,7.865853658536586,-66.89024390243902,73.04878048780489,60,8
438,0.568359375,0.49462890625,0.1953125,6.2804878048780495,-65.60975609756098,73.10975609756098,60,8
439,0.6025390625,0.52685546875,0.21875,4.634146341463415,-64.51219512195122,72.98780487804879,60,8
440,0.62841796875,0.54833984375,0.232421875,2.5,-63.10975609756098,73.29268292682927,60,8
441,0.65380859375,0.55859375,0.24658203125,1.8902439024390245,-62.50000000000001,73.17073170731707,60,8
442,0.66015625,0.53857421875,0.37109375,2.1951219512195124,-62.07317073170732,72.8048780487805,60,8
443,0.67529296875,0.5322265625,0.2294921875,3.414634146341464,-46.951219512195124,71.58536585365854,60,8
444,0.68359375,0.525390625,0.208984375,4.573170731707317,-63.23170731707317,70.73170731707317,60,8
445,0.7021484375,0.53759765625,0.1826171875,4.817073170731708,-63.65853658536586,69.57317073170732,60,8
446,0.69287109375,0.51806640625,0.14697265625,2.6219512195121952,-62.865853658536594,68.71951219512195,60,8
447,0.712890625,0.50927734375,0.13818359375,-0.853658536585366,-61.03658536585366,67.6219512195122,60,8
448,0.7333984375,0.50927734375,0.14306640625,-4.329268292682928,-59.57317073170732,66.70731707317074,60,8
449,0.744140625,0.50146484375,0.1689453125,-5.731707317073171,-58.47560975609757,66.03658536585367,60,8
450,0.7470703125,0.47314453125,0.185546875,-5.060975609756098,-58.04878048780488,64.75609756097562,60,8
451,0.74169921875,0.45556640625,0.17236328125,-3.536585365853659,-58.41463414634147,63.10975609756098,60,8
452,0.73681640625,0.44970703125,0.1650390625,-1.524390243902439,-58.90243902439025,61.82926829268293,60,8
453,0.62548828125,0.466796875,0.1669921875,-0.7926829268292683,-58.84146341463415,59.75609756097562,60,8
454,0.75537109375,0.4677734375,0.12744140625,-1.5853658536585367,-58.41463414634147,59.51219512195122,60,8
455,0.74462890625,0.4619140625,0.11767578125,-3.7195121951219514,-57.43902439024391,58.84146341463415,60,8
456,0.7314453125,0.4443359375,0.09814453125,-6.158536585365854,-56.34146341463415,58.59756097560976,60,8
457,0.744140625,0.4384765625,0.08984375,-7.987804878048781,-55.365853658536594,58.41463414634147,60,8
458,0.7412109375,0.41943359375,0.0830078125,-10.731707317073171,-54.81707317073171,58.17073170731708,60,8
459,0.73974609375,0.39599609375,0.0693359375,-13.597560975609758,-54.32926829268293,57.560975609756106,60,8
460,0.62744140625,0.392578125,0.060546875,-16.951219512195124,-53.29268292682927,55.91463414634147,60,8
461,0.763671875,0.39208984375,0.06689453125,-19.085365853658537,-53.04878048780488,55.0609756097561,60,8
462,0.78173828125,0.39990234375,0.07763671875,-20.365853658536587,-53.41463414634147,53.963414634146346,60,8
463,0.75927734375,0.3671875,0.07958984375,-20.30487804878049,-54.085365853658544,52.6829268292683,60,8
464,0.734375,0.34033203125,0.091796875,-19.939024390243905,-53.53658536585366,49.75609756097561,60,8
465,0.755859375,0.3515625,0.09716796875,-20.243902439024392,-52.01219512195122,46.09756097560976,60,8
466,0.78125,0.3759765625,0.08251953125,-20.365853658536587,-50.91463414634147,43.53658536585366,60,8
467,0.78662109375,0.39111328125,0.04443359375,-19.695121951219512,-51.707317073170735,41.15853658536586,60,8
468,0.76513671875,0.37744140625,0.03271484375,-17.865853658536587,-52.25609756097561,38.65853658536586,60,8
469,0.76171875,0.392578125,0.044921875,-16.646341463414636,-52.6219512195122,36.40243902439025,60,8
470,0.77294921875,0.44384765625,0.03466796875,-18.04878048780488,-51.03658536585366,34.08536585365854,60,8
471,0.7626953125,0.458984375,0.04248046875,-21.097560975609756,-48.59756097560976,32.987804878048784,60,8
472,0.74072265625,0.4775390625,0.046875,-24.02439024390244,-46.21951219512196,31.402439024390247,60,8
473,0.74169921875,0.47802734375,0.05029296875,-26.82926829268293,-44.390243902439025,30.487804878048784,60,8
474,0.73828125,0.4736328125,0.05908203125,-28.353658536585368,-42.13414634146342,29.146341463414636,60,8
475,0.74658203125,0.48095703125,0.07470703125,-28.475609756097562,-40.73170731707317,27.5609756097561,60,8
476,0.87353515625,0.48876953125,0.06982421875,-27.987804878048784,-39.51219512195122,26.28048780487805,60,8
477,0.76806640625,0.49365234375,0.04833984375,-26.82926829268293,-38.35365853658537,24.573170731707318,60,8
478,0.76904296875,0.48681640625,0.02783203125,-26.219512195121954,-37.43902439024391,22.134146341463417,60,8
479,0.77880859375,0.49755859375,-0.11572265625,-25.243902439024392,-36.707317073170735,19.32926829268293,60,8
480,0.7978515625,0.494140625,-0.04541015625,-25.792682926829272,-35.73170731707317,15.853658536585368,60,8
481,0.82666015625,0.4833984375,-0.07958984375,-28.719512195121954,-33.84146341463415,12.01219512195122,60,8
482,0.83935546875,0.484375,-0.09375,-32.6219512195122,-31.82926829268293,8.78048780487805,60,8
483,0.83056640625,0.4609375,-0.095703125,-36.58536585365854,-29.939024390243905,5.426829268292684,60,8
484,0.81982421875,0.42578125,-0.0771484375,-38.963414634146346,-28.04878048780488,2.6219512195121952,60,8
485,0.80859375,0.4033203125,-0.06494140625,-40.97560975609756,-26.158536585365855,0.24390243902439027,60,8
486,0.80615234375,0.38427734375,-0.04638671875,-42.19512195121951,-24.695121951219516,-1.8902439024390245,60,8
487,0.7919921875,0.35546875,-0.0625,-43.53658536585366,-23.10975609756098,-3.7195121951219514,60,8
488,0.78369140625,0.33349609375,-0.06884765625,-44.75609756097561,-21.890243902439025,-5.548780487804878,60,8
489,0.77880859375,0.33154296875,-0.09130859375,-46.15853658536586,-22.439024390243905,-7.378048780487806,60,8
490,0.75732421875,0.30810546875,-0.1171875,-47.5609756097561,-23.04878048780488,-8.78048780487805,60,8
491,0.75390625,0.28564453125,-0.12646484375,-49.207317073170735,-23.353658536585368,-10.0,60,8
492,0.75390625,0.279296875,-0.12890625,-51.28048780487806,-23.59756097560976,-10.975609756097562,60,8
493,0.74169921875,0.27392578125,-0.2451171875,-52.804878048780495,-23.414634146341466,-11.707317073170733,60,8
494,0.7255859375,0.24267578125,-0.1240234375,-54.69512195121952,-22.682926829268293,-12.317073170731708,60,8
495,0.71044921875,0.21728515625,-0.099609375,-55.91463414634147,-21.097560975609756,-12.987804878048781,60,8
496,0.6953125,0.20751953125,-0.0869140625,-56.646341463414636,-19.451219512195124,-13.231707317073171,60,8
497,0.68896484375,0.19677734375,-0.0693359375,-56.585365853658544,-17.743902439024392,-13.902439024390246,60,8
498,0.6845703125,0.19921875,-0.0341796875,-56.21951219512196,-17.073170731707318,-14.146341463414636,60,8
499,0.68505859375,0.18701171875,-0.0390625,-55.91463414634147,-17.743902439024392,-14.756097560975611,60,8
