,Ax,Ay,Az,Gx,Gy,Gz,distance,shot_type
0,0.7265625,-0.40185546875,-0.27392578125,6.158536585365854,3.780487804878049,4.573170731707317,10,4
1,0.7412109375,-0.3857421875,-0.27685546875,5.548780487804878,4.573170731707317,3.8414634146341466,10,4
2,0.73974609375,-0.38671875,-0.2626953125,6.829268292682928,3.780487804878049,3.353658536585366,10,4
3,0.72607421875,-0.4052734375,-0.25830078125,9.146341463414634,2.5,2.682926829268293,10,4
4,0.74658203125,-0.38427734375,-0.24853515625,10.121951219512196,3.2926829268292686,1.0365853658536586,10,4
5,0.63037109375,-0.384765625,-0.24462890625,9.573170731707318,4.878048780487806,0.0,10,4
6,0.7490234375,-0.37548828125,-0.232421875,9.51219512195122,6.341463414634147,-0.7926829268292683,10,4
7,0.76171875,-0.49609375,-0.22216796875,8.475609756097562,8.78048780487805,-1.6463414634146343,10,4
8,0.765625,-0.369140625,-0.21484375,5.365853658536586,11.585365853658537,-2.1951219512195124,10,4
9,0.77587890625,-0.388671875,-0.20458984375,4.085365853658537,13.78048780487805,-2.378048780487805,10,4
10,0.75341796875,-0.4404296875,-0.18115234375,4.146341463414634,14.207317073170733,-2.3170731707317076,10,4
11,0.7294921875,-0.47705078125,-0.166015625,6.097560975609756,13.109756097560977,-2.5609756097560976,10,4
12,0.7333984375,-0.48388671875,-0.1708984375,10.365853658536587,11.402439024390246,-3.2926829268292686,10,4
13,0.72509765625,-0.501953125,-0.17041015625,12.865853658536587,9.756097560975611,-4.695121951219512,10,4
14,0.72119140625,-0.51318359375,-0.19775390625,14.573170731707318,9.329268292682928,-5.487804878048781,10,4
15,0.701171875,-0.52099609375,-0.20654296875,14.146341463414636,9.451219512195122,-5.975609756097562,10,4
16,0.701171875,-0.52587890625,-0.20654296875,12.74390243902439,10.365853658536587,-5.853658536585367,10,4
17,0.68896484375,-0.53125,-0.2080078125,10.853658536585368,10.548780487804878,-6.158536585365854,10,4
18,0.693359375,-0.52734375,-0.1953125,10.426829268292684,9.939024390243903,-6.52439024390244,10,4
19,0.67529296875,-0.55810546875,-0.21337890625,12.80487804878049,7.25609756097561,-6.402439024390245,10,4
20,0.65185546875,-0.5947265625,-0.2431640625,15.426829268292684,4.51219512195122,-6.097560975609756,10,4
21,0.658203125,-0.59130859375,-0.12890625,19.26829268292683,0.6097560975609757,-5.7926829268292686,10,4
22,0.65283203125,-0.60107421875,-0.25048828125,23.59756097560976,-3.658536585365854,-4.817073170731708,10,4
23,0.62548828125,-0.62890625,-0.24462890625,28.353658536585368,-8.048780487804878,-3.2926829268292686,10,4
24,0.57421875,-0.64990234375,-0.25439453125,30.853658536585368,-11.097560975609756,-1.707317073170732,10,4
25,0.5703125,-0.65576171875,-0.2744140625,28.04878048780488,-11.097560975609756,-1.1585365853658538,10,4
26,0.587890625,-0.60888671875,-0.32373046875,22.621951219512198,-7.8048780487804885,0.30487804878048785,10,4
27,0.6103515625,-0.6083984375,-0.3525390625,13.719512195121952,-3.4756097560975614,1.4634146341463417,10,4
28,0.63525390625,-0.556640625,-0.39111328125,5.365853658536586,2.8658536585365857,0.426829268292683,10,4
29,0.65869140625,-0.505859375,-0.4033203125,-3.414634146341464,9.085365853658537,-0.12195121951219513,10,4
30,0.662109375,-0.525390625,-0.5,-13.353658536585368,16.34146341463415,-0.3658536585365854,10,4
31,0.6591796875,-0.5380859375,-0.25634765625,-21.951219512195124,21.097560975609756,-0.9146341463414634,10,4
32,0.6611328125,-0.51806640625,-0.38525390625,-24.75609756097561,22.073170731707318,-1.2195121951219514,10,4
33,0.6513671875,-0.513671875,-0.337890625,-22.012195121951223,19.695121951219512,-0.1829268292682927,10,4
34,0.64111328125,-0.546875,-0.283203125,-17.682926829268293,16.463414634146343,1.402439024390244,10,4
35,0.63427734375,-0.58056640625,-0.27294921875,-13.597560975609758,12.80487804878049,2.5,10,4
36,0.62109375,-0.57763671875,-0.27392578125,-10.548780487804878,10.426829268292684,3.4756097560975614,10,4
37,0.61669921875,-0.5517578125,-0.28466796875,-9.573170731707318,8.902439024390244,4.390243902439025,10,4
38,0.6376953125,-0.51708984375,-0.267578125,-9.573170731707318,9.207317073170733,4.51219512195122,10,4
39,0.6728515625,-0.46728515625,-0.2421875,-11.219512195121952,10.792682926829269,4.207317073170732,10,4
40,0.6884765625,-0.46533203125,-0.2431640625,-15.426829268292684,13.963414634146343,4.451219512195122,10,4
41,0.68701171875,-0.44970703125,-0.23583984375,-21.219512195121954,18.963414634146343,2.8658536585365857,10,4
42,0.68994140625,-0.42041015625,-0.2509765625,-26.76829268292683,23.53658536585366,2.073170731707317,10,4
43,0.70263671875,-0.42333984375,-0.23974609375,-31.463414634146343,26.28048780487805,1.9512195121951221,10,4
44,0.6923828125,-0.435546875,-0.19384765625,-30.30487804878049,24.573170731707318,1.9512195121951221,10,4
45,0.6533203125,-0.5126953125,-0.15283203125,-24.878048780487806,20.731707317073173,2.0121951219512195,10,4
46,0.6435546875,-0.5185546875,-0.14208984375,-16.76829268292683,14.695121951219514,1.6463414634146343,10,4
47,0.63134765625,-0.541015625,-0.14013671875,-10.121951219512196,10.365853658536587,2.3170731707317076,10,4
48,0.64794921875,-0.5576171875,-0.16845703125,-4.51219512195122,6.158536585365854,2.9268292682926833,10,4
49,0.6669921875,-0.5732421875,-0.1806640625,0.9146341463414634,3.780487804878049,3.048780487804878,10,4
50,0.6640625,-0.56298828125,-0.1669921875,3.353658536585366,3.048780487804878,3.2926829268292686,10,4
51,0.6728515625,-0.54443359375,-0.1884765625,2.1951219512195124,3.8414634146341466,2.804878048780488,10,4
52,0.6875,-0.525390625,-0.23095703125,-1.2804878048780488,6.890243902439025,1.524390243902439,10,4
53,0.70849609375,-0.50244140625,-0.236328125,-7.500000000000001,12.073170731707318,0.7926829268292683,10,4
54,0.7177734375,-0.37841796875,-0.21728515625,-16.70731707317073,18.597560975609756,0.7317073170731708,10,4
55,0.71337890625,-0.51123046875,-0.20263671875,-23.475609756097562,23.10975609756098,0.853658536585366,10,4
56,0.6875,-0.55126953125,-0.166015625,-26.09756097560976,25.30487804878049,1.1585365853658538,10,4
57,0.6689453125,-0.57470703125,-0.11767578125,-24.085365853658537,24.512195121951223,1.2195121951219514,10,4
58,0.64892578125,-0.57421875,-0.09619140625,-19.26829268292683,22.682926829268293,1.8902439024390245,10,4
59,0.6552734375,-0.57861328125,-0.09228515625,-15.121951219512196,21.158536585365855,2.1951219512195124,10,4
60,0.68505859375,-0.56689453125,-0.08984375,-11.890243902439025,21.52439024390244,2.804878048780488,10,4
61,0.67138671875,-0.56396484375,-0.0693359375,-11.097560975609756,22.5609756097561,3.1707317073170733,10,4
62,0.685546875,-0.53662109375,-0.06005859375,-12.256097560975611,25.121951219512198,2.5609756097560976,10,4
63,0.68603515625,-0.52880859375,-0.087890625,-15.060975609756099,27.621951219512198,2.1951219512195124,10,4
64,0.68798828125,-0.53271484375,-0.0888671875,-18.231707317073173,15.670731707317074,2.439024390243903,10,4
65,0.69580078125,-0.5400390625,-0.09130859375,-21.097560975609756,34.75609756097561,2.8658536585365857,10,4
66,0.69775390625,-0.5478515625,-0.08642578125,-24.085365853658537,38.963414634146346,3.1707317073170733,10,4
67,0.6943359375,-0.55615234375,-0.091796875,-25.792682926829272,42.6219512195122,3.1707317073170733,10,4
68,0.68017578125,-0.56494140625,-0.056640625,-26.646341463414636,44.87804878048781,3.780487804878049,10,4
69,0.69677734375,-0.54736328125,-0.02099609375,-24.207317073170735,45.54878048780488,4.146341463414634,10,4
70,0.703125,-0.56103515625,0.0478515625,-19.695121951219512,44.87804878048781,3.1097560975609757,10,4
71,0.70849609375,-0.54638671875,0.03955078125,-14.146341463414636,44.75609756097561,1.7682926829268295,10,4
72,0.69482421875,-0.56494140625,0.02880859375,-10.365853658536587,45.54878048780488,2.6219512195121952,10,4
73,0.671875,-0.625,0.02001953125,-6.52439024390244,45.1829268292683,4.634146341463415,10,4
74,0.62841796875,-0.66845703125,0.0166015625,-1.2804878048780488,46.21951219512196,7.195121951219513,10,4
75,0.58544921875,-0.68603515625,0.02294921875,3.048780487804878,45.36585365853659,7.682926829268293,10,4
76,0.634765625,-0.6123046875,-0.02294921875,5.914634146341464,43.10975609756098,7.134146341463415,10,4
77,0.68798828125,-0.51513671875,-0.04833984375,7.560975609756098,44.87804878048781,7.25609756097561,10,4
78,0.724609375,-0.482421875,-0.0791015625,3.963414634146342,45.60975609756098,5.975609756097562,10,4
79,0.70556640625,-0.38525390625,-0.115234375,1.4634146341463417,48.59756097560976,6.463414634146342,10,4
80,0.7041015625,-0.55078125,-0.08056640625,-0.6707317073170732,50.0609756097561,7.621951219512196,10,4
81,0.67919921875,-0.6162109375,-0.0458984375,-4.390243902439025,55.426829268292686,9.085365853658537,10,4
82,0.68603515625,-0.58349609375,-0.0048828125,-9.02439024390244,59.81707317073171,9.085365853658537,10,4
83,0.68310546875,-0.53515625,-0.03173828125,-11.097560975609756,61.463414634146346,10.182926829268293,10,4
84,0.65576171875,-0.5439453125,-0.0390625,-10.914634146341465,61.34146341463415,11.52439024390244,10,4
85,0.6455078125,-0.556640625,-0.02587890625,-10.609756097560977,60.1829268292683,13.170731707317074,10,4
86,0.6669921875,-0.53759765625,-0.06201171875,-14.02439024390244,57.25609756097561,14.634146341463415,10,4
87,0.68896484375,-0.47314453125,-0.1044921875,-14.878048780487806,56.03658536585366,14.878048780487806,10,4
88,0.732421875,-0.443359375,-0.1337890625,-15.000000000000002,55.0609756097561,15.853658536585368,10,4
89,0.7255859375,-0.46875,-0.12744140625,-15.365853658536587,52.37804878048781,16.158536585365855,10,4
90,0.6943359375,-0.47412109375,-0.09521484375,-14.634146341463415,52.13414634146342,17.31707317073171,10,4
91,0.7197265625,-0.44677734375,-0.09423828125,-17.195121951219512,53.53658536585366,17.378048780487806,10,4
92,0.744140625,-0.41748046875,-0.1220703125,-24.390243902439025,57.6829268292683,16.76829268292683,10,4
93,0.625,-0.412109375,-0.1337890625,-30.792682926829272,61.768292682926834,31.03658536585366,10,4
94,0.7607421875,-0.416015625,-0.14013671875,-42.13414634146342,68.10975609756098,12.865853658536587,10,4
95,0.78759765625,-0.38232421875,-0.23583984375,-52.19512195121952,75.1219512195122,9.817073170731708,10,4
96,0.81298828125,-0.32568359375,-0.2265625,-60.60975609756098,79.63414634146342,6.7682926829268295,10,4
97,0.80859375,-0.3740234375,-0.2216796875,-65.3048780487805,80.48780487804879,4.939024390243903,10,4
98,0.75244140625,-0.44580078125,-0.22265625,-63.84146341463415,76.58536585365854,5.121951219512195,10,4
99,0.7158203125,-0.51123046875,-0.2314453125,-56.21951219512196,71.28048780487805,5.548780487804878,10,4
100,0.70458984375,-0.505859375,-0.21337890625,-46.89024390243903,65.79268292682927,6.402439024390245,10,4
101,0.70947265625,-0.46240234375,-0.21044921875,-42.6829268292683,77.92682926829269,6.951219512195123,10,4
102,0.6982421875,-0.4208984375,-0.22900390625,-42.31707317073171,58.41463414634147,6.2804878048780495,10,4
103,0.70458984375,-0.34375,-0.2421875,-44.63414634146342,55.60975609756098,3.7195121951219514,10,4
104,0.69775390625,-0.33154296875,-0.21533203125,-48.41463414634147,55.243902439024396,1.0975609756097562,10,4
105,0.69873046875,-0.3544921875,-0.28076171875,-52.86585365853659,53.78048780487806,-2.987804878048781,10,4
106,0.71435546875,-0.306640625,-0.26953125,-55.60975609756098,51.28048780487806,-6.341463414634147,10,4
107,0.73046875,-0.3046875,-0.2734375,-55.97560975609757,47.01219512195122,-9.573170731707318,10,4
108,0.7392578125,-0.31591796875,-0.2666015625,-57.19512195121952,44.390243902439025,-12.317073170731708,10,4
109,0.7255859375,-0.32958984375,-0.228515625,-58.59756097560976,43.53658536585366,-14.51219512195122,10,4
110,0.7216796875,-0.32568359375,-0.2255859375,-61.21951219512196,42.07317073170732,-16.158536585365855,10,4
111,0.67578125,-0.3642578125,-0.20556640625,-62.865853658536594,41.09756097560976,-16.585365853658537,10,4
112,0.68017578125,-0.35302734375,-0.21142578125,-62.43902439024391,37.6219512195122,-17.743902439024392,10,4
113,0.7158203125,-0.296875,-0.22705078125,-62.25609756097562,36.15853658536586,-20.182926829268293,10,4
114,0.7373046875,-0.28466796875,-0.265625,-64.20731707317074,34.268292682926834,-22.134146341463417,10,4
115,0.8701171875,-0.271484375,-0.29345703125,-67.7439024390244,33.84146341463415,-25.182926829268293,10,4
116,0.74462890625,-0.27294921875,-0.2880859375,-70.3048780487805,32.743902439024396,-26.89024390243903,10,4
117,0.76611328125,-0.27099609375,-0.30126953125,-72.19512195121952,31.34146341463415,-27.987804878048784,10,4
118,0.76171875,-0.26318359375,-0.29150390625,-74.63414634146342,31.58536585365854,-30.0609756097561,10,4
119,0.7666015625,-0.2509765625,-0.28857421875,-77.7439024390244,31.34146341463415,-31.646341463414636,10,4
120,0.7705078125,-0.23974609375,-0.3046875,-82.6829268292683,31.951219512195124,-35.0609756097561,10,4
121,0.76220703125,-0.21826171875,-0.2958984375,-88.29268292682927,33.90243902439025,-38.10975609756098,10,4
122,0.77001953125,-0.2109375,-0.2666015625,-94.81707317073172,35.243902439024396,-40.670731707317074,10,4
123,0.765625,-0.23095703125,-0.2578125,-100.1829268292683,35.73170731707317,-43.47560975609756,10,4
124,0.74853515625,-0.2685546875,-0.27294921875,-102.13414634146342,34.87804878048781,-45.243902439024396,10,4
125,0.728515625,-0.29638671875,-0.375,-100.60975609756099,31.58536585365854,-46.646341463414636,10,4
126,0.744140625,-0.3095703125,-0.26318359375,-98.71951219512196,29.451219512195124,-47.6829268292683,10,4
127,0.74853515625,-0.306640625,-0.23388671875,-97.25609756097562,27.500000000000004,-48.47560975609756,10,4
128,0.763671875,-0.3037109375,-0.2431640625,-97.7439024390244,25.182926829268293,-49.63414634146342,10,4
129,0.77685546875,-0.369140625,-0.28076171875,-99.45121951219512,23.53658536585366,-53.04878048780488,10,4
130,0.798828125,-0.22900390625,-0.31201171875,-102.8658536585366,22.378048780487806,-56.646341463414636,10,4
131,0.8369140625,-0.20654296875,-0.32177734375,-104.87804878048782,21.158536585365855,-60.060975609756106,10,4
132,0.86279296875,-0.21240234375,-0.32470703125,-108.17073170731709,20.48780487804878,-63.10975609756098,10,4
133,0.8916015625,-0.2080078125,-0.32275390625,-111.28048780487806,20.30487804878049,-66.40243902439025,10,4
134,0.89208984375,-0.2216796875,-0.3212890625,-115.12195121951221,21.158536585365855,-69.08536585365854,10,4
135,0.8798828125,-0.22900390625,-0.3154296875,-117.98780487804879,20.853658536585368,-70.1219512195122,10,4
136,0.87255859375,-0.24560546875,-0.2998046875,-120.85365853658537,22.134146341463417,-72.37804878048782,10,4
137,0.90283203125,-0.22607421875,-0.29736328125,-123.23170731707319,23.658536585365855,-73.84146341463415,10,4
138,0.8974609375,-0.23681640625,-0.28955078125,-126.03658536585367,24.939024390243905,-75.0,10,4
139,0.8837890625,-0.25048828125,-0.30224609375,-129.39024390243904,27.195121951219516,-77.19512195121952,10,4
140,0.88623046875,-0.2607421875,-0.30615234375,-132.01219512195124,28.963414634146343,-79.75609756097562,10,4
141,0.91552734375,-0.2236328125,-0.298828125,-133.59756097560978,28.475609756097562,-81.09756097560977,10,4
142,0.931640625,-0.2177734375,-0.26806640625,-136.40243902439025,27.5609756097561,-83.53658536585367,10,4
143,0.94091796875,-0.205078125,-0.3369140625,-136.89024390243904,25.914634146341466,-87.37804878048782,10,4
144,0.96826171875,-0.17236328125,-0.2744140625,-135.3658536585366,23.658536585365855,-90.3658536585366,10,4
145,0.9765625,-0.205078125,-0.3251953125,-138.2317073170732,22.500000000000004,-94.57317073170732,10,4
146,1.0234375,-0.14599609375,-0.3369140625,-139.20731707317074,22.195121951219512,-99.51219512195122,10,4
147,1.037109375,-0.1474609375,-0.3271484375,-141.70731707317074,21.52439024390244,-102.8048780487805,10,4
148,1.06201171875,-0.15478515625,-0.349609375,-143.1707317073171,21.890243902439025,-105.42682926829269,10,4
149,1.08056640625,-0.14404296875,-0.359375,-145.0,21.097560975609756,-109.81707317073172,10,4
150,1.10595703125,-0.09814453125,-0.34130859375,-146.21951219512195,20.243902439024392,-112.92682926829269,10,4
151,1.11181640625,-0.09423828125,-0.32763671875,-146.46341463414635,19.81707317073171,-115.73170731707319,10,4
152,1.11083984375,-0.08740234375,-0.31298828125,-145.2439024390244,18.78048780487805,-116.89024390243904,10,4
153,1.0947265625,-0.08984375,-0.34228515625,-142.5,16.28048780487805,-118.71951219512196,10,4
154,1.1005859375,-0.0625,-0.39990234375,-143.0487804878049,16.463414634146343,-121.64634146341464,10,4
155,1.14794921875,-0.0146484375,-0.412109375,-146.89024390243904,19.75609756097561,-125.91463414634147,10,4
156,1.205078125,0.033203125,-0.4287109375,-149.08536585365854,21.03658536585366,-129.81707317073173,10,4
157,1.26171875,0.05224609375,-0.45947265625,-150.4878048780488,22.012195121951223,-133.78048780487805,10,4
158,1.2548828125,0.009765625,-0.44970703125,-150.5487804878049,21.463414634146343,-136.58536585365854,10,4
159,1.25537109375,-0.01123046875,-0.45166015625,-147.7439024390244,20.54878048780488,-140.97560975609758,10,4
160,1.306640625,0.03076171875,-0.4755859375,-148.65853658536588,18.963414634146343,-144.32926829268294,10,4
161,1.30810546875,0.05810546875,-0.486328125,-150.6707317073171,19.451219512195124,-150.4878048780488,10,4
162,1.349609375,0.09521484375,-0.46728515625,-151.52439024390245,20.0,-155.6707317073171,10,4
163,1.39453125,0.11962890625,-0.43994140625,-152.8048780487805,20.79268292682927,-159.39024390243904,10,4
164,1.41015625,0.07861328125,-0.48095703125,-156.58536585365854,24.512195121951223,-164.39024390243904,10,4
165,1.4150390625,0.0947265625,-0.46337890625,-157.8658536585366,27.012195121951223,-168.71951219512198,10,4
166,1.4501953125,0.13818359375,-0.412109375,-157.9268292682927,29.634146341463417,-172.8658536585366,10,4
167,1.46875,0.13427734375,-0.37451171875,-159.75609756097563,32.80487804878049,-177.8658536585366,10,4
168,1.4755859375,0.134765625,-0.35986328125,-161.76829268292684,36.21951219512196,-182.8048780487805,10,4
169,1.43505859375,0.1435546875,-0.291015625,-160.1829268292683,37.31707317073171,-186.70731707317074,10,4
170,1.41162109375,0.09765625,-0.2841796875,-157.6219512195122,37.6219512195122,-191.95121951219514,10,4
171,1.4541015625,0.10107421875,-0.30029296875,-151.82926829268294,34.93902439024391,-195.609756097561,10,4
172,1.4775390625,0.10791015625,-0.28271484375,-147.9878048780488,33.35365853658537,-199.63414634146343,10,4
173,1.4892578125,0.0791015625,-0.28759765625,-145.5487804878049,32.5609756097561,-202.9268292682927,10,4
174,1.46728515625,0.09765625,-0.22900390625,-142.8658536585366,35.0,-206.89024390243904,10,4
175,1.47509765625,0.13818359375,-0.154296875,-143.71951219512195,39.69512195121951,-210.12195121951223,10,4
176,1.44287109375,0.203125,-0.0654296875,-145.0,44.390243902439025,-213.78048780487808,10,4
177,1.40185546875,0.22802734375,-0.0107421875,-146.58536585365854,51.15853658536586,-218.53658536585368,10,4
178,1.39794921875,0.25390625,0.07080078125,-144.87804878048783,56.40243902439025,-220.7926829268293,10,4
179,1.42431640625,0.2412109375,0.048828125,-138.90243902439025,59.146341463414636,-221.52439024390245,10,4
180,1.4599609375,0.25634765625,0.0234375,-131.28048780487805,59.39024390243903,-224.39024390243904,10,4
181,1.54345703125,0.30615234375,0.017578125,-124.20731707317074,58.71951219512196,-227.19512195121953,10,4
182,1.59033203125,0.31494140625,0.02197265625,-117.7439024390244,58.90243902439025,-230.00000000000003,10,4
183,1.66162109375,0.33740234375,0.02978515625,-111.89024390243904,60.79268292682927,-233.65853658536588,10,4
184,1.67529296875,0.3515625,0.0224609375,-110.1829268292683,65.85365853658537,-235.7317073170732,10,4
185,1.66357421875,0.359375,0.056640625,-113.04878048780489,70.79268292682927,-238.2317073170732,10,4
186,1.6083984375,0.3857421875,0.0341796875,-116.34146341463416,76.64634146341464,-241.40243902439028,10,4
187,1.54833984375,0.38525390625,0.0322265625,-117.50000000000001,79.75609756097562,-246.46341463414637,10,4
188,1.49560546875,0.359375,0.001953125,-115.79268292682927,80.48780487804879,-234.51219512195124,10,4
189,1.4755859375,0.39599609375,0.0283203125,-112.8658536585366,81.52439024390245,-252.43902439024393,10,4
190,1.45361328125,0.40185546875,0.0048828125,-111.46341463414635,82.98780487804879,-253.78048780487808,10,4
191,1.49462890625,0.3876953125,-0.0029296875,-109.63414634146342,81.89024390243902,-255.6707317073171,10,4
192,1.3349609375,0.35986328125,-0.06591796875,-105.97560975609757,78.29268292682927,-257.9268292682927,10,4
193,1.3134765625,0.35400390625,-0.10595703125,-101.46341463414635,73.71951219512195,-261.4024390243903,10,4
194,1.2744140625,0.298828125,-0.11279296875,-96.89024390243904,70.54878048780489,-263.5365853658537,10,4
195,1.2138671875,0.27197265625,-0.05078125,-90.3048780487805,68.65853658536587,-264.45121951219517,10,4
196,1.125,0.22021484375,0.00927734375,-79.87804878048782,65.3048780487805,-264.0853658536586,10,4
197,1.06884765625,0.21923828125,0.1220703125,-69.32926829268293,57.987804878048784,-262.13414634146346,10,4
198,1.05126953125,0.22998046875,-0.0224609375,-61.463414634146346,54.146341463414636,-259.8170731707317,10,4
199,1.01318359375,0.232421875,-0.0009765625,-58.65853658536586,53.84146341463415,-256.2804878048781,10,4
200,0.9150390625,0.18701171875,0.00927734375,-57.50000000000001,55.426829268292686,-251.64634146341464,10,4
201,0.8310546875,0.1533203125,0.06005859375,-54.451219512195124,56.15853658536586,-246.34146341463418,10,4
202,0.77294921875,0.12841796875,0.05859375,-51.82926829268293,55.00000000000001,-243.1707317073171,10,4
203,0.72216796875,0.09716796875,0.03173828125,-49.51219512195122,52.31707317073171,-240.6707317073171,10,4
204,0.64306640625,0.029296875,0.0244140625,-42.37804878048781,44.93902439024391,-239.02439024390247,10,4
205,0.62744140625,0.017578125,0.07421875,-34.207317073170735,40.0609756097561,-235.91463414634148,10,4
206,0.60205078125,-0.033203125,0.1533203125,-29.451219512195124,38.35365853658537,-231.89024390243904,10,4
207,0.51904296875,-0.10791015625,0.193359375,-25.792682926829272,38.84146341463415,-226.21951219512198,10,4
208,0.43994140625,-0.134765625,0.26513671875,-23.414634146341466,38.84146341463415,-219.26829268292684,10,4
209,0.34912109375,-0.1826171875,0.3017578125,-19.878048780487806,37.6219512195122,-210.97560975609758,10,4
210,0.28515625,-0.27880859375,0.28271484375,-18.353658536585368,37.01219512195122,-203.35365853658539,10,4
211,0.23681640625,-0.32177734375,0.2724609375,-16.52439024390244,34.69512195121951,-194.87804878048783,10,4
212,0.1728515625,-0.34228515625,0.2900390625,-16.34146341463415,33.78048780487805,-185.4878048780488,10,4
213,0.140625,-0.34619140625,0.32177734375,-19.634146341463417,34.81707317073171,-176.70731707317074,10,4
214,0.02978515625,-0.43408203125,0.29296875,-26.28048780487805,37.987804878048784,-167.6829268292683,10,4
215,-0.11328125,-0.55419921875,0.29931640625,-28.353658536585368,42.37804878048781,-158.0487804878049,10,4
216,-0.16845703125,-0.62451171875,0.2509765625,-24.573170731707318,42.987804878048784,-143.78048780487805,10,4
217,-0.265625,-0.662109375,0.42041015625,-18.04878048780488,39.57317073170732,-131.58536585365854,10,4
218,-0.25341796875,-0.7041015625,0.40185546875,-15.000000000000002,31.82926829268293,-117.01219512195122,10,4
219,-0.47802734375,-0.80322265625,0.388671875,-9.26829268292683,28.170731707317074,-103.29268292682927,10,4
220,-0.41357421875,-0.7939453125,0.40966796875,-4.573170731707317,28.902439024390247,-89.02439024390245,10,4
221,-0.5185546875,-0.81689453125,0.41796875,-4.2682926829268295,29.451219512195124,-73.23170731707317,10,4
222,-0.50634765625,-0.85888671875,0.466796875,-3.231707317073171,27.926829268292686,-58.47560975609757,10,4
223,-0.5380859375,-0.935546875,0.4755859375,2.987804878048781,23.59756097560976,-41.82926829268293,10,4
224,-0.46875,-1.01806640625,0.4384765625,10.609756097560977,20.121951219512198,-25.365853658536587,10,4
225,-0.4599609375,-1.09521484375,0.41455078125,19.390243902439025,16.52439024390244,-8.292682926829269,10,4
226,-0.45361328125,-1.18994140625,0.47998046875,27.378048780487806,15.30487804878049,9.756097560975611,10,4
227,-0.46875,-1.12646484375,0.55126953125,37.37804878048781,15.000000000000002,26.89024390243903,10,4
228,-0.466796875,-1.2626953125,0.57568359375,44.390243902439025,14.207317073170733,44.57317073170732,10,4
229,-0.4833984375,-1.32421875,0.51513671875,47.07317073170732,15.914634146341465,64.32926829268293,10,4
230,-0.48046875,-1.42822265625,0.4658203125,47.804878048780495,20.975609756097562,84.75609756097562,10,4
231,-0.51904296875,-1.5556640625,0.42578125,50.0609756097561,21.097560975609756,106.34146341463416,10,4
232,-0.54443359375,-1.666015625,0.35498046875,57.25609756097561,18.963414634146343,127.8658536585366,10,4
233,-0.48095703125,-1.734375,0.34130859375,64.87804878048782,17.98780487804878,148.65853658536588,10,4
234,-0.40771484375,-1.82861328125,0.37890625,74.14634146341464,16.951219512195124,170.91463414634148,10,4
235,-0.3134765625,-1.9384765625,0.46142578125,83.23170731707317,16.646341463414636,191.28048780487808,10,4
236,-0.2236328125,-2.0224609375,0.51904296875,92.6829268292683,17.5609756097561,213.0487804878049,10,4
237,-0.11865234375,-2.00439453125,0.56103515625,99.51219512195122,20.54878048780488,236.09756097560978,10,4
238,-0.0283203125,-2.275390625,0.615234375,104.81707317073172,27.073170731707318,261.2804878048781,10,4
239,0.04736328125,-2.490234375,0.6396484375,108.41463414634147,34.57317073170732,292.19512195121956,10,4
240,0.14697265625,-2.6640625,0.6083984375,112.37804878048782,41.58536585365854,313.5975609756098,10,4
241,0.265625,-3.10498046875,0.583984375,117.92682926829269,50.85365853658537,369.87804878048786,10,4
242,0.4580078125,-3.443359375,0.5908203125,130.7926829268293,56.28048780487806,412.8658536585366,10,4
243,0.72216796875,-3.7509765625,0.54541015625,147.9268292682927,57.13414634146342,452.62195121951225,10,4
244,1.00341796875,-4.05078125,0.31103515625,158.41463414634148,53.35365853658537,493.3536585365854,10,4
245,1.50341796875,-4.3623046875,-0.07470703125,196.28048780487808,44.146341463414636,537.0121951219513,10,4
246,2.16064453125,-4.673828125,-0.47216796875,205.12195121951223,38.170731707317074,585.1829268292684,10,4
247,2.80419921875,-5.19189453125,-0.64404296875,254.63414634146343,40.54878048780488,617.3780487804878,10,4
248,3.388671875,-5.67333984375,-0.73046875,299.26829268292687,41.524390243902445,632.1951219512196,10,4
249,4.169921875,-6.07421875,-0.7431640625,348.6585365853659,41.58536585365854,645.9146341463415,10,4
250,5.1376953125,-6.25048828125,-1.08154296875,368.109756097561,62.13414634146342,675.2439024390244,10,4
251,6.3984375,-6.33740234375,-1.7265625,385.9146341463415,93.41463414634147,715.9146341463415,10,4
252,7.12890625,-6.1787109375,-2.80859375,380.18292682926835,115.48780487804879,756.829268292683,10,4
253,8.21337890625,-5.982421875,-3.58544921875,393.3536585365854,132.37804878048783,792.9268292682927,10,4
254,9.56201171875,-5.27587890625,-3.90771484375,443.1707317073171,144.08536585365854,831.9512195121952,10,4
255,10.30908203125,-4.40771484375,-3.77880859375,479.0243902439025,126.58536585365854,887.3170731707318,10,4
256,11.18701171875,-3.9501953125,-4.60400390625,478.1707317073171,98.78048780487806,916.0975609756098,10,4
257,12.3759765625,-3.17626953125,-5.61181640625,485.54878048780495,67.25609756097562,923.9634146341464,10,4
258,12.99560546875,-2.767578125,-5.99755859375,542.3170731707318,-22.926829268292686,897.9878048780489,10,4
259,11.58251953125,-2.32470703125,-5.84619140625,616.0365853658537,-126.76829268292684,879.8170731707318,10,4
260,10.37255859375,-3.45458984375,-5.55126953125,727.9878048780488,-302.6219512195122,833.1097560975611,10,4
261,8.44287109375,-4.07421875,-6.21728515625,943.9634146341464,-475.00000000000006,765.9146341463415,10,4
262,7.5458984375,-4.44091796875,-7.63720703125,1190.4268292682927,-653.2317073170732,642.439024390244,10,4
263,7.46337890625,-3.51806640625,3.1572265625,1665.609756097561,-1200.548780487805,650.1219512195122,10,4
264,-15.94091796875,-12.8427734375,-16.0,1250.1219512195123,-1639.329268292683,99.57317073170732,10,4
265,15.99951171875,15.99951171875,-16.0,-1263.109756097561,435.4878048780488,715.1219512195123,10,4
266,2.3759765625,7.1259765625,2.53564453125,363.5975609756098,-95.60975609756099,98.78048780487806,10,4
267,-1.81396484375,-4.34033203125,4.3525390625,1919.939024390244,-120.06097560975611,67.37804878048782,10,4
268,9.2646484375,1.5302734375,3.779296875,991.5243902439025,-249.81707317073173,-440.00000000000006,10,4
269,7.92431640625,-0.27685546875,-3.0546875,881.829268292683,71.21951219512195,-465.12195121951225,10,4
270,4.9912109375,2.47509765625,-0.06103515625,921.219512195122,10.0,-321.76829268292687,10,4
271,4.47607421875,-1.29052734375,-0.13134765625,962.3780487804879,6.52439024390244,-418.6585365853659,10,4
272,5.29638671875,-3.52392578125,-1.17041015625,734.5121951219513,7.743902439024391,-570.9146341463415,10,4
273,3.89892578125,-3.6416015625,-2.48095703125,603.9024390243903,47.25609756097561,-607.5,10,4
274,3.689453125,-3.35595703125,-2.10546875,537.439024390244,112.8048780487805,-632.9268292682927,10,4
275,3.48779296875,-3.43798828125,-1.85693359375,505.42682926829275,106.58536585365854,-685.3048780487806,10,4
276,3.05126953125,-3.5927734375,-2.033203125,428.5975609756098,127.43902439024392,-704.6341463414635,10,4
277,2.80078125,-3.19677734375,-1.83544921875,371.95121951219517,186.09756097560978,-744.2073170731708,10,4
278,2.55126953125,-2.68603515625,-1.84130859375,288.2926829268293,221.95121951219514,-745.8536585365854,10,4
279,2.8486328125,-2.0732421875,-2.05029296875,227.19512195121953,275.5487804878049,-736.7073170731708,10,4
280,2.892578125,-1.9384765625,-2.2626953125,186.58536585365854,307.31707317073176,-715.7317073170732,10,4
281,3.3955078125,-1.63134765625,-2.27734375,94.08536585365854,347.25609756097566,-701.4024390243903,10,4
282,2.94921875,-2.24853515625,-1.748046875,61.82926829268293,374.57317073170736,-652.6829268292684,10,4
283,2.2255859375,-2.447265625,-1.302734375,0.1829268292682927,370.12195121951225,-612.9268292682927,10,4
284,1.8486328125,-2.32763671875,-1.4462890625,-59.69512195121952,371.0365853658537,-570.0609756097562,10,4
285,1.41015625,-2.236328125,-1.84619140625,-95.1829268292683,363.0487804878049,-532.3780487804878,10,4
286,1.31396484375,-1.78271484375,-1.5244140625,-125.85365853658537,352.25609756097566,-501.95121951219517,10,4
287,1.04638671875,-1.48193359375,-1.23486328125,-164.26829268292684,343.4146341463415,-479.75609756097566,10,4
288,1.0029296875,-1.17919921875,-1.1396484375,-176.21951219512198,348.0487804878049,-462.56097560975616,10,4
289,0.98046875,-1.13671875,-1.09814453125,-192.25609756097563,355.7317073170732,-441.2804878048781,10,4
290,0.9521484375,-1.0087890625,-1.20263671875,-193.53658536585368,354.20731707317077,-418.2926829268293,10,4
291,0.9453125,-0.98681640625,-1.25634765625,-191.03658536585368,352.6829268292683,-391.0975609756098,10,4
292,0.82421875,-0.6943359375,-1.2666015625,-202.13414634146343,358.2317073170732,-365.9756097560976,10,4
293,0.5205078125,-0.6845703125,-1.34716796875,-213.71951219512198,376.4634146341464,-342.50000000000006,10,4
294,0.33203125,-0.8994140625,-1.4189453125,-233.71951219512198,351.82926829268297,-327.6219512195122,10,4
295,0.3642578125,-0.6884765625,-1.6376953125,-207.37804878048783,328.719512195122,-298.719512195122,10,4
296,0.50048828125,-0.458984375,-1.78857421875,-209.81707317073173,312.5,-295.3658536585366,10,4
297,0.39697265625,-0.48388671875,-1.794921875,-221.03658536585368,301.219512195122,-262.6829268292683,10,4
298,0.19677734375,-0.30322265625,-1.54931640625,-226.58536585365854,294.1463414634147,-240.00000000000003,10,4
299,-0.17724609375,-0.39208984375,-1.314453125,-228.109756097561,281.219512195122,-219.26829268292684,10,4
300,-0.5263671875,-0.44091796875,-1.091796875,-219.75609756097563,266.5853658536586,-209.20731707317074,10,4
301,-0.62060546875,-0.3701171875,-0.79150390625,-205.97560975609758,253.1707317073171,-207.25609756097563,10,4
302,-0.47216796875,-0.18798828125,-0.62548828125,-200.4268292682927,239.75609756097563,-211.28048780487808,10,4
303,-0.3388671875,-0.0107421875,-0.685546875,-213.109756097561,226.28048780487808,-215.3048780487805,10,4
304,0.0341796875,0.0439453125,-0.8095703125,-220.97560975609758,209.39024390243904,-207.50000000000003,10,4
305,-0.046875,0.09423828125,-0.8828125,-226.95121951219514,199.69512195121953,-189.45121951219514,10,4
306,-0.47900390625,-0.31005859375,-0.95068359375,-240.7926829268293,186.46341463414635,-172.25609756097563,10,4
307,-0.95556640625,-0.58056640625,-0.9306640625,-240.91463414634148,181.40243902439025,-162.19512195121953,10,4
308,-1.1982421875,-0.53759765625,-0.68505859375,-225.5487804878049,169.32926829268294,-155.4878048780488,10,4
309,-1.220703125,-0.4130859375,-0.5576171875,-222.62195121951223,164.14634146341464,-153.1707317073171,10,4
310,-1.02099609375,-0.15283203125,-0.60986328125,-211.89024390243904,144.81707317073173,-147.37804878048783,10,4
311,-0.87451171875,0.01611328125,-0.7763671875,-213.47560975609758,136.09756097560978,-135.5487804878049,10,4
312,-0.81494140625,-0.0859375,-0.935546875,-212.9878048780488,128.84146341463415,-119.14634146341464,10,4
313,-1.0439453125,-0.23583984375,-1.0,-204.32926829268294,119.26829268292684,-102.7439024390244,10,4
314,-1.220703125,-0.35498046875,-0.9287109375,-196.34146341463418,111.34146341463416,-90.42682926829269,10,4
315,-1.255859375,-0.462890625,-0.91455078125,-185.5487804878049,104.51219512195122,-78.84146341463415,10,4
316,-1.3876953125,-0.39794921875,-0.79638671875,-172.01219512195124,94.08536585365854,-70.0,10,4
317,-1.275390625,-0.3134765625,-0.72802734375,-159.20731707317074,87.37804878048782,-61.40243902439025,10,4
318,-1.12646484375,-0.35546875,-0.787109375,-151.46341463414635,78.59756097560977,-53.65853658536586,10,4
319,-1.06396484375,-0.09521484375,-0.900390625,-146.76829268292684,67.8658536585366,-48.59756097560976,10,4
320,-0.99755859375,-0.11669921875,-0.8779296875,-137.7439024390244,58.17073170731708,-38.29268292682927,10,4
321,-1.10205078125,-0.2841796875,-0.951171875,-127.8048780487805,42.01219512195122,-26.82926829268293,10,4
322,-1.2265625,-0.37939453125,-0.89892578125,-111.46341463414635,29.26829268292683,-14.695121951219514,10,4
323,-1.38671875,-0.61328125,-0.9248046875,-100.06097560975611,10.609756097560977,-8.353658536585366,10,4
324,-1.31982421875,-0.36962890625,-0.91845703125,-85.54878048780489,-2.9268292682926833,-3.658536585365854,10,4
325,-1.2626953125,-0.30859375,-0.861328125,-77.19512195121952,-13.597560975609758,2.5609756097560976,10,4
326,-1.1865234375,-0.2578125,-0.787109375,-70.1829268292683,-20.79268292682927,9.573170731707318,10,4
327,-1.13671875,-0.22216796875,-0.76416015625,-62.560975609756106,-28.902439024390247,16.402439024390244,10,4
328,-1.1201171875,-0.21826171875,-0.75927734375,-53.23170731707317,-36.524390243902445,24.451219512195124,10,4
329,-1.10498046875,-0.25048828125,-0.76220703125,-42.6219512195122,-45.1829268292683,32.19512195121951,10,4
330,-1.140625,-0.32080078125,-0.70703125,-30.487804878048784,-53.90243902439025,40.36585365853659,10,4
331,-1.162109375,-0.39306640625,-0.72119140625,-21.707317073170735,-65.3048780487805,45.91463414634147,10,4
332,-1.07421875,-0.2890625,-0.72265625,-9.695121951219512,-75.54878048780489,50.36585365853659,10,4
333,-1.02587890625,-0.2060546875,-0.59912109375,-1.3414634146341464,-85.42682926829269,56.03658536585366,10,4
334,-1.01220703125,-0.1171875,-0.53076171875,5.121951219512195,-92.19512195121952,59.75609756097562,10,4
335,-1.00244140625,-0.0556640625,-0.5205078125,12.195121951219512,-98.41463414634147,61.707317073170735,10,4
336,-0.97705078125,0.01611328125,-0.505859375,20.853658536585368,-105.48780487804879,63.35365853658537,10,4
337,-0.9541015625,0.0625,-0.47412109375,28.658536585365855,-112.19512195121952,65.3048780487805,10,4
338,-0.9375,0.07421875,-0.44921875,34.63414634146342,-116.21951219512196,68.10975609756098,10,4
339,-0.96435546875,0.0712890625,-0.49267578125,37.987804878048784,-120.00000000000001,71.64634146341464,10,4
340,-1.001953125,0.03955078125,-0.326171875,40.1219512195122,-109.39024390243904,73.78048780487805,10,4
341,-1.02099609375,0.03564453125,-0.296875,41.40243902439025,-131.95121951219514,74.87804878048782,10,4
342,-1.01318359375,0.02587890625,-0.27978515625,43.963414634146346,-138.2926829268293,75.1829268292683,10,4
343,-0.9814453125,0.04931640625,-0.19970703125,47.6219512195122,-141.89024390243904,76.28048780487805,10,4
344,-0.9599609375,0.07470703125,-0.13427734375,49.75609756097561,-143.84146341463415,62.43902439024391,10,4
345,-0.955078125,0.10986328125,-0.10693359375,51.40243902439025,-146.34146341463415,79.39024390243902,10,4
346,-0.94580078125,0.16015625,-0.0849609375,54.93902439024391,-149.20731707317074,80.0,10,4
347,-0.955078125,0.166015625,-0.06396484375,61.21951219512196,-151.46341463414635,80.3048780487805,10,4
348,-0.93994140625,0.20068359375,-0.02001953125,66.95121951219512,-155.1219512195122,80.2439024390244,10,4
349,-0.91748046875,0.23583984375,0.02783203125,70.67073170731707,-158.0487804878049,79.26829268292684,10,4
350,-0.8876953125,0.27099609375,0.05517578125,74.57317073170732,-162.07317073170734,78.59756097560977,10,4
351,-0.90576171875,0.27001953125,0.06494140625,74.02439024390245,-165.1219512195122,76.70731707317074,10,4
352,-0.88330078125,0.28759765625,0.068359375,75.1219512195122,-165.00000000000003,75.48780487804879,10,4
353,-0.861328125,0.29345703125,0.0986328125,76.89024390243902,-168.53658536585368,75.0609756097561,10,4
354,-0.84912109375,0.2822265625,0.12060546875,77.5,-168.2317073170732,73.53658536585367,10,4
355,-0.84326171875,0.29296875,0.1884765625,80.85365853658537,-167.31707317073173,73.23170731707317,10,4
356,-0.82861328125,0.3203125,0.23828125,84.26829268292684,-167.37804878048783,73.96341463414635,10,4
357,-0.77880859375,0.34375,0.25732421875,87.8048780487805,-168.90243902439025,73.84146341463415,10,4
358,-0.74267578125,0.36962890625,0.27392578125,90.48780487804879,-171.40243902439025,73.35365853658537,10,4
359,-0.72412109375,0.37158203125,0.2724609375,94.02439024390245,-175.3048780487805,72.01219512195122,10,4
360,-0.71240234375,0.369140625,0.3046875,94.20731707317074,-173.96341463414635,69.26829268292684,10,4
361,-0.66259765625,0.3720703125,0.3193359375,109.20731707317074,-173.2317073170732,69.32926829268293,10,4
362,-0.6201171875,0.36669921875,0.32568359375,93.41463414634147,-173.109756097561,70.42682926829269,10,4
363,-0.580078125,0.498046875,0.32421875,95.91463414634147,-174.14634146341464,71.95121951219512,10,4
364,-0.57275390625,0.36376953125,0.38134765625,95.00000000000001,-173.109756097561,71.28048780487805,10,4
365,-0.55712890625,0.36669921875,0.3681640625,93.17073170731707,-170.4878048780488,69.32926829268293,10,4
366,-0.5361328125,0.3974609375,0.380859375,93.41463414634147,-168.96341463414635,68.84146341463415,10,4
367,-0.48583984375,0.41748046875,0.40576171875,94.81707317073172,-167.8658536585366,68.04878048780489,10,4
368,-0.4287109375,0.42578125,0.4287109375,96.52439024390245,-168.78048780487805,67.5609756097561,10,4
369,-0.42236328125,0.4326171875,0.44287109375,97.37804878048782,-167.43902439024393,65.0609756097561,10,4
370,-0.40380859375,0.46533203125,0.44677734375,93.35365853658537,-164.81707317073173,62.01219512195122,10,4
371,-0.49951171875,0.4833984375,0.4609375,90.48780487804879,-162.6219512195122,61.82926829268293,10,4
372,-0.3583984375,0.501953125,0.44580078125,91.70731707317074,-166.58536585365854,63.963414634146346,10,4
373,-0.3974609375,0.455078125,0.46533203125,95.60975609756099,-168.59756097560978,64.81707317073172,10,4
374,-0.390625,0.435546875,0.482421875,98.41463414634147,-168.59756097560978,64.02439024390245,10,4
375,-0.3701171875,0.4501953125,0.49462890625,96.95121951219512,-165.3658536585366,62.6829268292683,10,4
376,-0.3076171875,0.5029296875,0.5078125,94.45121951219512,-161.89024390243904,62.987804878048784,10,4
377,-0.28515625,0.5263671875,0.51123046875,90.97560975609757,-158.109756097561,63.78048780487806,10,4
378,-0.28857421875,0.51416015625,0.53369140625,85.48780487804879,-151.70731707317074,63.84146341463415,10,4
379,-0.267578125,0.50341796875,0.619140625,76.40243902439025,-143.41463414634148,62.19512195121952,10,4
380,-0.19873046875,0.56103515625,0.478515625,70.3658536585366,-139.57317073170734,61.34146341463415,10,4
381,-0.1416015625,0.5927734375,0.47216796875,67.5609756097561,-139.87804878048783,61.585365853658544,10,4
382,-0.12451171875,0.56640625,0.46435546875,67.25609756097562,-142.13414634146343,62.13414634146342,10,4
383,-0.146484375,0.55224609375,0.49560546875,70.73170731707317,-146.46341463414635,62.926829268292686,10,4
384,-0.18994140625,0.51708984375,0.5283203125,72.37804878048782,-145.97560975609758,61.463414634146346,10,4
385,-0.1796875,0.5380859375,0.5654296875,69.32926829268293,-141.34146341463415,59.81707317073171,10,4
386,-0.1298828125,0.59033203125,0.55517578125,67.43902439024392,-138.78048780487805,60.60975609756098,10,4
387,-0.08251953125,0.6162109375,0.58447265625,65.2439024390244,-134.69512195121953,60.426829268292686,10,4
388,-0.02880859375,0.6201171875,0.59375,64.51219512195122,-131.82926829268294,61.585365853658544,10,4
389,-0.0029296875,0.6357421875,0.6171875,64.02439024390245,-128.41463414634148,61.95121951219513,10,4
390,0.037109375,0.65625,0.61865234375,61.03658536585366,-125.00000000000001,60.304878048780495,10,4
391,0.05615234375,0.7158203125,0.58935546875,57.25609756097561,-123.59756097560977,56.951219512195124,10,4
392,0.0595703125,0.79931640625,0.56787109375,52.926829268292686,-123.65853658536587,53.17073170731708,10,4
393,0.06591796875,0.837890625,0.56787109375,50.0609756097561,-124.63414634146342,50.60975609756098,10,4
394,0.04296875,0.8271484375,0.58349609375,47.5609756097561,-125.06097560975611,49.32926829268293,10,4
395,0.021484375,0.8056640625,0.61767578125,45.243902439024396,-124.02439024390245,48.170731707317074,10,4
396,0.01708984375,0.80126953125,0.6552734375,44.81707317073171,-122.01219512195124,47.6219512195122,10,4
397,0.02685546875,0.7978515625,0.66357421875,44.146341463414636,-119.45121951219514,48.10975609756098,10,4
398,0.03662109375,0.80908203125,0.65673828125,44.51219512195122,-117.31707317073172,48.47560975609756,10,4
399,0.02880859375,0.80419921875,0.6787109375,46.707317073170735,-117.31707317073172,49.93902439024391,10,4
400,0.03076171875,0.76806640625,0.6767578125,48.10975609756098,-114.93902439024392,49.39024390243903,10,4
401,0.07763671875,0.79345703125,0.70361328125,51.951219512195124,-113.29268292682927,49.451219512195124,10,4
402,0.07470703125,0.80126953125,0.7138671875,53.47560975609757,-109.69512195121952,50.00000000000001,10,4
403,0.09814453125,0.8271484375,0.72607421875,49.93902439024391,-103.53658536585367,50.1219512195122,10,4
404,0.1083984375,0.85791015625,0.6787109375,45.304878048780495,-99.02439024390245,49.085365853658544,10,4
405,0.1103515625,0.9111328125,0.6875,40.73170731707317,-95.67073170731709,47.25609756097561,10,4
406,0.09130859375,0.93701171875,0.69384765625,37.37804878048781,-109.20731707317074,46.15853658536586,10,4
407,0.0654296875,0.93994140625,0.68896484375,35.243902439024396,-91.52439024390245,45.1829268292683,10,4
408,0.06640625,0.92919921875,0.68505859375,33.04878048780488,-89.69512195121952,43.65853658536586,10,4
409,0.04736328125,0.91064453125,0.724609375,31.89024390243903,-87.25609756097562,42.43902439024391,10,4
410,0.05810546875,0.89697265625,0.748046875,32.6829268292683,-84.75609756097562,40.79268292682927,10,4
411,0.08984375,0.9052734375,0.73486328125,35.487804878048784,-83.71951219512196,39.63414634146342,10,4
412,0.10791015625,0.9140625,0.69677734375,39.51219512195122,-83.84146341463415,39.08536585365854,10,4
413,0.09521484375,0.89306640625,0.634765625,38.04878048780488,-81.82926829268294,37.43902439024391,10,4
414,0.10986328125,0.876953125,0.60400390625,31.951219512195124,-78.41463414634147,34.51219512195122,10,4
415,0.1552734375,0.8974609375,0.57421875,24.085365853658537,-75.48780487804879,32.07317073170732,10,4
416,0.16748046875,0.8681640625,0.5361328125,30.426829268292686,-74.20731707317074,30.54878048780488,10,4
417,0.17236328125,0.85791015625,0.5703125,8.78048780487805,-72.7439024390244,28.719512195121954,10,4
418,0.15869140625,0.85546875,0.6025390625,5.914634146341464,-73.78048780487805,27.80487804878049,10,4
419,0.14208984375,0.8203125,0.61181640625,3.963414634146342,-73.78048780487805,26.09756097560976,10,4
420,0.14501953125,0.869140625,0.58837890625,0.48780487804878053,-73.59756097560977,25.243902439024392,10,4
421,0.16015625,0.72607421875,0.6513671875,0.12195121951219513,-74.02439024390245,26.09756097560976,10,4
422,0.1611328125,0.6904296875,0.6943359375,3.780487804878049,-73.96341463414635,28.780487804878053,10,4
423,0.146484375,0.67578125,0.7265625,5.548780487804878,-72.25609756097562,31.951219512195124,10,4
424,0.1064453125,0.67431640625,0.71826171875,4.451219512195122,-66.89024390243902,35.487804878048784,10,4
425,0.06787109375,0.66845703125,0.71435546875,-2.1341463414634148,-57.865853658536594,39.146341463414636,10,4
426,0.07666015625,0.65673828125,0.66552734375,-9.939024390243903,-49.39024390243903,45.426829268292686,10,4
427,0.0576171875,0.64599609375,0.67724609375,-18.170731707317074,-41.951219512195124,51.82926829268293,10,4
428,0.02978515625,0.64208984375,0.68603515625,-23.53658536585366,-34.81707317073171,56.34146341463415,10,4
429,0.0517578125,0.65380859375,0.69091796875,-20.30487804878049,-33.35365853658537,60.79268292682927,10,4
430,0.06640625,0.64404296875,0.6796875,-18.475609756097562,-32.19512195121951,62.25609756097562,10,4
431,0.017578125,0.6826171875,0.666015625,-9.02439024390244,-36.646341463414636,65.42682926829269,10,4
432,-0.125,0.673828125,0.6630859375,-1.829268292682927,-37.5,69.63414634146342,10,4
433,-0.06298828125,0.6103515625,0.66259765625,-1.1585365853658538,-37.987804878048784,73.84146341463415,10,4
434,-0.0478515625,0.70361328125,0.7060546875,4.329268292682928,-36.890243902439025,72.8048780487805,10,4
435,-0.021484375,0.859375,0.72509765625,6.707317073170732,-33.23170731707317,67.31707317073172,10,4
436,0.02099609375,0.98291015625,0.744140625,7.8048780487804885,-27.987804878048784,63.10975609756098,10,4
437,0.091796875,1.0693359375,0.76513671875,7.743902439024391,-22.98780487804878,60.54878048780488,10,4
438,0.10595703125,1.10595703125,0.7470703125,9.26829268292683,-20.48780487804878,57.31707317073171,10,4
439,0.1259765625,1.119140625,0.703125,13.719512195121952,-22.98780487804878,53.04878048780488,10,4
440,0.126953125,1.09423828125,0.65283203125,21.707317073170735,-25.731707317073173,47.37804878048781,10,4
441,0.15478515625,1.12451171875,0.6376953125,27.073170731707318,-26.951219512195124,39.93902439024391,10,4
442,0.17236328125,1.240234375,0.5849609375,27.31707317073171,-28.170731707317074,34.390243902439025,10,4
443,0.14208984375,1.08447265625,0.53955078125,27.195121951219516,-27.31707317073171,29.39024390243903,10,4
444,0.1240234375,1.08154296875,0.52978515625,26.951219512195124,-27.195121951219516,25.54878048780488,10,4
445,0.099609375,1.05322265625,0.6201171875,28.59756097560976,-25.975609756097562,21.34146341463415,10,4
446,0.07763671875,1.05908203125,0.48583984375,25.000000000000004,-22.682926829268293,16.82926829268293,10,4
447,0.11767578125,1.07373046875,0.44140625,18.04878048780488,-17.012195121951223,11.76829268292683,10,4
448,0.14990234375,1.1044921875,0.404296875,10.792682926829269,-12.74390243902439,6.402439024390245,10,4
449,0.169921875,1.07373046875,0.34033203125,4.75609756097561,-11.036585365853659,3.353658536585366,10,4
450,0.17333984375,1.01220703125,0.29345703125,-1.1585365853658538,-9.573170731707318,0.426829268292683,10,4
451,0.17333984375,0.97021484375,0.27001953125,-7.073170731707318,-7.926829268292684,-4.085365853658537,10,4
452,0.22021484375,0.98291015625,0.25244140625,-9.939024390243903,-6.036585365853659,-9.939024390243903,10,4
453,0.2490234375,0.97802734375,0.2431640625,-9.817073170731708,-10.853658536585368,-11.402439024390246,10,4
454,0.197265625,0.98779296875,0.27197265625,-6.52439024390244,-16.76829268292683,-13.719512195121952,10,4
455,0.21630859375,0.8291015625,0.23046875,-0.30487804878048785,-20.121951219512198,-18.719512195121954,10,4
456,0.27197265625,0.92626953125,0.22509765625,1.402439024390244,-25.365853658536587,-20.0,10,4
457,0.37255859375,0.8759765625,0.1650390625,0.9756097560975611,-29.939024390243905,-14.085365853658537,10,4
458,0.1572265625,0.85205078125,0.130859375,-1.829268292682927,-34.57317073170732,-5.975609756097562,10,4
459,0.0791015625,0.63330078125,0.1328125,5.975609756097562,-43.78048780487805,-4.75609756097561,10,4
460,0.091796875,0.6767578125,0.1376953125,14.390243902439027,-49.81707317073171,-7.865853658536586,10,4
461,0.14306640625,0.69775390625,0.08740234375,17.98780487804878,-55.60975609756098,-0.7926829268292683,10,4
462,0.119140625,0.6142578125,0.0830078125,15.609756097560977,-59.75609756097562,6.7682926829268295,10,4
463,0.1171875,0.57080078125,0.07666015625,19.878048780487806,-70.2439024390244,13.04878048780488,10,4
464,0.080078125,0.515625,0.03564453125,27.134146341463417,-81.64634146341464,19.451219512195124,10,4
465,0.01123046875,0.375,-0.009765625,32.5609756097561,-92.01219512195122,29.573170731707318,10,4
466,-0.09619140625,0.1953125,-0.0078125,39.207317073170735,-97.19512195121952,42.50000000000001,10,4
467,-0.11865234375,0.126953125,-0.02783203125,44.390243902439025,-102.8658536585366,48.35365853658537,10,4
468,-0.05029296875,0.1865234375,-0.03076171875,49.39024390243903,-107.31707317073172,53.17073170731708,10,4
469,0.02978515625,0.275390625,-0.01171875,51.524390243902445,-107.37804878048782,59.57317073170732,10,4
470,0.078125,0.3447265625,0.04443359375,49.207317073170735,-106.58536585365854,68.10975609756098,10,4
471,0.16455078125,0.4013671875,0.10888671875,52.43902439024391,-106.03658536585367,74.26829268292684,10,4
472,0.23095703125,0.40869140625,0.05859375,47.86585365853659,-105.54878048780489,80.85365853658537,10,4
473,0.25732421875,0.49169921875,0.009765625,44.207317073170735,-103.47560975609757,88.71951219512196,10,4
474,0.27099609375,0.3154296875,-0.01708984375,43.47560975609756,-104.32926829268294,95.54878048780489,10,4
475,0.31298828125,0.23828125,-0.03955078125,48.170731707317074,-107.01219512195122,102.43902439024392,10,4
476,0.2958984375,0.12548828125,-0.1064453125,38.78048780487805,-102.56097560975611,104.45121951219514,10,4
477,0.36376953125,0.1474609375,-0.15869140625,29.207317073170735,-99.08536585365854,105.1219512195122,10,4
478,0.4326171875,0.19677734375,-0.13427734375,6.707317073170732,-91.89024390243904,109.20731707317074,10,4
479,0.412109375,0.1259765625,-0.42626953125,-42.01219512195122,-73.41463414634147,116.82926829268294,10,4
480,0.328125,0.11474609375,-0.67333984375,-124.45121951219514,-38.84146341463415,125.97560975609757,10,4
481,0.32080078125,-0.05322265625,-0.92822265625,-212.9878048780488,-10.0,136.34146341463415,10,4
482,0.27978515625,-0.001953125,-1.0146484375,-294.39024390243907,9.26829268292683,140.1219512195122,10,4
483,0.3701171875,-0.20068359375,-0.91162109375,-341.219512195122,16.890243902439025,139.51219512195124,10,4
484,0.24267578125,-0.267578125,-0.5712890625,-344.0853658536586,10.670731707317074,135.97560975609758,10,4
485,0.365234375,-0.2890625,0.17626953125,-307.19512195121956,-14.451219512195124,127.01219512195124,10,4
486,0.57861328125,-0.3232421875,0.828125,-204.87804878048783,-45.73170731707317,118.17073170731709,10,4
487,0.89794921875,-0.36572265625,1.150390625,-137.01219512195124,-67.37804878048782,114.63414634146342,10,4
488,1.35693359375,-0.24609375,1.216796875,-64.63414634146342,-77.37804878048782,110.1829268292683,10,4
489,1.70947265625,0.01953125,1.03857421875,-35.79268292682927,-78.17073170731707,106.52439024390245,10,4
490,1.630859375,0.404296875,0.73046875,-31.219512195121954,-79.81707317073172,106.95121951219514,10,4
491,1.33935546875,0.7490234375,0.36865234375,-10.365853658536587,-77.13414634146342,100.00000000000001,10,4
492,1.05126953125,0.39453125,0.1103515625,-10.548780487804878,-79.32926829268294,89.87804878048782,10,4
493,0.947265625,0.2080078125,0.0068359375,-6.52439024390244,-83.10975609756099,75.0609756097561,10,4
494,1.05419921875,0.2880859375,0.3828125,0.853658536585366,-87.37804878048782,68.59756097560977,10,4
495,1.07470703125,0.31640625,0.53662109375,15.487804878048783,-85.73170731707317,67.01219512195122,10,4
496,1.03466796875,0.2978515625,0.5361328125,-12.317073170731708,-77.19512195121952,60.00000000000001,10,4
497,1.00390625,0.32666015625,0.44091796875,-24.451219512195124,-72.8048780487805,54.39024390243903,10,4
498,0.88037109375,0.263671875,0.22119140625,-16.158536585365855,-74.63414634146342,50.487804878048784,10,4
499,0.82958984375,0.21875,0.08544921875,-32.86585365853659,-78.59756097560977,45.426829268292686,10,4
