,Ax,Ay,Az,Gx,Gy,Gz,distance,shot_type
0,0.529296875,-0.71923828125,-0.26318359375,-17.621951219512198,9.02439024390244,16.52439024390244,30,2
1,0.5322265625,-0.66064453125,-0.23291015625,-15.975609756097562,5.853658536585367,18.04878048780488,30,2
2,0.60791015625,-0.5849609375,-0.169921875,-11.463414634146343,3.8414634146341466,18.597560975609756,30,2
3,0.6494140625,-0.62109375,-0.140625,-8.353658536585366,3.353658536585366,16.52439024390244,30,2
4,0.69287109375,-0.400390625,-0.1484375,-5.3048780487804885,3.536585365853659,12.560975609756099,30,2
5,0.701171875,-0.34765625,-0.18896484375,-1.707317073170732,2.439024390243903,9.51219512195122,30,2
6,0.6875,-0.37451171875,-0.19921875,1.0975609756097562,1.2195121951219514,8.78048780487805,30,2
7,0.6962890625,-0.42822265625,-0.181640625,1.1585365853658538,2.3170731707317076,9.817073170731708,30,2
8,0.708984375,-0.4501953125,-0.208984375,-1.0365853658536586,4.878048780487806,10.0,30,2
9,0.7236328125,-0.431640625,-0.23486328125,-2.804878048780488,8.353658536585366,10.426829268292684,30,2
10,0.73046875,-0.44287109375,-0.220703125,-5.426829268292684,10.853658536585368,10.182926829268293,30,2
11,0.7275390625,-0.439453125,-0.19921875,-6.036585365853659,11.707317073170733,9.390243902439025,30,2
12,0.7109375,-0.4404296875,-0.21630859375,-4.939024390243903,9.451219512195122,7.378048780487806,30,2
13,0.7431640625,-0.4150390625,-0.25439453125,-2.439024390243903,8.170731707317074,5.182926829268293,30,2
14,0.74755859375,-0.4169921875,-0.26416015625,-1.707317073170732,7.987804878048781,3.8414634146341466,30,2
15,0.7138671875,-0.45166015625,-0.25634765625,-1.5853658536585367,7.25609756097561,2.7439024390243905,30,2
16,0.720703125,-0.45263671875,-0.2802734375,-0.9146341463414634,6.7682926829268295,0.426829268292683,30,2
17,0.73583984375,-0.43505859375,-0.28173828125,-1.707317073170732,7.01219512195122,-0.48780487804878053,30,2
18,0.7236328125,-0.45751953125,-0.25732421875,-4.2682926829268295,7.621951219512196,-0.853658536585366,30,2
19,0.72216796875,-0.48779296875,-0.23828125,-6.585365853658537,8.414634146341465,-1.0365853658536586,30,2
20,0.68603515625,-0.537109375,-0.23291015625,-7.682926829268293,8.109756097560977,-1.5853658536585367,30,2
21,0.68798828125,-0.537109375,-0.22412109375,-5.914634146341464,6.402439024390245,-2.25609756097561,30,2
22,0.68994140625,-0.54296875,-0.21728515625,-3.8414634146341466,4.634146341463415,-2.5,30,2
23,0.66162109375,-0.56640625,-0.2158203125,-3.1097560975609757,4.634146341463415,-2.6219512195121952,30,2
24,0.6484375,-0.57666015625,-0.2197265625,-3.1707317073170733,4.75609756097561,-2.804878048780488,30,2
25,0.65576171875,-0.55712890625,-0.23193359375,-1.7682926829268295,3.963414634146342,-2.5609756097560976,30,2
26,0.666015625,-0.5498046875,-0.22998046875,0.24390243902439027,3.414634146341464,-2.987804878048781,30,2
27,0.66064453125,-0.544921875,-0.22998046875,0.7926829268292683,3.5975609756097566,-3.4756097560975614,30,2
28,0.6669921875,-0.537109375,-0.23828125,1.1585365853658538,4.329268292682928,-3.353658536585366,30,2
29,0.66552734375,-0.55029296875,-0.240234375,0.7926829268292683,5.975609756097562,-2.9268292682926833,30,2
30,0.66357421875,-0.54150390625,-0.22412109375,-0.48780487804878053,6.951219512195123,-2.8658536585365857,30,2
31,0.65673828125,-0.52734375,-0.20703125,-0.30487804878048785,7.073170731707318,-2.6219512195121952,30,2
32,0.66748046875,-0.52001953125,-0.21728515625,1.3414634146341464,6.463414634146342,-3.2926829268292686,30,2
33,0.6787109375,-0.50537109375,-0.21435546875,1.7682926829268295,7.378048780487806,-3.4756097560975614,30,2
34,0.68017578125,-0.5185546875,-0.2060546875,0.426829268292683,9.146341463414634,-3.048780487804878,30,2
35,0.65576171875,-0.52783203125,-0.20556640625,-1.6463414634146343,9.878048780487806,-3.231707317073171,30,2
36,0.64990234375,-0.5146484375,-0.2158203125,-1.524390243902439,10.853658536585368,-3.1097560975609757,30,2
37,0.64697265625,-0.5419921875,-0.18603515625,-1.707317073170732,12.01219512195122,-2.6219512195121952,30,2
38,0.6328125,-0.5654296875,-0.16259765625,0.24390243902439027,11.951219512195124,-1.3414634146341464,30,2
39,0.623046875,-0.583984375,-0.14306640625,4.695121951219512,10.060975609756099,-0.5487804878048781,30,2
40,0.638671875,-0.55908203125,-0.162109375,8.902439024390244,9.02439024390244,0.9146341463414634,30,2
41,0.6318359375,-0.5634765625,-0.16748046875,12.073170731707318,7.378048780487806,2.5609756097560976,30,2
42,0.65380859375,-0.55322265625,-0.17041015625,16.097560975609756,6.219512195121951,3.536585365853659,30,2
43,0.69384765625,-0.55908203125,-0.1904296875,16.951219512195124,6.707317073170732,4.573170731707317,30,2
44,0.70556640625,-0.53564453125,-0.21435546875,14.329268292682928,8.109756097560977,5.121951219512195,30,2
45,0.728515625,-0.5146484375,-0.26318359375,9.573170731707318,11.402439024390246,5.182926829268293,30,2
46,0.75390625,-0.5224609375,-0.29150390625,1.0365853658536586,16.219512195121954,4.695121951219512,30,2
47,0.7587890625,-0.5322265625,-0.298828125,-8.597560975609756,20.182926829268293,3.5975609756097566,30,2
48,0.736328125,-0.5576171875,-0.28662109375,-15.609756097560977,22.195121951219512,2.804878048780488,30,2
49,0.71044921875,-0.578125,-0.2548828125,-18.475609756097562,21.646341463414636,1.2804878048780488,30,2
50,0.68798828125,-0.59326171875,-0.23486328125,-14.695121951219514,17.5,0.0,30,2
51,0.626953125,-0.6181640625,-0.19970703125,-5.914634146341464,11.158536585365855,-0.3658536585365854,30,2
52,0.60986328125,-0.63623046875,-0.173828125,4.878048780487806,4.146341463414634,-1.1585365853658538,30,2
53,0.6328125,-0.59326171875,-0.1728515625,13.597560975609758,-1.0365853658536586,-0.9756097560975611,30,2
54,0.6201171875,-0.548828125,-0.18994140625,17.012195121951223,-3.048780487804878,-0.06097560975609757,30,2
55,0.64013671875,-0.51611328125,-0.22265625,16.70731707317073,-3.2926829268292686,0.5487804878048781,30,2
56,0.64306640625,-0.51416015625,-0.22802734375,15.182926829268293,-3.048780487804878,1.402439024390244,30,2
57,0.642578125,-0.5380859375,-0.22998046875,14.51219512195122,-2.0121951219512195,2.5,30,2
58,0.6552734375,-0.552734375,-0.21728515625,13.475609756097562,-15.609756097560977,3.1097560975609757,30,2
59,0.66455078125,-0.53173828125,-0.21630859375,10.914634146341465,2.987804878048781,3.414634146341464,30,2
60,0.6728515625,-0.525390625,-0.22119140625,9.634146341463415,4.51219512195122,3.048780487804878,30,2
61,0.67041015625,-0.5283203125,-0.20849609375,10.0,4.695121951219512,2.378048780487805,30,2
62,0.66943359375,-0.5361328125,-0.18994140625,10.975609756097562,4.2682926829268295,1.402439024390244,30,2
63,0.66015625,-0.54833984375,-0.18505859375,12.378048780487806,2.804878048780488,0.5487804878048781,30,2
64,0.67529296875,-0.5283203125,-0.19677734375,15.365853658536587,0.853658536585366,0.3658536585365854,30,2
65,0.67919921875,-0.5390625,-0.1865234375,15.975609756097562,-0.24390243902439027,0.3658536585365854,30,2
66,0.66748046875,-0.55126953125,-0.17626953125,16.52439024390244,-0.24390243902439027,0.3658536585365854,30,2
67,0.6572265625,-0.5654296875,-0.173828125,16.463414634146343,-0.24390243902439027,0.06097560975609757,30,2
68,0.6552734375,-0.56201171875,-0.1708984375,16.52439024390244,-0.30487804878048785,0.0,30,2
69,0.6552734375,-0.55224609375,-0.15966796875,16.34146341463415,-0.6097560975609757,-0.1829268292682927,30,2
70,0.64697265625,-0.57080078125,-0.1298828125,16.097560975609756,-0.12195121951219513,-15.609756097560977,30,2
71,0.6376953125,-0.5869140625,-0.1162109375,15.79268292682927,0.6707317073170732,0.1829268292682927,30,2
72,0.63525390625,-0.58203125,-0.1142578125,16.70731707317073,15.54878048780488,0.48780487804878053,30,2
73,0.666015625,-0.548828125,-0.1396484375,18.353658536585368,-1.7682926829268295,-0.06097560975609757,30,2
74,0.68701171875,-0.537109375,-0.154296875,19.207317073170735,-1.524390243902439,-0.24390243902439027,30,2
75,0.68212890625,-0.548828125,-0.16455078125,17.98780487804878,-0.06097560975609757,-1.0365853658536586,30,2
76,0.68505859375,-0.5458984375,-0.1806640625,16.34146341463415,2.378048780487805,-1.524390243902439,30,2
77,0.69677734375,-0.54150390625,-0.17822265625,12.865853658536587,5.0,-1.524390243902439,30,2
78,0.71044921875,-0.5458984375,-0.173828125,10.487804878048781,7.621951219512196,-0.9146341463414634,30,2
79,0.69140625,-0.56689453125,-0.15234375,9.878048780487806,9.26829268292683,-0.7317073170731708,30,2
80,0.68505859375,-0.5966796875,-0.1337890625,10.731707317073171,10.30487804878049,-0.426829268292683,30,2
81,0.67822265625,-0.59375,-0.10986328125,11.463414634146343,11.402439024390246,-0.30487804878048785,30,2
82,0.68359375,-0.5908203125,-0.10009765625,12.439024390243903,12.378048780487806,-0.3658536585365854,30,2
83,0.67822265625,-0.58203125,-0.09326171875,14.146341463414636,12.926829268292684,-0.426829268292683,30,2
84,0.6796875,-0.5791015625,-0.0625,15.914634146341465,13.78048780487805,-0.426829268292683,30,2
85,0.68896484375,-0.57666015625,-0.04150390625,17.073170731707318,14.329268292682928,-1.3414634146341464,30,2
86,0.70361328125,-0.5439453125,-0.06005859375,18.78048780487805,13.719512195121952,-2.378048780487805,30,2
87,0.72021484375,-0.51171875,-0.09130859375,20.182926829268293,11.28048780487805,-3.1097560975609757,30,2
88,0.740234375,-0.49609375,-0.1328125,21.76829268292683,9.817073170731708,-4.451219512195122,30,2
89,0.736328125,-0.517578125,-0.1533203125,21.52439024390244,11.036585365853659,-5.7926829268292686,30,2
90,0.73779296875,-0.52392578125,-0.17041015625,19.207317073170735,14.26829268292683,-7.317073170731708,30,2
91,0.7275390625,-0.537109375,-0.17041015625,14.695121951219514,19.878048780487806,-7.25609756097561,30,2
92,0.69287109375,-0.56396484375,-0.14013671875,10.0,27.743902439024392,-6.341463414634147,30,2
93,0.6669921875,-0.57763671875,-0.0927734375,3.2926829268292686,37.743902439024396,-5.914634146341464,30,2
94,0.65966796875,-0.57275390625,-0.0615234375,-5.365853658536586,50.243902439024396,-5.609756097560976,30,2
95,0.66845703125,-0.53955078125,-0.00439453125,-17.25609756097561,47.25609756097561,-4.695121951219512,30,2
96,0.63720703125,-0.54931640625,0.00146484375,-28.170731707317074,72.8048780487805,-2.9268292682926833,30,2
97,0.60888671875,-0.591796875,0.01611328125,-32.6829268292683,75.0609756097561,-2.1341463414634148,30,2
98,0.60595703125,-0.60693359375,0.0576171875,-29.451219512195124,73.41463414634147,-0.6097560975609757,30,2
99,0.603515625,-0.63623046875,0.0634765625,-22.134146341463417,66.89024390243902,2.378048780487805,30,2
100,0.61181640625,-0.64990234375,0.0634765625,-14.329268292682928,59.268292682926834,3.536585365853659,30,2
101,0.619140625,-0.61279296875,0.02685546875,-7.195121951219513,50.487804878048784,2.8658536585365857,30,2
102,0.6376953125,-0.57958984375,-0.05322265625,-2.439024390243903,40.85365853658537,2.987804878048781,30,2
103,0.6904296875,-0.5009765625,-0.171875,-1.1585365853658538,37.07317073170732,2.1341463414634148,30,2
104,0.7587890625,-0.41552734375,-0.22265625,-8.475609756097562,39.51219512195122,0.3658536585365854,30,2
105,0.7880859375,-0.35986328125,-0.2177734375,-18.53658536585366,45.85365853658537,-1.2804878048780488,30,2
106,0.7939453125,-0.3701171875,-0.18017578125,-28.84146341463415,53.65853658536586,-1.7682926829268295,30,2
107,0.767578125,-0.408203125,-0.1513671875,-37.6219512195122,59.63414634146342,-1.1585365853658538,30,2
108,0.73583984375,-0.43994140625,-0.15771484375,-41.28048780487805,61.585365853658544,0.426829268292683,30,2
109,0.70751953125,-0.4658203125,-0.11865234375,-37.987804878048784,60.243902439024396,5.060975609756098,30,2
110,0.67236328125,-0.5009765625,-0.1328125,-32.43902439024391,56.21951219512196,9.085365853658537,30,2
111,0.68603515625,-0.45654296875,-0.2138671875,-28.59756097560976,53.47560975609757,10.731707317073171,30,2
112,0.712890625,-0.38037109375,-0.37353515625,-30.30487804878049,53.47560975609757,10.609756097560977,30,2
113,0.74462890625,-0.31884765625,-0.28857421875,-38.53658536585366,57.31707317073171,7.8048780487804885,30,2
114,0.77734375,-0.27734375,-0.330078125,-46.463414634146346,60.79268292682927,4.878048780487806,30,2
115,0.7958984375,-0.2587890625,-0.3232421875,-53.53658536585366,62.37804878048781,1.2804878048780488,30,2
116,0.79736328125,-0.2734375,-0.35009765625,-58.29268292682927,63.41463414634147,-1.7682926829268295,30,2
117,0.78125,-0.32177734375,-0.337890625,-46.89024390243903,62.926829268292686,-5.060975609756098,30,2
118,0.759765625,-0.337890625,-0.337890625,-64.9390243902439,61.95121951219513,-7.439024390243903,30,2
119,0.74462890625,-0.333984375,-0.31396484375,-65.48780487804879,58.78048780487806,-9.329268292682928,30,2
120,0.73779296875,-0.3408203125,-0.291015625,-67.07317073170732,57.865853658536594,-11.158536585365855,30,2
121,0.73779296875,-0.31689453125,-0.25048828125,-69.63414634146342,55.54878048780488,-13.109756097560977,30,2
122,0.7373046875,-0.2998046875,-0.26171875,-72.37804878048782,54.207317073170735,-15.426829268292684,30,2
123,0.73095703125,-0.29345703125,-0.29833984375,-74.45121951219512,52.86585365853659,-18.231707317073173,30,2
124,0.7255859375,-0.29248046875,-0.28955078125,-76.52439024390245,50.97560975609756,-20.30487804878049,30,2
125,0.70751953125,-0.306640625,-0.3037109375,-75.73170731707317,47.926829268292686,-21.707317073170735,30,2
126,0.70654296875,-0.28125,-0.3125,-72.07317073170732,42.6829268292683,-23.59756097560976,30,2
127,0.73583984375,-0.23095703125,-0.3330078125,-73.35365853658537,41.03658536585366,-23.59756097560976,30,2
128,0.70166015625,-0.22119140625,-0.3251953125,-77.5,40.79268292682927,-26.76829268292683,30,2
129,0.74853515625,-0.24072265625,-0.35400390625,-83.65853658536587,42.743902439024396,-30.000000000000004,30,2
130,0.75634765625,-0.18505859375,-0.35400390625,-89.69512195121952,44.207317073170735,-32.43902439024391,30,2
131,0.75,-0.17822265625,-0.3359375,-95.85365853658537,45.73170731707317,-34.69512195121951,30,2
132,0.75341796875,-0.20068359375,-0.3271484375,-100.67073170731709,45.79268292682927,-36.09756097560976,30,2
133,0.75,-0.21435546875,-0.35986328125,-102.50000000000001,44.207317073170735,-37.926829268292686,30,2
134,0.7373046875,-0.2255859375,-0.3603515625,-101.89024390243904,41.707317073170735,-39.390243902439025,30,2
135,0.744140625,-0.23779296875,-0.376953125,-102.50000000000001,40.1829268292683,-42.01219512195122,30,2
136,0.77685546875,-0.16748046875,-0.3720703125,-104.81707317073172,40.60975609756098,-45.426829268292686,30,2
137,0.8037109375,-0.15771484375,-0.38037109375,-110.91463414634147,42.31707317073171,-48.23170731707317,30,2
138,0.8203125,-0.142578125,-0.49951171875,-118.10975609756099,44.268292682926834,-52.01219512195122,30,2
139,0.8310546875,-0.2470703125,-0.3681640625,-124.81707317073172,46.09756097560976,-55.73170731707317,30,2
140,0.841796875,-0.11474609375,-0.33447265625,-131.95121951219514,31.34146341463415,-58.41463414634147,30,2
141,0.8193359375,-0.14306640625,-0.3349609375,-133.90243902439025,45.97560975609756,-61.15853658536586,30,2
142,0.80078125,-0.15869140625,-0.3330078125,-132.8658536585366,44.268292682926834,-63.71951219512196,30,2
143,0.7998046875,-0.171875,-0.34765625,-130.91463414634148,40.0,-67.13414634146342,30,2
144,0.853515625,-0.11474609375,-0.37939453125,-131.58536585365854,37.13414634146342,-70.1829268292683,30,2
145,0.876953125,-0.08740234375,-0.41162109375,-135.0,37.13414634146342,-73.65853658536587,30,2
146,0.90625,-0.076171875,-0.4130859375,-139.9390243902439,37.926829268292686,-76.64634146341464,30,2
147,0.919921875,-0.08935546875,-0.41748046875,-143.35365853658539,37.926829268292686,-80.2439024390244,30,2
148,0.951171875,-0.08740234375,-0.43212890625,-146.15853658536588,37.987804878048784,-83.71951219512196,30,2
149,0.9560546875,-0.07861328125,-0.44189453125,-148.59756097560978,38.170731707317074,-86.52439024390245,30,2
150,0.9482421875,-0.07275390625,-0.45654296875,-150.7317073170732,37.13414634146342,-89.51219512195122,30,2
151,0.95947265625,-0.0615234375,-0.4462890625,-152.9878048780488,38.41463414634147,-93.04878048780489,30,2
152,0.99755859375,-0.033203125,-0.474609375,-155.97560975609758,38.41463414634147,-96.52439024390245,30,2
153,0.87890625,-0.01904296875,-0.46337890625,-160.0,39.024390243902445,-99.69512195121952,30,2
154,1.02001953125,-0.013671875,-0.4560546875,-163.65853658536588,39.024390243902445,-104.08536585365854,30,2
155,1.029296875,0.00537109375,-0.4599609375,-166.70731707317074,39.87804878048781,-107.92682926829269,30,2
156,1.03662109375,0.01123046875,-0.4658203125,-170.00000000000003,40.304878048780495,-112.37804878048782,30,2
157,1.078125,0.02294921875,-0.47998046875,-171.15853658536588,38.29268292682927,-117.31707317073172,30,2
158,1.13427734375,0.064453125,-0.4609375,-170.91463414634148,36.82926829268293,-123.41463414634147,30,2
159,1.19482421875,0.0732421875,-0.466796875,-172.43902439024393,35.487804878048784,-128.2317073170732,30,2
160,1.19775390625,0.048828125,-0.5087890625,-174.51219512195124,34.75609756097561,-133.1707317073171,30,2
161,1.19189453125,0.0283203125,-0.5234375,-173.109756097561,31.89024390243903,-138.71951219512195,30,2
162,1.2216796875,0.07958984375,-0.4638671875,-169.81707317073173,30.487804878048784,-144.26829268292684,30,2
163,1.31787109375,0.10791015625,-0.4384765625,-170.4878048780488,30.60975609756098,-148.53658536585368,30,2
164,1.33984375,0.10595703125,-0.4775390625,-173.2926829268293,31.76829268292683,-152.25609756097563,30,2
165,1.310546875,0.07373046875,-0.4453125,-172.01219512195124,30.853658536585368,-156.52439024390245,30,2
166,1.31201171875,0.08642578125,-0.4345703125,-167.7439024390244,28.963414634146343,-161.46341463414635,30,2
167,1.3525390625,0.13525390625,-0.43701171875,-167.9268292682927,27.865853658536587,-165.6707317073171,30,2
168,1.3876953125,0.15185546875,-0.4404296875,-170.3658536585366,28.658536585365855,-171.03658536585368,30,2
169,1.42529296875,0.17333984375,-0.47265625,-170.97560975609758,27.926829268292686,-176.76829268292684,30,2
170,1.50439453125,0.2353515625,-0.45556640625,-169.32926829268294,29.08536585365854,-182.9878048780488,30,2
171,1.576171875,0.2353515625,-0.443359375,-170.1829268292683,29.451219512195124,-172.07317073170734,30,2
172,1.556640625,0.17578125,-0.41064453125,-170.1829268292683,30.731707317073173,-193.109756097561,30,2
173,1.60302734375,0.20263671875,-0.39794921875,-165.4878048780488,29.207317073170735,-197.9268292682927,30,2
174,1.64697265625,0.2138671875,-0.38671875,-162.31707317073173,29.146341463414636,-201.89024390243904,30,2
175,1.666015625,0.16943359375,-0.42431640625,-163.35365853658539,30.30487804878049,-205.7926829268293,30,2
176,1.6171875,0.1650390625,-0.42333984375,-164.57317073170734,32.01219512195122,-210.2439024390244,30,2
177,1.61572265625,0.2216796875,-0.40625,-164.45121951219514,33.90243902439025,-214.45121951219514,30,2
178,1.63037109375,0.26171875,-0.35986328125,-165.7926829268293,35.670731707317074,-219.26829268292684,30,2
179,1.65576171875,0.30517578125,-0.38037109375,-165.0609756097561,34.81707317073171,-225.7317073170732,30,2
180,1.6572265625,0.3203125,-0.396484375,-162.8048780487805,31.52439024390244,-231.28048780487808,30,2
181,1.66650390625,0.34326171875,-0.33349609375,-158.0487804878049,30.792682926829272,-237.9268292682927,30,2
182,1.72021484375,0.36962890625,-0.2900390625,-153.96341463414635,29.634146341463417,-244.93902439024393,30,2
183,1.74169921875,0.35888671875,-0.26904296875,-148.0487804878049,28.231707317073173,-250.609756097561,30,2
184,1.748046875,0.49951171875,-0.22314453125,-142.13414634146343,24.695121951219516,-253.78048780487808,30,2
185,1.72216796875,0.37060546875,-0.18798828125,-135.97560975609758,22.073170731707318,-257.6829268292683,30,2
186,1.75244140625,0.416015625,-0.20654296875,-132.07317073170734,21.82926829268293,-259.9390243902439,30,2
187,1.79443359375,0.48046875,-0.19140625,-129.26829268292684,23.231707317073173,-262.9878048780488,30,2
188,1.865234375,0.525390625,-0.228515625,-130.91463414634148,28.292682926829272,-266.76829268292687,30,2
189,1.93994140625,0.58837890625,-0.2275390625,-134.87804878048783,33.963414634146346,-270.1829268292683,30,2
190,1.9921875,0.59033203125,-0.27734375,-139.75609756097563,36.768292682926834,-272.7439024390244,30,2
191,1.99267578125,0.58349609375,-0.33544921875,-145.3658536585366,40.97560975609756,-275.0,30,2
192,1.99755859375,0.5322265625,-0.30419921875,-148.53658536585368,45.670731707317074,-280.1829268292683,30,2
193,2.02880859375,0.51123046875,-0.24658203125,-151.58536585365854,50.85365853658537,-283.6585365853659,30,2
194,2.00634765625,0.4443359375,-0.1962890625,-153.90243902439025,57.31707317073171,-286.76829268292687,30,2
195,1.9423828125,0.365234375,-0.11083984375,-151.34146341463415,62.31707317073171,-288.8414634146342,30,2
196,1.84375,0.32080078125,-0.02197265625,-147.13414634146343,63.65853658536586,-288.719512195122,30,2
197,1.708984375,0.21875,0.0302734375,-155.7317073170732,64.9390243902439,-288.109756097561,30,2
198,1.60693359375,0.12744140625,0.11083984375,-126.58536585365854,61.524390243902445,-287.5609756097561,30,2
199,1.53076171875,0.0966796875,0.16064453125,-123.96341463414635,57.13414634146342,-286.76829268292687,30,2
200,1.44677734375,0.06689453125,0.18994140625,-109.20731707317074,53.41463414634147,-286.2804878048781,30,2
201,1.39453125,0.03955078125,0.1748046875,-82.13414634146342,51.524390243902445,-286.0975609756098,30,2
202,1.35498046875,0.005859375,0.1474609375,-73.71951219512195,50.670731707317074,-283.7804878048781,30,2
203,1.30029296875,-0.05419921875,0.08544921875,-69.63414634146342,52.987804878048784,-280.5487804878049,30,2
204,1.2314453125,-0.1494140625,0.05615234375,-66.95121951219512,55.304878048780495,-276.76829268292687,30,2
205,1.1513671875,-0.21142578125,0.00146484375,-64.81707317073172,56.646341463414636,-272.5,30,2
206,1.0791015625,-0.263671875,-0.041015625,-60.1219512195122,54.32926829268293,-264.26829268292687,30,2
207,0.962890625,-0.34423828125,-0.02294921875,-54.87804878048781,51.89024390243903,-257.6829268292683,30,2
208,0.8544921875,-0.45703125,0.04638671875,-50.60975609756098,51.89024390243903,-265.3048780487805,30,2
209,0.7568359375,-0.52197265625,0.05908203125,-62.01219512195122,48.170731707317074,-242.43902439024393,30,2
210,0.68798828125,-0.56396484375,0.11279296875,-40.97560975609756,44.75609756097561,-235.18292682926833,30,2
211,0.607421875,-0.61474609375,0.20263671875,-33.04878048780488,40.60975609756098,-228.35365853658539,30,2
212,0.5322265625,-0.62353515625,0.31689453125,-25.30487804878049,37.01219512195122,-219.93902439024393,30,2
213,0.3876953125,-0.67919921875,0.41162109375,-22.80487804878049,36.768292682926834,-208.65853658536588,30,2
214,0.27294921875,-0.79638671875,0.46435546875,-19.146341463414636,35.670731707317074,-198.2317073170732,30,2
215,0.111328125,-0.9013671875,0.51708984375,-11.707317073170733,32.86585365853659,-185.85365853658539,30,2
216,-0.02978515625,-0.9814453125,0.501953125,-2.682926829268293,29.32926829268293,-173.71951219512198,30,2
217,-0.00439453125,-1.0,0.51416015625,5.914634146341464,25.60975609756098,-163.41463414634148,30,2
218,-0.14453125,-1.021484375,0.50732421875,13.04878048780488,24.81707317073171,-150.5487804878049,30,2
219,-0.18310546875,-1.11328125,0.5078125,16.890243902439025,27.012195121951223,-135.1829268292683,30,2
220,-0.33349609375,-1.2197265625,0.38134765625,18.10975609756098,29.695121951219516,-115.73170731707319,30,2
221,-0.6220703125,-1.404296875,0.52392578125,17.743902439024392,30.487804878048784,-95.3658536585366,30,2
222,-0.7666015625,-1.5244140625,0.568359375,24.390243902439025,29.81707317073171,-92.8658536585366,30,2
223,-0.71435546875,-1.56201171875,0.61083984375,34.69512195121951,28.780487804878053,-60.060975609756106,30,2
224,-0.65673828125,-1.5283203125,0.7001953125,40.85365853658537,30.121951219512198,-42.743902439024396,30,2
225,-0.61865234375,-1.51953125,0.6279296875,44.81707317073171,34.32926829268293,-25.426829268292686,30,2
226,-0.59521484375,-1.55859375,0.724609375,49.93902439024391,36.890243902439025,-5.365853658536586,30,2
227,-0.64990234375,-1.69287109375,0.6611328125,58.53658536585366,39.08536585365854,17.804878048780488,30,2
228,-0.6279296875,-1.72314453125,0.70654296875,70.54878048780489,43.04878048780488,40.1219512195122,30,2
229,-0.623046875,-1.69189453125,0.77685546875,79.45121951219512,47.37804878048781,60.73170731707317,30,2
230,-0.5634765625,-1.64306640625,0.7783203125,84.08536585365854,54.81707317073171,62.804878048780495,30,2
231,-0.47119140625,-1.5751953125,0.8115234375,85.91463414634147,63.35365853658537,93.53658536585367,30,2
232,-0.3916015625,-1.59228515625,0.7412109375,86.95121951219512,69.69512195121952,94.02439024390245,30,2
233,-0.2822265625,-1.6435546875,0.6484375,92.43902439024392,73.90243902439025,109.87804878048782,30,2
234,-0.16259765625,-1.7216796875,0.611328125,99.69512195121952,62.743902439024396,144.14634146341464,30,2
235,-0.068359375,-1.8310546875,0.6015625,93.84146341463415,82.8048780487805,167.31707317073173,30,2
236,-0.02587890625,-1.9892578125,0.59228515625,119.51219512195124,85.79268292682927,193.53658536585368,30,2
237,0.0380859375,-2.1220703125,0.63427734375,132.37804878048783,87.5609756097561,203.96341463414635,30,2
238,0.1572265625,-2.1953125,0.7314453125,145.4268292682927,88.53658536585367,245.4268292682927,30,2
239,0.35546875,-2.2578125,0.57666015625,155.1829268292683,93.23170731707317,273.6585365853659,30,2
240,0.576171875,-2.3740234375,0.587890625,159.57317073170734,104.02439024390245,304.20731707317077,30,2
241,0.6298828125,-2.56591796875,0.6162109375,160.4268292682927,115.85365853658537,336.0975609756098,30,2
242,0.9765625,-2.62890625,0.5537109375,158.96341463414635,110.00000000000001,369.1463414634147,30,2
243,1.1904296875,-2.9921875,0.48291015625,156.58536585365854,136.76829268292684,404.0853658536586,30,2
244,1.5,-3.34130859375,0.3896484375,154.32926829268294,143.2317073170732,441.82926829268297,30,2
245,1.865234375,-3.7431640625,0.07958984375,157.5,139.63414634146343,481.82926829268297,30,2
246,2.1357421875,-4.1337890625,-0.173828125,185.97560975609758,134.39024390243904,521.0975609756098,30,2
247,2.81787109375,-4.67333984375,-0.587890625,224.20731707317074,121.52439024390245,553.3536585365854,30,2
248,3.49462890625,-5.1923828125,-0.98779296875,261.95121951219517,132.5609756097561,573.9634146341464,30,2
249,4.2294921875,-5.85791015625,-0.98193359375,279.20731707317077,170.97560975609758,592.3170731707318,30,2
250,5.30322265625,-6.2431640625,-0.3154296875,302.6829268292683,231.46341463414637,626.6463414634147,30,2
251,6.53759765625,-6.2001953125,-0.33056640625,289.45121951219517,271.76829268292687,713.3536585365854,30,2
252,7.37646484375,-5.6875,-0.927734375,258.2317073170732,286.95121951219517,792.6219512195123,30,2
253,7.7724609375,-5.60546875,-1.78466796875,236.82926829268294,267.3780487804878,857.9268292682927,30,2
254,8.8681640625,-5.55517578125,-2.8662109375,245.7317073170732,248.65853658536588,918.6585365853659,30,2
255,10.0966796875,-5.00439453125,-3.63623046875,266.5243902439025,178.47560975609758,966.0975609756099,30,2
256,10.90234375,-4.2353515625,-5.07373046875,321.0975609756098,96.64634146341464,998.048780487805,30,2
257,11.1650390625,-3.16455078125,-5.43408203125,445.7317073170732,27.865853658536587,1001.4634146341464,30,2
258,12.16748046875,-2.453125,-6.4599609375,548.6585365853659,-58.41463414634147,955.0000000000001,30,2
259,12.318359375,-1.5185546875,-8.2099609375,640.609756097561,-153.1707317073171,919.0243902439025,30,2
260,11.091796875,-1.333984375,-8.55517578125,799.329268292683,-303.719512195122,837.1951219512196,30,2
261,9.72802734375,-1.556640625,-8.35302734375,1005.6707317073171,-540.9146341463415,754.6951219512196,30,2
262,7.74609375,-2.783203125,-9.19677734375,1275.548780487805,-802.9878048780489,598.5975609756098,30,2
263,6.560546875,-2.708984375,-9.9013671875,1618.1707317073171,-775.0609756097562,389.57317073170736,30,2
264,4.47802734375,-16.0,-0.625,1983.9024390243903,-994.3902439024391,72.5,30,2
265,0.40869140625,-15.9599609375,-14.087890625,-249.93902439024393,1259.7560975609758,-1149.268292682927,30,2
266,15.99951171875,15.99951171875,11.861328125,281.1585365853659,378.9024390243903,265.9756097560976,30,2
267,-16.0,-14.21435546875,6.62158203125,1997.987804878049,-518.1707317073171,332.5609756097561,30,2
268,5.27880859375,-6.27978515625,-3.37158203125,1037.5609756097563,-148.47560975609758,-193.41463414634148,30,2
269,8.27685546875,-1.17724609375,-3.6455078125,719.5121951219513,35.609756097560975,-177.13414634146343,30,2
270,7.59765625,-0.34130859375,1.0146484375,742.9268292682927,1.402439024390244,-240.4268292682927,30,2
271,5.99609375,-2.3173828125,0.62744140625,896.0975609756098,-84.87804878048782,-442.19512195121956,30,2
272,5.6318359375,-4.71728515625,-3.36474609375,782.6829268292684,-152.19512195121953,-594.2682926829269,30,2
273,6.193359375,-1.80224609375,-3.80029296875,616.7682926829269,-71.28048780487805,-660.7926829268293,30,2
274,5.24072265625,-2.4189453125,-3.5322265625,520.3048780487806,-12.01219512195122,-714.5121951219513,30,2
275,4.27392578125,-3.21142578125,-3.1650390625,436.4634146341464,29.81707317073171,-739.7560975609757,30,2
276,3.1298828125,-3.14599609375,-3.12451171875,371.89024390243907,71.64634146341464,-756.0975609756098,30,2
277,2.2216796875,-3.03271484375,-2.46484375,301.82926829268297,112.25609756097562,-759.329268292683,30,2
278,1.50830078125,-3.07763671875,-2.05322265625,279.45121951219517,172.31707317073173,-762.439024390244,30,2
279,1.49755859375,-2.37890625,-1.90771484375,234.32926829268294,218.96341463414635,-757.0731707317074,30,2
280,1.59228515625,-1.640625,-1.78271484375,211.09756097560978,275.6707317073171,-752.2560975609757,30,2
281,2.2001953125,-0.94873046875,-1.775390625,158.59756097560978,319.69512195121956,-739.4512195121952,30,2
282,2.40380859375,-0.87109375,-1.52685546875,104.02439024390245,358.8414634146342,-712.8658536585366,30,2
283,2.47021484375,-1.11279296875,-1.47705078125,56.89024390243903,382.7439024390244,-679.8780487804879,30,2
284,2.46630859375,-1.47998046875,-1.81787109375,-16.158536585365855,393.1707317073171,-653.9024390243903,30,2
285,2.29150390625,-1.6044921875,-2.04833984375,-82.50000000000001,391.219512195122,-596.2804878048781,30,2
286,1.89794921875,-1.72509765625,-2.0595703125,-146.15853658536588,384.75609756097566,-557.7439024390244,30,2
287,1.38720703125,-1.7509765625,-1.64453125,-177.9268292682927,378.5365853658537,-527.8048780487806,30,2
288,0.990234375,-1.87158203125,-1.265625,-201.52439024390245,381.0975609756098,-502.56097560975616,30,2
289,0.74853515625,-1.58349609375,-1.0205078125,-210.85365853658539,388.0487804878049,-480.48780487804885,30,2
290,0.84228515625,-1.3017578125,-0.9658203125,-215.3048780487805,397.01219512195127,-455.9146341463415,30,2
291,0.9931640625,-0.95263671875,-0.8955078125,-211.89024390243904,402.8658536585366,-430.18292682926835,30,2
292,1.03125,-0.81982421875,-1.0361328125,-210.00000000000003,406.95121951219517,-403.2926829268293,30,2
293,0.95556640625,-0.81494140625,-1.3857421875,-199.39024390243904,395.7317073170732,-387.31707317073176,30,2
294,1.13720703125,-0.53857421875,-1.80224609375,-191.28048780487808,376.89024390243907,-377.01219512195127,30,2
295,1.41259765625,-0.37109375,-1.93212890625,-191.15853658536588,364.87804878048786,-360.609756097561,30,2
296,1.0654296875,-0.35986328125,-1.99560546875,-209.26829268292684,366.0365853658537,-356.89024390243907,30,2
297,0.849609375,-0.7021484375,-1.96484375,-227.37804878048783,373.7804878048781,-312.8048780487805,30,2
298,0.451171875,-0.99951171875,-1.77685546875,-221.46341463414637,352.8658536585366,-285.7317073170732,30,2
299,0.11083984375,-0.7900390625,-1.548828125,-206.03658536585368,322.5609756097561,-262.3780487804878,30,2
300,-0.234375,-0.7958984375,-1.25244140625,-198.1707317073171,301.4634146341464,-242.07317073170734,30,2
301,-0.4033203125,-0.50732421875,-1.05810546875,-229.63414634146343,287.25609756097566,-226.76829268292684,30,2
302,-0.447265625,-0.41259765625,-0.8740234375,-239.81707317073173,275.9146341463415,-223.84146341463418,30,2
303,-0.2978515625,0.18359375,-0.8212890625,-279.51219512195127,255.609756097561,-205.06097560975613,30,2
304,-0.40185546875,-0.236328125,-1.08740234375,-286.6463414634147,251.82926829268294,-188.1707317073171,30,2
305,-0.33837890625,-0.28759765625,-1.19140625,-292.01219512195127,229.57317073170734,-203.2317073170732,30,2
306,-0.37109375,-0.35302734375,-1.169921875,-281.0365853658537,214.81707317073173,-192.01219512195124,30,2
307,-0.40283203125,-0.31103515625,-0.8955078125,-270.9756097560976,206.58536585365854,-183.1707317073171,30,2
308,-0.61083984375,-0.36181640625,-0.67138671875,-257.5609756097561,181.89024390243904,-180.2439024390244,30,2
309,-0.39892578125,-0.13525390625,-0.60107421875,-237.25609756097563,172.5609756097561,-173.90243902439025,30,2
310,-0.544921875,-0.2373046875,-0.84228515625,-231.64634146341464,160.7926829268293,-157.5609756097561,30,2
311,-0.51416015625,-0.16015625,-1.005859375,-220.3048780487805,153.65853658536588,-147.5609756097561,30,2
312,-0.63623046875,-0.37353515625,-1.126953125,-220.6707317073171,150.5487804878049,-136.15853658536585,30,2
313,-0.8271484375,-0.53662109375,-1.0537109375,-206.70731707317074,143.35365853658539,-118.65853658536587,30,2
314,-1.14404296875,-0.6572265625,-0.99169921875,-183.90243902439025,126.70731707317074,-101.46341463414635,30,2
315,-1.15966796875,-0.572265625,-0.775390625,-162.6829268292683,122.19512195121952,-87.92682926829269,30,2
316,-1.16259765625,-0.41162109375,-0.59765625,-155.7317073170732,118.35365853658537,-93.10975609756099,30,2
317,-1.08251953125,-0.23095703125,-0.72265625,-149.81707317073173,114.75609756097562,-70.48780487804879,30,2
318,-1.0400390625,-0.1103515625,-0.78271484375,-141.70731707317074,105.79268292682927,-62.6829268292683,30,2
319,-1.11474609375,-0.087890625,-0.7197265625,-126.40243902439026,100.97560975609757,-55.73170731707317,30,2
320,-0.9501953125,-0.15576171875,-0.55029296875,-116.34146341463416,94.69512195121952,-51.585365853658544,30,2
321,-0.9423828125,-0.162109375,-0.64794921875,-110.79268292682927,86.82926829268294,-47.6219512195122,30,2
322,-0.916015625,-0.2158203125,-0.72412109375,-103.53658536585367,76.70731707317074,-43.10975609756098,30,2
323,-0.91259765625,-0.28515625,-0.82080078125,-91.34146341463415,60.54878048780488,-40.0,30,2
324,-0.9033203125,-0.3359375,-0.7802734375,-73.29268292682927,43.35365853658537,-34.81707317073171,30,2
325,-0.96875,-0.3623046875,-0.681640625,-63.59756097560976,46.768292682926834,-28.53658536585366,30,2
326,-1.08447265625,-0.314453125,-0.61669921875,-58.10975609756098,20.426829268292686,-20.60975609756098,30,2
327,-1.15966796875,-0.31591796875,-0.6650390625,-54.81707317073171,9.939024390243903,-13.414634146341465,30,2
328,-1.21630859375,-0.322265625,-0.720703125,-49.51219512195122,14.756097560975611,-6.158536585365854,30,2
329,-1.27099609375,-0.37939453125,-0.68212890625,-42.31707317073171,-12.74390243902439,2.25609756097561,30,2
330,-1.3037109375,-0.400390625,-0.63671875,-35.91463414634147,-22.500000000000004,12.560975609756099,30,2
331,-1.35205078125,-0.423828125,-0.61669921875,-34.146341463414636,-16.646341463414636,21.76829268292683,30,2
332,-1.3759765625,-0.4375,-0.6748046875,-46.82926829268293,-42.6829268292683,27.25609756097561,30,2
333,-1.4970703125,-0.4462890625,-0.65234375,-20.121951219512198,-54.75609756097561,33.41463414634146,30,2
334,-1.333984375,-0.43115234375,-0.57421875,-10.24390243902439,-65.54878048780489,40.426829268292686,30,2
335,-1.29296875,-0.4931640625,-0.4619140625,-3.353658536585366,-72.31707317073172,46.15853658536586,30,2
336,-1.26171875,-0.2763671875,-0.3955078125,-0.30487804878048785,-77.25609756097562,49.207317073170735,30,2
337,-1.208984375,-0.18994140625,-0.4267578125,2.9268292682926833,-82.8048780487805,50.670731707317074,30,2
338,-1.16015625,-0.1328125,-0.4296875,9.634146341463415,-87.07317073170732,50.487804878048784,30,2
339,-1.09423828125,-0.07958984375,-0.3798828125,17.134146341463417,-92.5609756097561,50.85365853658537,30,2
340,-1.04931640625,-0.05419921875,-0.32763671875,23.78048780487805,-95.67073170731709,52.13414634146342,30,2
341,-1.0634765625,-0.0380859375,-0.302734375,26.52439024390244,-97.5609756097561,52.6829268292683,30,2
342,-1.0869140625,-0.0302734375,-0.33154296875,27.926829268292686,-101.70731707317074,52.50000000000001,30,2
343,-1.109375,-0.0166015625,-0.3369140625,31.158536585365855,-106.58536585365854,52.926829268292686,30,2
344,-1.1396484375,-0.04150390625,-0.30029296875,35.97560975609756,-111.28048780487806,54.207317073170735,30,2
345,-1.15087890625,-0.06640625,-0.24267578125,39.51219512195122,-114.75609756097562,54.69512195121952,30,2
346,-1.177734375,-0.05810546875,-0.18994140625,42.01219512195122,-117.13414634146342,56.34146341463415,30,2
347,-1.18017578125,-0.0185546875,-0.19580078125,44.57317073170732,-120.73170731707319,57.926829268292686,30,2
348,-1.169921875,0.0166015625,-0.24267578125,48.53658536585366,-124.57317073170732,58.29268292682927,30,2
349,-1.14111328125,0.04345703125,-0.12841796875,52.13414634146342,-125.97560975609757,58.29268292682927,30,2
350,-1.10791015625,0.08251953125,-0.21875,56.40243902439025,-128.90243902439025,59.39024390243903,30,2
351,-1.09521484375,0.07666015625,-0.16064453125,59.51219512195122,-130.85365853658539,60.1829268292683,30,2
352,-1.078125,0.10302734375,-0.11767578125,61.585365853658544,-131.64634146341464,61.34146341463415,30,2
353,-1.06494140625,0.109375,-0.0693359375,62.31707317073171,-132.4390243902439,61.463414634146346,30,2
354,-1.037109375,0.123046875,-0.05615234375,61.524390243902445,-132.6219512195122,61.40243902439025,30,2
355,-1.12109375,0.15869140625,-0.04052734375,59.87804878048781,-132.5609756097561,61.09756097560976,30,2
356,-0.95361328125,0.21435546875,-0.02587890625,59.63414634146342,-135.6707317073171,61.21951219512196,30,2
357,-0.91455078125,0.23291015625,-0.025390625,46.89024390243903,-139.45121951219514,61.21951219512196,30,2
358,-0.88720703125,0.24560546875,0.00634765625,65.91463414634147,-143.47560975609758,60.97560975609757,30,2
359,-0.892578125,0.2431640625,0.04296875,70.1829268292683,-148.109756097561,61.21951219512196,30,2
360,-0.87744140625,0.25146484375,0.08740234375,74.32926829268294,-150.91463414634148,61.15853658536586,30,2
361,-0.85205078125,0.134765625,0.16650390625,74.87804878048782,-151.64634146341464,61.34146341463415,30,2
362,-0.82568359375,0.265625,0.21044921875,75.3658536585366,-152.8048780487805,61.707317073170735,30,2
363,-0.8154296875,0.22412109375,0.1337890625,74.87804878048782,-150.7926829268293,61.28048780487806,30,2
364,-0.79296875,0.22607421875,0.2685546875,75.42682926829269,-150.7926829268293,61.28048780487806,30,2
365,-0.75390625,0.2451171875,0.28369140625,77.92682926829269,-152.01219512195124,61.21951219512196,30,2
366,-0.6962890625,0.2666015625,0.27001953125,79.51219512195122,-152.9268292682927,60.97560975609757,30,2
367,-0.64892578125,0.2802734375,0.2626953125,80.79268292682927,-154.39024390243904,60.304878048780495,30,2
368,-0.61083984375,0.28466796875,0.2724609375,81.40243902439025,-155.0,59.451219512195124,30,2
369,-0.5673828125,0.2978515625,0.291015625,81.09756097560977,-156.21951219512198,59.268292682926834,30,2
370,-0.55517578125,0.30224609375,0.31884765625,79.69512195121952,-156.64634146341464,59.32926829268293,30,2
371,-0.5576171875,0.30078125,0.38134765625,75.3658536585366,-157.25609756097563,59.146341463414636,30,2
372,-0.56982421875,0.28564453125,0.4287109375,70.85365853658537,-158.2926829268293,58.71951219512196,30,2
373,-0.59326171875,0.271484375,0.4462890625,68.23170731707317,-160.1829268292683,58.10975609756098,30,2
374,-0.62255859375,0.24365234375,0.47314453125,68.90243902439025,-163.71951219512198,57.865853658536594,30,2
375,-0.6103515625,0.22216796875,0.47998046875,71.76829268292684,-166.28048780487805,57.19512195121952,30,2
376,-0.58056640625,0.1279296875,0.4638671875,71.58536585365854,-167.8048780487805,56.09756097560976,30,2
377,-0.53466796875,0.29541015625,0.45458984375,69.14634146341464,-167.9878048780488,55.97560975609757,30,2
378,-0.48583984375,0.3173828125,0.44921875,64.02439024390245,-167.13414634146343,56.21951219512196,30,2
379,-0.44970703125,0.34521484375,0.4462890625,59.451219512195124,-169.20731707317074,56.585365853658544,30,2
380,-0.4521484375,0.3271484375,0.4814453125,55.1829268292683,-170.4878048780488,56.524390243902445,30,2
381,-0.45703125,0.3115234375,0.5263671875,51.768292682926834,-170.7317073170732,55.79268292682927,30,2
382,-0.44384765625,0.3125,0.53759765625,49.32926829268293,-169.45121951219514,54.75609756097561,30,2
383,-0.4033203125,0.33447265625,0.5517578125,48.170731707317074,-169.02439024390245,54.451219512195124,30,2
384,-0.36279296875,0.37158203125,0.55615234375,47.31707317073171,-169.93902439024393,54.268292682926834,30,2
385,-0.3310546875,0.39111328125,0.54345703125,46.34146341463415,-172.37804878048783,54.87804878048781,30,2
386,-0.2958984375,0.4111328125,0.54052734375,46.524390243902445,-174.81707317073173,54.451219512195124,30,2
387,-0.26171875,0.423828125,0.5380859375,46.09756097560976,-176.09756097560978,53.65853658536586,30,2
388,-0.24853515625,0.40771484375,0.58740234375,44.207317073170735,-174.93902439024393,53.29268292682927,30,2
389,-0.22314453125,0.4140625,0.61865234375,39.93902439024391,-169.75609756097563,52.31707317073171,30,2
390,-0.18994140625,0.43798828125,0.6181640625,35.1829268292683,-168.2926829268293,52.19512195121952,30,2
391,-0.19091796875,0.41064453125,0.61962890625,30.792682926829272,-167.8048780487805,51.34146341463415,30,2
392,-0.23046875,0.35498046875,0.6513671875,15.731707317073171,-167.8658536585366,50.487804878048784,30,2
393,-0.25341796875,0.33203125,0.6611328125,36.951219512195124,-169.57317073170734,50.36585365853659,30,2
394,-0.25048828125,0.34130859375,0.671875,44.63414634146342,-171.58536585365854,50.79268292682927,30,2
395,-0.19287109375,0.37744140625,0.66455078125,51.34146341463415,-174.20731707317074,52.13414634146342,30,2
396,-0.146484375,0.41162109375,0.64892578125,55.54878048780488,-176.40243902439025,53.41463414634147,30,2
397,-0.126953125,0.4267578125,0.61474609375,56.34146341463415,-176.70731707317074,54.085365853658544,30,2
398,-0.10107421875,0.458984375,0.60498046875,55.67073170731708,-176.64634146341464,55.1829268292683,30,2
399,-0.08642578125,0.47216796875,0.60400390625,53.04878048780488,-175.3658536585366,56.34146341463415,30,2
400,-0.080078125,0.46923828125,0.63427734375,47.31707317073171,-172.50000000000003,57.865853658536594,30,2
401,-0.07958984375,0.45654296875,0.68115234375,40.1829268292683,-167.5609756097561,59.207317073170735,30,2
402,-0.06884765625,0.4677734375,0.6767578125,34.81707317073171,-163.78048780487805,59.93902439024391,30,2
403,-0.06884765625,0.46826171875,0.6728515625,32.926829268292686,-161.82926829268294,60.487804878048784,30,2
404,-0.0419921875,0.46337890625,0.6884765625,35.670731707317074,-162.13414634146343,62.07317073170732,30,2
405,-0.0029296875,0.4267578125,0.70751953125,40.60975609756098,-164.26829268292684,64.63414634146342,30,2
406,0.02197265625,0.4150390625,0.72802734375,46.768292682926834,-164.93902439024393,66.52439024390245,30,2
407,0.06591796875,0.41259765625,0.7158203125,51.951219512195124,-165.00000000000003,67.5,30,2
408,0.0048828125,0.4619140625,0.68603515625,53.78048780487806,-162.8658536585366,67.13414634146342,30,2
409,0.18798828125,0.5263671875,0.662109375,52.43902439024391,-161.76829268292684,67.6829268292683,30,2
410,0.24072265625,0.552734375,0.62060546875,48.23170731707317,-161.34146341463415,68.59756097560977,30,2
411,0.2880859375,0.5751953125,0.583984375,44.207317073170735,-161.70731707317074,67.8658536585366,30,2
412,0.32763671875,0.5927734375,0.60107421875,41.890243902439025,-163.65853658536588,67.13414634146342,30,2
413,0.33349609375,0.5771484375,0.64013671875,41.82926829268293,-166.52439024390245,67.6219512195122,30,2
414,0.31982421875,0.55615234375,0.68701171875,41.21951219512196,-167.13414634146343,68.04878048780489,30,2
415,0.31103515625,0.54931640625,0.71728515625,36.28048780487805,-164.20731707317074,67.6829268292683,30,2
416,0.33935546875,0.57080078125,0.75439453125,30.731707317073173,-160.5487804878049,67.6829268292683,30,2
417,0.35107421875,0.59375,0.78125,27.682926829268297,-158.2926829268293,67.7439024390244,30,2
418,0.3486328125,0.59912109375,0.77880859375,29.207317073170735,-159.75609756097563,68.59756097560977,30,2
419,0.32861328125,0.5634765625,0.76318359375,33.963414634146346,-161.09756097560978,68.71951219512195,30,2
420,0.341796875,0.57421875,0.7666015625,40.85365853658537,-162.07317073170734,68.65853658536587,30,2
421,0.3603515625,0.58203125,0.75732421875,45.670731707317074,-162.01219512195124,69.08536585365854,30,2
422,0.4130859375,0.61376953125,0.697265625,49.32926829268293,-163.109756097561,69.45121951219512,30,2
423,0.44775390625,0.63916015625,0.66845703125,50.79268292682927,-164.75609756097563,69.57317073170732,30,2
424,0.44677734375,0.63818359375,0.708984375,50.97560975609756,-164.51219512195124,69.69512195121952,30,2
425,0.44580078125,0.5908203125,0.712890625,47.50000000000001,-159.45121951219514,69.51219512195122,30,2
426,0.50830078125,0.640625,0.7109375,45.00000000000001,-154.45121951219514,68.71951219512195,30,2
427,0.5419921875,0.6689453125,0.70361328125,44.268292682926834,-150.0,69.81707317073172,30,2
428,0.53271484375,0.6591796875,0.69775390625,44.024390243902445,-147.25609756097563,70.60975609756098,30,2
429,0.5341796875,0.6298828125,0.7001953125,44.207317073170735,-144.39024390243904,70.3658536585366,30,2
430,0.53271484375,0.61572265625,0.63916015625,43.35365853658537,-141.82926829268294,69.69512195121952,30,2
431,0.556640625,0.662109375,0.61865234375,44.268292682926834,-140.6707317073171,68.90243902439025,30,2
432,0.5908203125,0.69189453125,0.591796875,46.15853658536586,-141.76829268292684,68.29268292682927,30,2
433,0.60888671875,0.7080078125,0.603515625,47.987804878048784,-144.32926829268294,69.14634146341464,30,2
434,0.58642578125,0.64990234375,0.5947265625,50.426829268292686,-146.28048780487805,70.42682926829269,30,2
435,0.57177734375,0.5947265625,0.5986328125,52.01219512195122,-145.6707317073171,69.69512195121952,30,2
436,0.57275390625,0.55615234375,0.59130859375,53.47560975609757,-145.91463414634148,70.3658536585366,30,2
437,0.544921875,0.52392578125,0.5947265625,49.32926829268293,-141.34146341463415,71.03658536585367,30,2
438,0.578125,0.515625,0.55224609375,42.6829268292683,-135.4268292682927,72.43902439024392,30,2
439,0.6015625,0.533203125,0.5146484375,35.243902439024396,-131.03658536585368,74.57317073170732,30,2
440,0.57861328125,0.5390625,0.49462890625,29.81707317073171,-127.19512195121952,76.34146341463415,30,2
441,0.58154296875,0.53857421875,0.52587890625,27.134146341463417,-123.96341463414635,62.6219512195122,30,2
442,0.58740234375,0.52197265625,0.5498046875,27.743902439024392,-122.98780487804879,81.76829268292684,30,2
443,0.58349609375,0.51123046875,0.5244140625,33.35365853658537,-126.76829268292684,85.91463414634147,30,2
444,0.5400390625,0.48193359375,0.48388671875,40.73170731707317,-128.90243902439025,86.95121951219512,30,2
445,0.537109375,0.47119140625,0.40380859375,46.28048780487805,-130.4878048780488,85.00000000000001,30,2
446,0.59326171875,0.509765625,0.365234375,47.987804878048784,-128.78048780487805,82.19512195121952,30,2
447,0.720703125,0.56005859375,0.35986328125,45.304878048780495,-125.3658536585366,82.7439024390244,30,2
448,0.75537109375,0.5712890625,0.40576171875,39.63414634146342,-119.02439024390245,85.54878048780489,30,2
449,0.76513671875,0.59375,0.390625,33.04878048780488,-113.41463414634147,87.50000000000001,30,2
450,0.67626953125,0.54150390625,0.39599609375,28.04878048780488,-106.28048780487806,87.92682926829269,30,2
451,0.6630859375,0.52685546875,0.458984375,27.25609756097561,-99.87804878048782,88.35365853658537,30,2
452,0.67724609375,0.5,0.47802734375,29.451219512195124,-98.17073170731709,91.28048780487806,30,2
453,0.6279296875,0.42236328125,0.3984375,31.76829268292683,-96.21951219512196,109.08536585365854,30,2
454,0.59375,0.39697265625,0.376953125,36.463414634146346,-94.81707317073172,93.29268292682927,30,2
455,0.607421875,0.3837890625,0.32177734375,42.926829268292686,-95.85365853658537,93.47560975609757,30,2
456,0.61669921875,0.35205078125,0.31982421875,44.81707317073171,-91.21951219512196,93.29268292682927,30,2
457,0.65966796875,0.34228515625,0.3671875,41.951219512195124,-81.21951219512196,94.32926829268294,30,2
458,0.71630859375,0.3623046875,0.37939453125,35.609756097560975,-71.09756097560977,96.95121951219512,30,2
459,0.72265625,0.37353515625,0.384765625,29.75609756097561,-62.6219512195122,100.97560975609757,30,2
460,0.67822265625,0.337890625,0.369140625,26.89024390243903,-57.31707317073171,104.57317073170732,30,2
461,0.6259765625,0.251953125,0.255859375,24.32926829268293,-55.243902439024396,108.17073170731709,30,2
462,0.6123046875,0.19384765625,0.20703125,25.0609756097561,-54.87804878048781,108.78048780487806,30,2
463,0.65087890625,0.1826171875,0.21826171875,28.353658536585368,-55.54878048780488,109.20731707317074,30,2
464,0.6982421875,0.1796875,0.1796875,30.731707317073173,-58.71951219512196,112.50000000000001,30,2
465,0.66162109375,0.1123046875,0.1142578125,32.37804878048781,-63.10975609756098,116.82926829268294,30,2
466,0.619140625,0.06494140625,0.0634765625,36.646341463414636,-66.34146341463415,118.04878048780489,30,2
467,0.68115234375,0.08251953125,0.080078125,39.75609756097561,-66.76829268292684,117.01219512195122,30,2
468,0.740234375,0.07666015625,0.052734375,37.13414634146342,-77.8048780487805,118.41463414634147,30,2
469,0.79931640625,0.107421875,0.00830078125,26.158536585365855,-51.463414634146346,119.63414634146342,30,2
470,0.84814453125,0.1669921875,-0.0068359375,8.963414634146343,-39.268292682926834,120.00000000000001,30,2
471,0.86328125,0.162109375,-0.029296875,-6.52439024390244,-28.719512195121954,120.06097560975611,30,2
472,0.87890625,0.14501953125,-0.0234375,-15.30487804878049,-23.475609756097562,120.1829268292683,30,2
473,0.8505859375,0.05908203125,-0.0146484375,-14.817073170731708,-23.353658536585368,119.51219512195124,30,2
474,0.82080078125,-0.0224609375,-0.00341796875,-8.78048780487805,-27.25609756097561,118.71951219512196,30,2
475,0.78271484375,-0.06982421875,-0.02978515625,2.6219512195121952,-33.23170731707317,118.41463414634147,30,2
476,0.77880859375,-0.06884765625,-0.0263671875,15.487804878048783,-38.04878048780488,117.19512195121952,30,2
477,0.8134765625,-0.04345703125,-0.0419921875,21.76829268292683,-38.29268292682927,115.85365853658537,30,2
478,0.88330078125,0.01171875,-0.06201171875,18.597560975609756,-33.78048780487805,114.69512195121952,30,2
479,0.92626953125,0.076171875,-0.0859375,9.451219512195122,-26.03658536585366,113.29268292682927,30,2
480,0.96484375,0.13525390625,-0.11181640625,-4.085365853658537,-19.146341463414636,112.50000000000001,30,2
481,0.94482421875,0.103515625,-0.17529296875,-18.78048780487805,-13.353658536585368,110.06097560975611,30,2
482,0.9775390625,0.0888671875,-0.21728515625,-29.08536585365854,-11.463414634146343,104.75609756097562,30,2
483,1.01220703125,0.10693359375,-0.18701171875,-31.89024390243903,-11.646341463414634,100.00000000000001,30,2
484,1.0478515625,0.10986328125,-0.11669921875,-33.47560975609756,-11.52439024390244,96.40243902439025,30,2
485,1.02587890625,0.0771484375,-0.109375,-36.21951219512196,-10.060975609756099,109.08536585365854,30,2
486,0.96142578125,0.046875,-0.06640625,-34.51219512195122,-11.036585365853659,90.00000000000001,30,2
487,0.9208984375,0.0244140625,-0.06982421875,-28.170731707317074,-15.000000000000002,86.52439024390245,30,2
488,0.896484375,0.01025390625,-0.04541015625,-21.463414634146343,-17.25609756097561,83.53658536585367,30,2
489,0.896484375,0.02392578125,-0.03662109375,-17.25609756097561,-17.25609756097561,80.73170731707317,30,2
490,0.93603515625,0.07373046875,-0.00927734375,-16.951219512195124,-14.573170731707318,93.47560975609757,30,2
491,0.98291015625,0.103515625,-0.06787109375,-22.98780487804878,-13.04878048780488,76.64634146341464,30,2
492,0.93896484375,0.07861328125,-0.18701171875,-30.792682926829272,-12.256097560975611,74.75609756097562,30,2
493,0.90234375,0.05078125,-0.18212890625,-34.81707317073171,-11.036585365853659,70.91463414634147,30,2
494,0.96728515625,0.07763671875,-0.12646484375,-37.5609756097561,-9.878048780487806,66.76829268292684,30,2
495,1.0087890625,0.0908203125,-0.10595703125,-45.54878048780488,-6.036585365853659,63.963414634146346,30,2
496,0.96826171875,0.07861328125,-0.10400390625,-55.243902439024396,-1.707317073170732,62.560975609756106,30,2
497,0.916015625,0.04248046875,-0.07861328125,-61.34146341463415,0.426829268292683,60.1219512195122,30,2
498,0.88037109375,0.00146484375,-0.083984375,-63.23170731707317,-1.1585365853658538,57.25609756097561,30,2
499,0.86328125,-0.03125,-0.09619140625,-63.23170731707317,-2.987804878048781,54.085365853658544,30,2
