,Ax,Ay,Az,Gx,Gy,Gz,distance,shot_type
0,0.6025390625,-0.58837890625,-0.30908203125,4.878048780487806,-3.7195121951219514,7.987804878048781,140,2
1,0.5009765625,-0.56689453125,-0.31982421875,3.536585365853659,-2.439024390243903,7.195121951219513,140,2
2,0.6552734375,-0.5283203125,-0.30615234375,1.524390243902439,-1.1585365853658538,6.036585365853659,140,2
3,0.67041015625,-0.5107421875,-0.30517578125,15.487804878048783,-0.48780487804878053,5.2439024390243905,140,2
4,0.6552734375,-0.51611328125,-0.2998046875,-1.402439024390244,-0.06097560975609757,4.573170731707317,140,2
5,0.662109375,-0.51025390625,-0.28466796875,-2.7439024390243905,0.9756097560975611,4.329268292682928,140,2
6,0.66552734375,-0.4970703125,-0.26806640625,-3.536585365853659,1.0975609756097562,4.329268292682928,140,2
7,0.66845703125,-0.49951171875,-0.2587890625,-2.6219512195121952,0.6707317073170732,4.817073170731708,140,2
8,0.671875,-0.4814453125,-0.12890625,-0.9756097560975611,-0.24390243902439027,4.75609756097561,140,2
9,0.7021484375,-0.46484375,-0.244140625,1.2804878048780488,-1.524390243902439,4.51219512195122,140,2
10,0.69921875,-0.470703125,-0.2421875,5.182926829268293,-3.536585365853659,4.085365853658537,140,2
11,0.70849609375,-0.458984375,-0.22021484375,7.8048780487804885,-4.146341463414634,3.353658536585366,140,2
12,0.71728515625,-0.42578125,-0.21337890625,8.658536585365855,-3.963414634146342,2.439024390243903,140,2
13,0.7265625,-0.3994140625,-0.20703125,8.353658536585366,-2.25609756097561,1.3414634146341464,140,2
14,0.73974609375,-0.38671875,-0.185546875,6.951219512195123,-0.12195121951219513,0.06097560975609757,140,2
15,0.74853515625,-0.36962890625,-0.18701171875,5.853658536585367,1.829268292682927,-0.9756097560975611,140,2
16,0.7666015625,-0.39599609375,-0.21728515625,3.2926829268292686,3.7195121951219514,-1.8902439024390245,140,2
17,0.76611328125,-0.4111328125,-0.228515625,1.4634146341463417,4.51219512195122,-1.5853658536585367,140,2
18,0.7353515625,-0.474609375,-0.24755859375,0.5487804878048781,5.182926829268293,-1.2195121951219514,140,2
19,0.71826171875,-0.50634765625,-0.24169921875,0.24390243902439027,5.426829268292684,-1.402439024390244,140,2
20,0.70947265625,-0.51513671875,-0.2353515625,1.3414634146341464,5.2439024390243905,-2.0121951219512195,140,2
21,0.70166015625,-0.52099609375,-0.23046875,2.439024390243903,5.609756097560976,-2.9268292682926833,140,2
22,0.6865234375,-0.5283203125,-0.2451171875,3.048780487804878,6.158536585365854,-3.5975609756097566,140,2
23,0.69775390625,-0.5166015625,-0.24755859375,3.5975609756097566,6.463414634146342,-4.695121951219512,140,2
24,0.69677734375,-0.50732421875,-0.24169921875,4.085365853658537,6.707317073170732,-4.878048780487806,140,2
25,0.68115234375,-0.509765625,-0.2353515625,4.573170731707317,6.646341463414635,-5.182926829268293,140,2
26,0.67919921875,-0.52587890625,-0.2353515625,3.963414634146342,6.585365853658537,-5.0,140,2
27,0.671875,-0.54150390625,-0.2314453125,4.2682926829268295,6.219512195121951,-4.817073170731708,140,2
28,0.662109375,-0.5595703125,-0.2392578125,4.695121951219512,5.548780487804878,-4.207317073170732,140,2
29,0.65283203125,-0.57275390625,-0.25048828125,5.365853658536586,5.121951219512195,-3.8414634146341466,140,2
30,0.671875,-0.5771484375,-0.26171875,5.365853658536586,5.060975609756098,-3.536585365853659,140,2
31,0.67626953125,-0.5673828125,-0.2841796875,5.2439024390243905,4.817073170731708,-3.658536585365854,140,2
32,0.67626953125,-0.58544921875,-0.291015625,4.817073170731708,4.207317073170732,-3.231707317073171,140,2
33,0.6484375,-0.59765625,-0.28857421875,5.609756097560976,3.414634146341464,-3.1707317073170733,140,2
34,0.64599609375,-0.6005859375,-0.27587890625,5.853658536585367,3.5975609756097566,-2.6219512195121952,140,2
35,0.638671875,-0.6103515625,-0.27392578125,5.0,4.451219512195122,-2.5,140,2
36,0.61669921875,-0.603515625,-0.26806640625,4.085365853658537,5.426829268292684,-1.8902439024390245,140,2
37,0.6142578125,-0.60498046875,-0.25439453125,3.4756097560975614,5.975609756097562,-1.2195121951219514,140,2
38,0.603515625,-0.6181640625,-0.251953125,2.8658536585365857,6.829268292682928,-0.6707317073170732,140,2
39,0.60791015625,-0.5908203125,-0.26171875,2.073170731707317,8.597560975609756,0.12195121951219513,140,2
40,0.60546875,-0.58740234375,-0.25341796875,1.2195121951219514,10.24390243902439,0.5487804878048781,140,2
41,0.6142578125,-0.57470703125,-0.24365234375,1.5853658536585367,10.914634146341465,1.5853658536585367,140,2
42,0.61279296875,-0.564453125,-0.21533203125,2.3170731707317076,10.914634146341465,1.707317073170732,140,2
43,0.62158203125,-0.54248046875,-0.22509765625,3.8414634146341466,9.878048780487806,1.2195121951219514,140,2
44,0.62060546875,-0.5400390625,-0.2568359375,5.487804878048781,6.951219512195123,1.4634146341463417,140,2
45,0.62109375,-0.5400390625,-0.27099609375,9.26829268292683,3.658536585365854,0.7926829268292683,140,2
46,0.6435546875,-0.52734375,-0.26318359375,11.036585365853659,2.7439024390243905,0.1829268292682927,140,2
47,0.67578125,-0.50830078125,-0.26171875,11.52439024390244,2.378048780487805,-0.24390243902439027,140,2
48,0.6728515625,-0.52392578125,-0.2890625,11.219512195121952,1.707317073170732,-0.426829268292683,140,2
49,0.67236328125,-0.54638671875,-0.296875,10.487804878048781,2.073170731707317,-0.426829268292683,140,2
50,0.68896484375,-0.52734375,-0.2646484375,9.207317073170733,3.4756097560975614,0.0,140,2
51,0.6826171875,-0.5390625,-0.22802734375,9.573170731707318,3.963414634146342,0.24390243902439027,140,2
52,0.6708984375,-0.55322265625,-0.2236328125,10.426829268292684,4.329268292682928,0.9146341463414634,140,2
53,0.6708984375,-0.546875,-0.2275390625,10.975609756097562,5.426829268292684,1.0975609756097562,140,2
54,0.67431640625,-0.54345703125,-0.18408203125,10.121951219512196,6.707317073170732,1.707317073170732,140,2
55,0.66943359375,-0.55322265625,-0.17431640625,10.731707317073171,6.829268292682928,2.073170731707317,140,2
56,0.66552734375,-0.55224609375,-0.17333984375,11.585365853658537,6.646341463414635,1.6463414634146343,140,2
57,0.68603515625,-0.533203125,-0.216796875,11.463414634146343,7.560975609756098,1.707317073170732,140,2
58,0.69140625,-0.52978515625,-0.21728515625,10.121951219512196,8.231707317073171,1.524390243902439,140,2
59,0.67578125,-0.55029296875,-0.2021484375,9.085365853658537,9.146341463414634,1.0365853658536586,140,2
60,0.689453125,-0.55078125,-0.203125,7.378048780487806,10.670731707317074,0.24390243902439027,140,2
61,0.6884765625,-0.55029296875,-0.193359375,6.402439024390245,11.219512195121952,-0.1829268292682927,140,2
62,0.67431640625,-0.57861328125,-0.18701171875,7.378048780487806,10.548780487804878,-0.426829268292683,140,2
63,0.66357421875,-0.58154296875,-0.1748046875,8.719512195121952,9.390243902439025,-0.30487804878048785,140,2
64,0.658203125,-0.58251953125,-0.18603515625,10.853658536585368,8.597560975609756,-0.7926829268292683,140,2
65,0.681640625,-0.5732421875,-0.17919921875,12.378048780487806,8.414634146341465,-0.6097560975609757,140,2
66,0.681640625,-0.56640625,-0.17578125,12.987804878048781,9.451219512195122,-0.7317073170731708,140,2
67,0.6884765625,-0.55908203125,-0.16455078125,12.378048780487806,11.341463414634147,-0.7317073170731708,140,2
68,0.69482421875,-0.54638671875,-0.15576171875,11.890243902439025,12.500000000000002,-0.853658536585366,140,2
69,0.69091796875,-0.54345703125,-0.1533203125,12.256097560975611,13.353658536585368,-0.6707317073170732,140,2
70,0.71240234375,-0.51953125,-0.1298828125,12.682926829268293,14.634146341463415,-1.7682926829268295,140,2
71,0.74951171875,-0.49169921875,-0.1123046875,12.621951219512196,15.365853658536587,-2.682926829268293,140,2
72,0.7529296875,-0.4873046875,-0.1337890625,12.74390243902439,15.243902439024392,-3.1707317073170733,140,2
73,0.716796875,-0.51220703125,-0.1591796875,11.646341463414634,14.817073170731708,-2.9268292682926833,140,2
74,0.68017578125,-0.525390625,-0.17333984375,11.219512195121952,14.939024390243905,-2.3170731707317076,140,2
75,0.6630859375,-0.55322265625,-0.1669921875,12.195121951219512,14.51219512195122,-1.6463414634146343,140,2
76,0.65478515625,-0.58203125,-0.15283203125,14.146341463414636,0.0,-0.9756097560975611,140,2
77,0.638671875,-0.6015625,-0.11962890625,15.121951219512196,18.597560975609756,-0.426829268292683,140,2
78,0.62451171875,-0.59228515625,-0.13818359375,15.975609756097562,17.804878048780488,-1.8902439024390245,140,2
79,0.611328125,-0.576171875,-0.16064453125,18.29268292682927,18.29268292682927,-1.829268292682927,140,2
80,0.6376953125,-0.58642578125,-0.130859375,17.865853658536587,22.073170731707318,-0.3658536585365854,140,2
81,0.6162109375,-0.62255859375,-0.044921875,15.000000000000002,29.939024390243905,0.9146341463414634,140,2
82,0.623046875,-0.6337890625,-0.01513671875,10.792682926829269,34.63414634146342,1.524390243902439,140,2
83,0.6298828125,-0.59375,-0.06884765625,9.451219512195122,36.34146341463415,2.3170731707317076,140,2
84,0.64404296875,-0.57177734375,-0.0849609375,9.51219512195122,37.01219512195122,2.439024390243903,140,2
85,0.67431640625,-0.56298828125,-0.1015625,9.451219512195122,38.84146341463415,1.4634146341463417,140,2
86,0.685546875,-0.55517578125,-0.09912109375,8.231707317073171,40.304878048780495,0.6097560975609757,140,2
87,0.701171875,-0.54638671875,-0.12744140625,7.682926829268293,41.21951219512196,-0.24390243902439027,140,2
88,0.71337890625,-0.52783203125,-0.15869140625,5.670731707317073,43.23170731707317,-0.9756097560975611,140,2
89,0.71875,-0.490234375,-0.16943359375,2.5609756097560976,45.97560975609756,-1.7682926829268295,140,2
90,0.72802734375,-0.4755859375,-0.1962890625,-3.7195121951219514,48.47560975609756,-2.987804878048781,140,2
91,0.6279296875,-0.439453125,-0.26220703125,-10.24390243902439,51.89024390243903,-2.9268292682926833,140,2
92,0.7900390625,-0.40576171875,-0.2451171875,-17.31707317073171,56.34146341463415,-2.1951219512195124,140,2
93,0.80126953125,-0.3994140625,-0.18212890625,-25.121951219512198,61.524390243902445,-1.4634146341463417,140,2
94,0.779296875,-0.4404296875,-0.12939453125,-29.451219512195124,65.1219512195122,-0.7317073170731708,140,2
95,0.72412109375,-0.486328125,-0.119140625,-30.000000000000004,65.42682926829269,-15.54878048780488,140,2
96,0.68212890625,-0.5283203125,-0.13720703125,-27.80487804878049,63.78048780487806,1.3414634146341464,140,2
97,0.6845703125,-0.5166015625,-0.1533203125,-22.98780487804878,58.23170731707317,2.8658536585365857,140,2
98,0.67138671875,-0.51513671875,-0.236328125,-22.31707317073171,53.29268292682927,3.7195121951219514,140,2
99,0.68896484375,-0.4384765625,-0.32177734375,-23.10975609756098,50.426829268292686,4.146341463414634,140,2
100,0.7119140625,-0.39404296875,-0.36865234375,-26.89024390243903,48.65853658536586,2.682926829268293,140,2
101,0.74609375,-0.35107421875,-0.380859375,-32.5,49.81707317073171,1.0975609756097562,140,2
102,0.77197265625,-0.33984375,-0.38330078125,-39.08536585365854,52.19512195121952,-1.0365853658536586,140,2
103,0.77099609375,-0.34228515625,-0.39306640625,-45.73170731707317,52.5609756097561,-2.8658536585365857,140,2
104,0.7275390625,-0.36328125,-0.498046875,-49.87804878048781,50.79268292682927,-3.1707317073170733,140,2
105,0.693359375,-0.3876953125,-0.33056640625,-50.487804878048784,48.29268292682927,-1.8902439024390245,140,2
106,0.6611328125,-0.408203125,-0.287109375,-48.963414634146346,43.71951219512196,-1.524390243902439,140,2
107,0.66552734375,-0.37939453125,-0.28466796875,-44.57317073170732,37.926829268292686,-1.524390243902439,140,2
108,0.66015625,-0.3466796875,-0.3203125,-41.21951219512196,33.170731707317074,-2.0121951219512195,140,2
109,0.673828125,-0.3076171875,-0.3544921875,-40.73170731707317,29.939024390243905,-3.414634146341464,140,2
110,0.720703125,-0.24755859375,-0.396484375,-41.951219512195124,27.378048780487806,-5.548780487804878,140,2
111,0.7392578125,-0.23095703125,-0.421875,-45.487804878048784,26.34146341463415,-7.865853658536586,140,2
112,0.734375,-0.2294921875,-0.4169921875,-50.487804878048784,27.5609756097561,-9.329268292682928,140,2
113,0.73876953125,-0.2333984375,-0.39453125,-55.304878048780495,28.04878048780488,-11.341463414634147,140,2
114,0.74072265625,-0.2314453125,-0.3896484375,-61.28048780487806,27.80487804878049,-13.231707317073171,140,2
115,0.7216796875,-0.24267578125,-0.4091796875,-65.79268292682927,27.25609756097561,-14.207317073170733,140,2
116,0.71240234375,-0.2470703125,-0.39111328125,-67.25609756097562,24.75609756097561,-15.853658536585368,140,2
117,0.7099609375,-0.2568359375,-0.3798828125,-66.64634146341464,22.012195121951223,-17.25609756097561,140,2
118,0.705078125,-0.27734375,-0.40625,-64.9390243902439,18.53658536585366,-18.231707317073173,140,2
119,0.70068359375,-0.24169921875,-0.43701171875,-64.14634146341464,31.158536585365855,-20.243902439024392,140,2
120,0.7255859375,-0.22998046875,-0.43896484375,-67.07317073170732,0.06097560975609757,-22.134146341463417,140,2
121,0.76220703125,-0.2197265625,-0.431640625,-71.89024390243902,17.682926829268293,-23.658536585365855,140,2
122,0.755859375,-0.2314453125,-0.4384765625,-77.92682926829269,18.963414634146343,-26.402439024390247,140,2
123,0.87109375,-0.23876953125,-0.42333984375,-83.04878048780489,19.573170731707318,-28.231707317073173,140,2
124,0.7548828125,-0.232421875,-0.43603515625,-88.35365853658537,20.731707317073173,-30.30487804878049,140,2
125,0.76708984375,-0.21435546875,-0.40185546875,-93.65853658536587,22.25609756097561,-32.5609756097561,140,2
126,0.76123046875,-0.2353515625,-0.4951171875,-97.5609756097561,22.865853658536587,-34.268292682926834,140,2
127,0.77587890625,-0.2578125,-0.38232421875,-100.91463414634147,22.926829268292686,-36.28048780487805,140,2
128,0.78759765625,-0.2392578125,-0.39501953125,-103.17073170731709,22.012195121951223,-38.65853658536586,140,2
129,0.7919921875,-0.1298828125,-0.40283203125,-106.21951219512196,22.500000000000004,-40.487804878048784,140,2
130,0.791015625,-0.2666015625,-0.43115234375,-108.23170731707317,22.743902439024392,-42.6829268292683,140,2
131,0.80712890625,-0.2744140625,-0.43017578125,-110.85365853658537,22.621951219512198,-45.0609756097561,140,2
132,0.810546875,-0.263671875,-0.435546875,-114.75609756097562,23.84146341463415,-47.86585365853659,140,2
133,0.833984375,-0.375,-0.42041015625,-120.85365853658537,25.731707317073173,-50.1219512195122,140,2
134,0.8359375,-0.24755859375,-0.4111328125,-126.76829268292684,28.10975609756098,-52.804878048780495,140,2
135,0.83203125,-0.2529296875,-0.39599609375,-131.58536585365854,29.08536585365854,-54.81707317073171,140,2
136,0.82861328125,-0.2529296875,-0.4091796875,-135.91463414634148,28.780487804878053,-56.768292682926834,140,2
137,0.83984375,-0.2265625,-0.431640625,-138.71951219512195,27.743902439024392,-58.84146341463415,140,2
138,0.8701171875,-0.21484375,-0.4677734375,-142.9878048780488,28.04878048780488,-61.89024390243903,140,2
139,0.892578125,-0.189453125,-0.48388671875,-148.65853658536588,29.451219512195124,-65.1219512195122,140,2
140,0.90576171875,-0.19775390625,-0.49267578125,-153.53658536585368,30.426829268292686,-68.59756097560977,140,2
141,0.9296875,-0.18994140625,-0.5126953125,-157.5,32.13414634146342,-72.37804878048782,140,2
142,0.9443359375,-0.19482421875,-0.376953125,-162.37804878048783,34.57317073170732,-75.0609756097561,140,2
143,0.95849609375,-0.1962890625,-0.48681640625,-165.4268292682927,36.15853658536586,-77.19512195121952,140,2
144,0.96484375,-0.19384765625,-0.45849609375,-167.8048780487805,37.6829268292683,-78.65853658536587,140,2
145,0.990234375,-0.1767578125,-0.49658203125,-170.2439024390244,37.5609756097561,-81.95121951219512,140,2
146,1.0205078125,-0.12060546875,-0.49951171875,-172.8658536585366,37.80487804878049,-85.3658536585366,140,2
147,1.03369140625,-0.12255859375,-0.5078125,-177.01219512195124,39.81707317073171,-89.63414634146342,140,2
148,1.052734375,-0.00146484375,-0.51220703125,-180.609756097561,41.890243902439025,-93.41463414634147,140,2
149,1.091796875,-0.099609375,-0.52978515625,-182.8048780487805,41.82926829268293,-97.8658536585366,140,2
150,1.1376953125,-0.04541015625,-0.5732421875,-185.91463414634148,42.743902439024396,-103.84146341463415,140,2
151,1.1826171875,-0.02001953125,-0.57470703125,-191.09756097560978,45.54878048780488,-109.26829268292684,140,2
152,1.22119140625,-0.02978515625,-0.5390625,-196.09756097560978,48.65853658536586,-114.75609756097562,140,2
153,1.21435546875,-0.05810546875,-0.5146484375,-198.96341463414635,50.243902439024396,-120.1829268292683,140,2
154,1.21337890625,-0.05322265625,-0.5107421875,-198.90243902439025,50.54878048780488,-123.53658536585367,140,2
155,1.19189453125,-0.05224609375,-0.48779296875,-196.34146341463418,49.085365853658544,-127.19512195121952,140,2
156,1.21435546875,-0.0576171875,-0.4736328125,-192.25609756097563,46.82926829268293,-131.34146341463415,140,2
157,1.24267578125,-0.0458984375,-0.3876953125,-187.43902439024393,41.58536585365854,-135.3658536585366,140,2
158,1.234375,-0.02099609375,-0.58056640625,-184.02439024390245,37.37804878048781,-139.20731707317074,140,2
159,1.27734375,0.07275390625,-0.57421875,-180.85365853658539,35.36585365853659,-143.59756097560978,140,2
160,1.35546875,0.1328125,-0.61572265625,-182.56097560975613,36.40243902439025,-148.96341463414635,140,2
161,1.41943359375,0.16552734375,-0.50048828125,-171.82926829268294,39.207317073170735,-155.3048780487805,140,2
162,1.4453125,0.19873046875,-0.74169921875,-192.6829268292683,40.91463414634147,-161.70731707317074,140,2
163,1.4443359375,0.2236328125,-0.56787109375,-197.62195121951223,45.243902439024396,-167.9268292682927,140,2
164,1.42822265625,0.15380859375,-0.49951171875,-199.81707317073173,48.23170731707317,-156.21951219512198,140,2
165,1.44482421875,0.126953125,-0.44384765625,-196.58536585365854,48.23170731707317,-175.0609756097561,140,2
166,1.45703125,0.115234375,-0.43603515625,-189.57317073170734,44.81707317073171,-178.53658536585368,140,2
167,1.51416015625,0.146484375,-0.48779296875,-181.89024390243904,42.25609756097561,-182.25609756097563,140,2
168,1.57958984375,0.21875,-0.494140625,-180.1829268292683,43.47560975609756,-186.58536585365854,140,2
169,1.626953125,0.23681640625,-0.482421875,-182.25609756097563,46.21951219512196,-190.7926829268293,140,2
170,1.630859375,0.22412109375,-0.53857421875,-187.7439024390244,49.39024390243903,-194.93902439024393,140,2
171,1.65673828125,0.27099609375,-0.5419921875,-192.50000000000003,51.15853658536586,-200.4268292682927,140,2
172,1.65966796875,0.26318359375,-0.62255859375,-194.69512195121953,52.19512195121952,-205.6707317073171,140,2
173,1.68212890625,0.2236328125,-0.4560546875,-193.90243902439025,51.28048780487806,-210.97560975609758,140,2
174,1.6875,0.130859375,-0.37158203125,-189.87804878048783,49.87804878048781,-216.64634146341464,140,2
175,1.6962890625,0.2373046875,-0.326171875,-185.2439024390244,48.35365853658537,-220.4268292682927,140,2
176,1.71533203125,0.2431640625,-0.2744140625,-181.95121951219514,49.39024390243903,-224.93902439024393,140,2
177,1.74755859375,0.24365234375,-0.28564453125,-178.84146341463415,50.00000000000001,-229.75609756097563,140,2
178,1.75390625,0.259765625,-0.28466796875,-175.00000000000003,52.07317073170732,-235.91463414634148,140,2
179,1.77099609375,0.23095703125,-0.337890625,-174.32926829268294,55.85365853658537,-239.69512195121953,140,2
180,1.7294921875,0.24755859375,-0.31689453125,-173.96341463414635,59.32926829268293,-243.65853658536588,140,2
181,1.68310546875,0.26318359375,-0.30322265625,-170.3658536585366,60.00000000000001,-247.8658536585366,140,2
182,1.62548828125,0.23583984375,-0.298828125,-164.93902439024393,61.768292682926834,-250.5487804878049,140,2
183,1.5810546875,0.2255859375,-0.2587890625,-159.75609756097563,63.65853658536586,-252.9268292682927,140,2
184,1.515625,0.2001953125,-0.26904296875,-155.3048780487805,64.87804878048782,-254.26829268292684,140,2
185,1.4541015625,0.1748046875,-0.18896484375,-148.35365853658539,65.0,-254.32926829268294,140,2
186,1.423828125,0.216796875,-0.1484375,-140.609756097561,63.41463414634147,-255.18292682926833,140,2
187,1.42333984375,0.2392578125,-0.10009765625,-134.75609756097563,63.23170731707317,-256.6463414634147,140,2
188,1.39892578125,0.20947265625,-0.08642578125,-129.20731707317074,63.29268292682927,-259.0853658536586,140,2
189,1.38818359375,0.2138671875,-0.04296875,-121.40243902439025,61.707317073170735,-261.3414634146342,140,2
190,1.36865234375,0.23193359375,0.025390625,-115.67073170731709,61.585365853658544,-264.0243902439025,140,2
191,1.341796875,0.20263671875,0.01513671875,-112.01219512195122,60.73170731707317,-265.3048780487805,140,2
192,1.283203125,0.1806640625,0.021484375,-107.8048780487805,59.87804878048781,-266.95121951219517,140,2
193,1.20263671875,0.142578125,0.00732421875,-104.87804878048782,59.87804878048781,-265.8536585365854,140,2
194,1.13330078125,0.11083984375,0.0791015625,-104.02439024390245,61.40243902439025,-263.2317073170732,140,2
195,1.06689453125,0.0654296875,0.09130859375,-102.31707317073172,61.768292682926834,-259.0243902439025,140,2
196,0.990234375,0.068359375,0.009765625,-98.53658536585367,61.89024390243903,-254.51219512195124,140,2
197,0.9140625,0.05126953125,0.16796875,-95.79268292682927,61.585365853658544,-250.7317073170732,140,2
198,0.8447265625,0.04345703125,0.17236328125,-93.65853658536587,61.95121951219513,-247.68292682926833,140,2
199,0.79345703125,0.02197265625,0.201171875,-92.98780487804879,64.45121951219512,-246.03658536585368,140,2
200,0.7421875,0.00048828125,0.19677734375,-92.50000000000001,66.95121951219512,-244.51219512195124,140,2
201,0.67431640625,-0.02001953125,0.2373046875,-90.1829268292683,66.76829268292684,-242.50000000000003,140,2
202,0.6259765625,-0.0390625,0.21875,-88.53658536585367,66.03658536585367,-240.00000000000003,140,2
203,0.5625,-0.0546875,0.21728515625,-87.50000000000001,68.10975609756098,-240.18292682926833,140,2
204,0.53955078125,-0.04638671875,0.205078125,-88.41463414634147,69.87804878048782,-239.32926829268294,140,2
205,0.53515625,-0.08251953125,0.1728515625,-88.59756097560977,72.37804878048782,-235.91463414634148,140,2
206,0.49169921875,-0.14208984375,0.1474609375,-86.89024390243904,74.57317073170732,-249.63414634146343,140,2
207,0.478515625,-0.23876953125,0.142578125,-80.85365853658537,71.95121951219512,-229.69512195121953,140,2
208,0.40771484375,-0.25634765625,0.12060546875,-69.02439024390245,63.35365853658537,-223.59756097560978,140,2
209,0.33056640625,-0.4951171875,0.13232421875,-50.1829268292683,55.00000000000001,-216.89024390243904,140,2
210,0.25830078125,-0.5283203125,0.1513671875,-33.78048780487805,44.207317073170735,-207.31707317073173,140,2
211,0.19970703125,-0.5166015625,0.142578125,-21.402439024390247,37.25609756097561,-197.13414634146343,140,2
212,0.15234375,-0.51513671875,0.244140625,-12.378048780487806,35.0609756097561,-189.81707317073173,140,2
213,0.244140625,-0.53271484375,0.23583984375,-11.28048780487805,37.19512195121951,-179.75609756097563,140,2
214,0.005859375,-0.60546875,0.22314453125,-0.30487804878048785,39.93902439024391,-168.59756097560978,140,2
215,-0.13232421875,-0.69873046875,0.24560546875,-20.975609756097562,42.37804878048781,-157.13414634146343,140,2
216,-0.2587890625,-0.72900390625,0.2978515625,-25.0609756097561,44.51219512195122,-145.4268292682927,140,2
217,-0.3505859375,-0.767578125,0.3642578125,-29.573170731707318,46.28048780487805,-133.53658536585368,140,2
218,-0.4462890625,-0.85107421875,0.4658203125,-28.292682926829272,45.426829268292686,-120.3658536585366,140,2
219,-0.54736328125,-0.97705078125,0.53955078125,-22.25609756097561,43.65853658536586,-106.95121951219514,140,2
220,-0.63720703125,-1.05859375,0.58935546875,-15.060975609756099,39.32926829268293,-90.91463414634147,140,2
221,-0.732421875,-1.09033203125,0.60302734375,-11.76829268292683,38.78048780487805,-74.51219512195122,140,2
222,-0.7939453125,-1.158203125,0.51171875,-11.341463414634147,40.60975609756098,-56.646341463414636,140,2
223,-0.8291015625,-1.25341796875,0.6201171875,-8.841463414634147,42.01219512195122,-37.5,140,2
224,-0.9013671875,-1.3642578125,0.61083984375,-4.939024390243903,43.170731707317074,-16.951219512195124,140,2
225,-0.97021484375,-1.4873046875,0.73583984375,-2.1951219512195124,46.15853658536586,6.951219512195123,140,2
226,-0.9580078125,-1.58447265625,0.5693359375,0.5487804878048781,45.79268292682927,15.731707317073171,140,2
227,-1.00634765625,-1.65234375,0.5693359375,6.402439024390245,46.524390243902445,55.1219512195122,140,2
228,-0.8759765625,-1.673828125,0.53955078125,13.902439024390246,61.89024390243903,75.2439024390244,140,2
229,-0.8173828125,-1.65185546875,0.56494140625,0.06097560975609757,44.57317073170732,78.04878048780489,140,2
230,-0.673828125,-1.68994140625,0.54541015625,19.32926829268293,43.29268292682927,113.84146341463416,140,2
231,-0.5322265625,-1.72802734375,0.4140625,22.378048780487806,40.79268292682927,132.19512195121953,140,2
232,-0.47119140625,-1.78173828125,0.29296875,29.02439024390244,36.524390243902445,151.76829268292684,140,2
233,-0.49755859375,-1.88037109375,0.25634765625,40.97560975609756,31.646341463414636,156.76829268292684,140,2
234,-0.2451171875,-1.98193359375,0.2021484375,52.804878048780495,26.28048780487805,194.57317073170734,140,2
235,-0.15185546875,-2.05224609375,0.15869140625,47.50000000000001,21.219512195121954,205.06097560975613,140,2
236,-0.08203125,-2.146484375,0.0634765625,69.08536585365854,17.865853658536587,249.20731707317074,140,2
237,-0.0107421875,-2.2412109375,-0.0078125,70.0,15.914634146341465,278.7804878048781,140,2
238,0.00341796875,-2.3720703125,-0.09765625,71.28048780487805,13.475609756097562,308.4756097560976,140,2
239,0.2802734375,-2.5146484375,-0.11474609375,75.85365853658537,11.52439024390244,337.19512195121956,140,2
240,0.48779296875,-2.67578125,-0.19580078125,80.91463414634147,6.2804878048780495,365.8536585365854,140,2
241,0.666015625,-2.8330078125,-0.259765625,91.15853658536587,0.7317073170731708,396.4024390243903,140,2
242,0.85498046875,-2.9755859375,-0.3037109375,103.65853658536587,-6.341463414634147,426.5853658536586,140,2
243,1.00048828125,-3.0986328125,-0.4052734375,113.90243902439025,-13.29268292682927,458.2926829268293,140,2
244,1.46240234375,-3.27783203125,-0.6044921875,119.69512195121952,-24.32926829268293,495.00000000000006,140,2
245,1.669921875,-3.55322265625,-0.83837890625,129.75609756097563,-38.47560975609756,527.9878048780488,140,2
246,2.1982421875,-3.783203125,-1.00048828125,141.40243902439025,-59.39024390243903,560.609756097561,140,2
247,2.6396484375,-3.97265625,-1.5,194.32926829268294,-87.01219512195122,596.9512195121952,140,2
248,3.4873046875,-4.13525390625,-1.93701171875,242.43902439024393,-105.97560975609757,628.2317073170732,140,2
249,4.0703125,-4.33203125,-2.09521484375,311.82926829268297,-116.89024390243904,649.6951219512196,140,2
250,4.71630859375,-4.53271484375,-2.076171875,377.68292682926835,-120.42682926829269,665.6707317073171,140,2
251,5.43994140625,-4.68603515625,-2.166015625,457.01219512195127,-118.47560975609757,682.9878048780488,140,2
252,6.18701171875,-4.70849609375,-2.5205078125,541.219512195122,-95.97560975609757,710.4268292682927,140,2
253,7.42138671875,-4.71533203125,-3.2646484375,560.3658536585366,-82.8048780487805,735.6707317073171,140,2
254,8.345703125,-4.53271484375,-4.0234375,576.5243902439025,-54.268292682926834,766.8902439024391,140,2
255,9.4423828125,-3.95458984375,-4.35888671875,594.4512195121952,-51.768292682926834,826.5243902439025,140,2
256,9.9541015625,-3.1083984375,-4.61669921875,638.5365853658537,-76.21951219512196,844.0243902439025,140,2
257,10.017578125,-2.28515625,-5.03564453125,637.8048780487806,-100.79268292682927,873.7804878048781,140,2
258,10.037109375,-1.5869140625,-5.57763671875,692.5000000000001,-125.73170731707319,880.2439024390245,140,2
259,9.46728515625,-1.1328125,-6.015625,753.4756097560976,-205.3048780487805,853.5975609756098,140,2
260,8.26318359375,-1.85009765625,-5.88671875,847.6219512195123,-307.19512195121956,783.4146341463415,140,2
261,6.96044921875,-2.375,-5.67333984375,979.8780487804879,-381.5853658536586,691.829268292683,140,2
262,6.52197265625,-2.61669921875,-6.14208984375,1110.1829268292684,-537.0121951219513,593.1707317073171,140,2
263,5.9189453125,-3.48095703125,-7.27880859375,1296.158536585366,-731.9512195121952,422.07317073170736,140,2
264,6.455078125,-4.6875,-10.875,1024.5121951219512,-490.48780487804885,204.08536585365854,140,2
265,15.99951171875,3.91748046875,5.02001953125,390.7317073170732,-229.81707317073173,175.4268292682927,140,2
266,-12.1259765625,5.05810546875,6.3095703125,1736.2804878048782,-938.9634146341464,-171.34146341463415,140,2
267,3.08935546875,1.11181640625,-15.9111328125,1287.378048780488,-337.8658536585366,-139.08536585365854,140,2
268,13.18310546875,4.7783203125,2.7841796875,694.6951219512196,-168.71951219512198,-155.1219512195122,140,2
269,-2.4150390625,-4.08154296875,0.703125,1032.2560975609756,80.1829268292683,-222.07317073170734,140,2
270,4.0498046875,3.05859375,4.87353515625,939.5121951219513,-240.3048780487805,-409.93902439024396,140,2
271,4.29736328125,-0.83349609375,-1.62646484375,828.4146341463415,-164.45121951219514,-431.76829268292687,140,2
272,4.51904296875,-1.42236328125,-0.8017578125,775.2439024390245,-128.2926829268293,-486.5243902439025,140,2
273,4.30224609375,-2.6064453125,-0.1630859375,694.4512195121952,-202.9268292682927,-605.609756097561,140,2
274,3.20361328125,-4.03759765625,-1.59326171875,603.719512195122,-209.93902439024393,-653.9024390243903,140,2
275,2.9658203125,-3.048828125,-1.84619140625,479.20731707317077,-142.4390243902439,-673.8414634146342,140,2
276,2.44775390625,-3.5390625,-1.79150390625,360.1829268292683,-94.26829268292684,-692.439024390244,140,2
277,1.98876953125,-3.19091796875,-1.98046875,290.1219512195122,-32.5,-697.8048780487806,140,2
278,1.7802734375,-3.09228515625,-1.3857421875,214.02439024390245,23.59756097560976,-695.0609756097562,140,2
279,1.5185546875,-2.95263671875,-1.25,160.609756097561,89.39024390243904,-685.3658536585366,140,2
280,1.5947265625,-2.71875,-1.0888671875,138.53658536585368,134.69512195121953,-678.9024390243903,140,2
281,1.705078125,-2.2509765625,-1.28857421875,82.01219512195122,156.46341463414635,-664.0853658536586,140,2
282,2.16357421875,-1.876953125,-1.58984375,39.024390243902445,197.01219512195124,-633.5365853658537,140,2
283,1.9638671875,-1.72607421875,-1.513671875,7.682926829268293,208.59756097560978,-601.0975609756098,140,2
284,1.873046875,-1.55810546875,-1.17822265625,-41.34146341463415,232.74390243902442,-574.3902439024391,140,2
285,1.36572265625,-1.50830078125,-0.75244140625,-93.47560975609757,260.0609756097561,-515.609756097561,140,2
286,0.74267578125,-1.4638671875,-0.63232421875,-136.52439024390245,275.7926829268293,-480.7926829268293,140,2
287,0.5458984375,-1.20654296875,-0.65625,-159.51219512195124,289.51219512195127,-468.2926829268293,140,2
288,0.48095703125,-0.9677734375,-0.4609375,-157.13414634146343,305.8536585365854,-427.74390243902445,140,2
289,0.39306640625,-0.91259765625,-0.4931640625,-183.59756097560978,310.9756097560976,-411.0975609756098,140,2
290,0.576171875,-0.89697265625,-0.53857421875,-177.01219512195124,313.5365853658537,-392.31707317073176,140,2
291,0.6962890625,-0.83251953125,-0.75927734375,-173.109756097561,308.7804878048781,-375.9146341463415,140,2
292,1.02001953125,-0.6376953125,-1.08154296875,-153.78048780487805,293.5365853658537,-362.01219512195127,140,2
293,0.79638671875,-0.7626953125,-1.19921875,-134.14634146341464,277.5609756097561,-341.6463414634147,140,2
294,0.76318359375,-0.634765625,-1.0888671875,-124.14634146341464,276.3414634146342,-319.20731707317077,140,2
295,0.392578125,-0.73974609375,-0.9384765625,-133.2317073170732,276.4024390243903,-301.5853658536586,140,2
296,0.32958984375,-0.50390625,-0.84375,-149.32926829268294,285.4878048780488,-288.4756097560976,140,2
297,0.142578125,-0.41845703125,-0.826171875,-156.70731707317074,282.6829268292683,-274.0243902439025,140,2
298,0.126953125,-0.26806640625,-0.63623046875,-184.51219512195124,294.32926829268297,-259.0853658536586,140,2
299,0.4990234375,-0.2255859375,-0.69921875,-187.56097560975613,292.8048780487805,-245.12195121951223,140,2
300,0.369140625,-0.27685546875,-0.86669921875,-193.78048780487808,279.0853658536586,-227.9878048780488,140,2
301,0.30419921875,-0.2880859375,-0.865234375,-187.50000000000003,262.19512195121956,-207.31707317073173,140,2
302,0.04296875,-0.337890625,-0.84326171875,-178.35365853658539,248.53658536585368,-183.71951219512198,140,2
303,-0.1767578125,-0.43310546875,-0.671875,-172.19512195121953,241.09756097560978,-162.6219512195122,140,2
304,-0.5263671875,-0.408203125,-0.41943359375,-162.6219512195122,249.45121951219514,-143.90243902439025,140,2
305,-0.810546875,-0.31640625,-0.21240234375,-151.89024390243904,223.96341463414637,-129.75609756097563,140,2
306,-0.81494140625,-0.21923828125,-0.1953125,-141.70731707317074,211.52439024390245,-115.3048780487805,140,2
307,-0.6484375,-0.07373046875,-0.248046875,-134.81707317073173,200.4268292682927,-107.8658536585366,140,2
308,-0.38671875,0.05908203125,-0.251953125,-135.85365853658539,191.64634146341464,-100.42682926829269,140,2
309,-0.271484375,0.1611328125,-0.22705078125,-142.07317073170734,184.20731707317074,-108.35365853658537,140,2
310,-0.30078125,0.17138671875,-0.13134765625,-147.13414634146343,175.97560975609758,-82.13414634146342,140,2
311,-0.48681640625,0.11767578125,-0.318359375,-149.08536585365854,169.39024390243904,-73.29268292682927,140,2
312,-0.59228515625,0.048828125,-0.38916015625,-149.69512195121953,165.00000000000003,-66.95121951219512,140,2
313,-0.50439453125,0.00537109375,-0.33544921875,-137.6219512195122,158.2317073170732,-60.67073170731708,140,2
314,-0.74755859375,0.1474609375,-0.26025390625,-126.09756097560977,149.69512195121953,-55.00000000000001,140,2
315,-0.78759765625,0.1689453125,-0.18603515625,-113.71951219512196,141.64634146341464,-54.085365853658544,140,2
316,-0.8701171875,0.228515625,-0.16943359375,-102.37804878048782,128.53658536585368,-53.65853658536586,140,2
317,-0.71826171875,0.27783203125,-0.20703125,-108.84146341463416,119.08536585365854,-51.09756097560976,140,2
318,-0.71533203125,0.263671875,-0.1865234375,-86.52439024390245,110.73170731707319,-45.1219512195122,140,2
319,-0.83349609375,0.2138671875,-0.15771484375,-87.07317073170732,105.67073170731709,-39.024390243902445,140,2
320,-0.93115234375,0.13330078125,-0.20458984375,-88.04878048780489,101.28048780487806,-34.75609756097561,140,2
321,-0.96435546875,0.07958984375,-0.21630859375,-83.71951219512196,95.00000000000001,-30.54878048780488,140,2
322,-0.96533203125,0.05859375,-0.201171875,-72.98780487804879,86.46341463414635,-28.04878048780488,140,2
323,-0.96728515625,0.0478515625,-0.16357421875,-69.32926829268293,84.69512195121952,-24.75609756097561,140,2
324,-0.990234375,0.06005859375,-0.154296875,-66.46341463414635,81.58536585365854,-22.073170731707318,140,2
325,-0.97802734375,0.0927734375,-0.1728515625,-64.20731707317074,75.0609756097561,-20.30487804878049,140,2
326,-0.9609375,0.13232421875,-0.212890625,-59.085365853658544,66.46341463414635,-16.76829268292683,140,2
327,-0.9677734375,0.134765625,-0.18505859375,-55.1829268292683,59.085365853658544,-12.80487804878049,140,2
328,-0.998046875,0.15478515625,-0.17529296875,-55.97560975609757,52.31707317073171,-8.475609756097562,140,2
329,-1.00439453125,0.1865234375,-0.1962890625,-57.31707317073171,45.85365853658537,-2.1951219512195124,140,2
330,-1.03466796875,0.154296875,-0.20849609375,-56.646341463414636,37.987804878048784,3.536585365853659,140,2
331,-1.0751953125,0.10888671875,-0.185546875,-52.37804878048781,28.658536585365855,8.170731707317074,140,2
332,-1.09765625,0.099609375,-0.1357421875,-45.97560975609756,20.731707317073173,12.500000000000002,140,2
333,-1.09521484375,0.11376953125,-0.099609375,-38.10975609756098,14.817073170731708,0.12195121951219513,140,2
334,-1.10205078125,0.12548828125,-0.0810546875,-33.59756097560976,7.987804878048781,19.81707317073171,140,2
335,-1.12255859375,0.154296875,-0.09423828125,-29.695121951219516,2.7439024390243905,23.231707317073173,140,2
336,-1.1015625,0.18603515625,-0.0751953125,-23.170731707317074,-7.926829268292684,24.32926829268293,140,2
337,-1.091796875,0.1923828125,-0.07177734375,-16.951219512195124,-0.48780487804878053,25.60975609756098,140,2
338,-1.052734375,0.23779296875,-0.03662109375,-13.414634146341465,-21.28048780487805,25.914634146341466,140,2
339,-1.0185546875,0.24072265625,0.0234375,-12.865853658536587,-26.646341463414636,25.30487804878049,140,2
340,-0.97265625,0.3125,0.01513671875,-13.841463414634148,-30.000000000000004,25.54878048780488,140,2
341,-0.9609375,0.31298828125,0.02099609375,-15.731707317073171,-33.04878048780488,25.731707317073173,140,2
342,-0.966796875,0.333984375,0.00927734375,-13.963414634146343,-38.84146341463415,25.670731707317074,140,2
343,-0.95458984375,0.3349609375,0.03857421875,-9.390243902439025,-44.51219512195122,25.30487804878049,140,2
344,-0.9482421875,0.33203125,0.1044921875,-5.121951219512195,-48.963414634146346,25.121951219512198,140,2
345,-0.9287109375,0.3642578125,0.1640625,-0.6097560975609757,-53.47560975609757,25.975609756097562,140,2
346,-0.970703125,0.33154296875,0.08935546875,1.9512195121951221,-56.768292682926834,25.853658536585368,140,2
347,-0.9443359375,0.357421875,0.1142578125,5.426829268292684,-47.01219512195122,25.0609756097561,140,2
348,-0.9208984375,0.3779296875,0.00244140625,8.414634146341465,-67.13414634146342,24.573170731707318,140,2
349,-0.9345703125,0.35986328125,0.1552734375,9.817073170731708,-72.6829268292683,25.000000000000004,140,2
350,-0.98193359375,0.33349609375,0.20166015625,12.682926829268293,-77.7439024390244,26.52439024390244,140,2
351,-1.01953125,0.291015625,0.23388671875,0.12195121951219513,-80.85365853658537,27.80487804878049,140,2
352,-1.04736328125,0.2900390625,0.23291015625,16.646341463414636,-81.95121951219512,28.658536585365855,140,2
353,-1.03271484375,0.30517578125,0.2392578125,17.5,-83.53658536585367,30.792682926829272,140,2
354,-1.0029296875,0.318359375,0.24365234375,20.0609756097561,-88.84146341463415,33.23170731707317,140,2
355,-0.98046875,0.30078125,0.27392578125,23.475609756097562,-92.25609756097562,35.30487804878049,140,2
356,-0.9384765625,0.30126953125,0.2978515625,28.353658536585368,-95.97560975609757,38.04878048780488,140,2
357,-0.8818359375,0.326171875,0.33154296875,32.19512195121951,-98.17073170731709,40.0609756097561,140,2
358,-0.8134765625,0.35498046875,0.36962890625,31.89024390243903,-97.01219512195122,41.646341463414636,140,2
359,-0.873046875,0.380859375,0.37890625,28.53658536585366,-96.28048780487806,42.804878048780495,140,2
360,-0.74169921875,0.251953125,0.40869140625,26.707317073170735,-95.85365853658537,43.59756097560976,140,2
361,-0.73388671875,0.37353515625,0.41943359375,28.231707317073173,-98.78048780487806,44.146341463414636,140,2
362,-0.7138671875,0.37060546875,0.419921875,33.170731707317074,-104.20731707317074,44.69512195121952,140,2
363,-0.73681640625,0.32373046875,0.453125,38.23170731707317,-107.31707317073172,45.1829268292683,140,2
364,-0.68896484375,0.30859375,0.48095703125,42.13414634146342,-109.14634146341464,45.85365853658537,140,2
365,-0.642578125,0.337890625,0.5263671875,44.451219512195124,-108.53658536585367,46.707317073170735,140,2
366,-0.591796875,0.3662109375,0.55615234375,44.57317073170732,-107.6219512195122,47.86585365853659,140,2
367,-0.5615234375,0.37060546875,0.53466796875,44.32926829268293,-107.19512195121952,49.085365853658544,140,2
368,-0.56787109375,0.37548828125,0.5537109375,44.390243902439025,-105.91463414634147,48.90243902439025,140,2
369,-0.544921875,0.39111328125,0.58935546875,44.207317073170735,-103.35365853658537,48.59756097560976,140,2
370,-0.5146484375,0.4130859375,0.62451171875,43.35365853658537,-100.1219512195122,48.10975609756098,140,2
371,-0.49365234375,0.43408203125,0.650390625,42.43902439024391,-97.01219512195122,47.6219512195122,140,2
372,-0.48974609375,0.46142578125,0.6669921875,42.43902439024391,-97.13414634146342,47.31707317073171,140,2
373,-0.3779296875,0.45263671875,0.65673828125,44.207317073170735,-98.59756097560977,47.25609756097561,140,2
374,-0.5224609375,0.4404296875,0.642578125,47.987804878048784,-100.67073170731709,62.19512195121952,140,2
375,-0.51806640625,0.4326171875,0.638671875,53.04878048780488,-104.57317073170732,46.03658536585366,140,2
376,-0.52001953125,0.42626953125,0.744140625,58.29268292682927,-107.8658536585366,45.91463414634147,140,2
377,-0.5185546875,0.4345703125,0.61572265625,61.524390243902445,-109.14634146341464,45.670731707317074,140,2
378,-0.494140625,0.466796875,0.62451171875,62.6219512195122,-108.59756097560977,45.60975609756098,140,2
379,-0.453125,0.49951171875,0.64111328125,60.060975609756106,-105.3048780487805,45.0609756097561,140,2
380,-0.42138671875,0.52685546875,0.64111328125,53.23170731707317,-100.3048780487805,44.08536585365854,140,2
381,-0.40234375,0.552734375,0.6650390625,61.95121951219513,-95.3658536585366,43.84146341463415,140,2
382,-0.39501953125,0.58203125,0.654296875,41.03658536585366,-91.82926829268294,43.23170731707317,140,2
383,-0.39111328125,0.58251953125,0.6728515625,38.41463414634147,-89.08536585365854,42.5609756097561,140,2
384,-0.3984375,0.58203125,0.677734375,37.743902439024396,-87.98780487804879,42.6829268292683,140,2
385,-0.4111328125,0.5673828125,0.64697265625,39.390243902439025,-89.87804878048782,42.804878048780495,140,2
386,-0.431640625,0.548828125,0.61376953125,41.15853658536586,-91.95121951219512,42.43902439024391,140,2
387,-0.43017578125,0.548828125,0.587890625,45.00000000000001,-95.48780487804879,43.59756097560976,140,2
388,-0.43603515625,0.5439453125,0.59765625,48.41463414634147,-97.7439024390244,44.51219512195122,140,2
389,-0.419921875,0.5478515625,0.62158203125,49.69512195121952,-97.31707317073172,45.54878048780488,140,2
390,-0.38427734375,0.56103515625,0.62158203125,48.170731707317074,-94.81707317073172,47.37804878048781,140,2
391,-0.35107421875,0.58447265625,0.6328125,43.71951219512196,-91.09756097560977,48.71951219512196,140,2
392,-0.32275390625,0.57373046875,0.6455078125,40.60975609756098,-87.50000000000001,49.69512195121952,140,2
393,-0.29248046875,0.56982421875,0.6533203125,39.08536585365854,-83.90243902439025,50.36585365853659,140,2
394,-0.26513671875,0.5771484375,0.6552734375,37.6829268292683,-80.67073170731707,50.54878048780488,140,2
395,-0.2294921875,0.57275390625,0.50390625,37.25609756097561,-80.3048780487805,51.28048780487806,140,2
396,-0.2392578125,0.54833984375,0.57763671875,37.37804878048781,-79.69512195121952,51.28048780487806,140,2
397,-0.24560546875,0.53515625,0.57568359375,37.25609756097561,-79.51219512195122,51.21951219512196,140,2
398,-0.23974609375,0.5498046875,0.58740234375,36.03658536585366,-93.65853658536587,50.73170731707317,140,2
399,-0.2060546875,0.5908203125,0.61083984375,34.146341463414636,-75.67073170731707,50.304878048780495,140,2
400,-0.193359375,0.60205078125,0.63671875,31.76829268292683,-74.20731707317074,51.09756097560976,140,2
401,-0.20166015625,0.5986328125,0.63525390625,30.30487804878049,-73.71951219512195,51.646341463414636,140,2
402,-0.20654296875,0.56201171875,0.61865234375,30.853658536585368,-74.26829268292684,52.5609756097561,140,2
403,-0.20654296875,0.54541015625,0.63037109375,33.53658536585366,-75.3048780487805,53.59756097560976,140,2
404,-0.1826171875,0.55908203125,0.6435546875,36.707317073170735,-76.46341463414635,54.93902439024391,140,2
405,-0.16015625,0.56689453125,0.62841796875,39.63414634146342,-76.82926829268294,56.646341463414636,140,2
406,-0.14501953125,0.568359375,0.5029296875,39.75609756097561,-76.70731707317074,58.04878048780488,140,2
407,-0.14208984375,0.55908203125,0.5810546875,37.25609756097561,-74.63414634146342,58.10975609756098,140,2
408,-0.1240234375,0.583984375,0.60107421875,34.024390243902445,-71.15853658536587,57.560975609756106,140,2
409,-0.1083984375,0.5751953125,0.626953125,26.52439024390244,-65.79268292682927,57.43902439024391,140,2
410,-0.06689453125,0.62451171875,0.59716796875,21.34146341463415,-64.39024390243902,57.6829268292683,140,2
411,-0.09521484375,0.58251953125,0.544921875,17.134146341463417,-64.63414634146342,57.743902439024396,140,2
412,-0.10498046875,0.56396484375,0.51025390625,17.682926829268293,-66.34146341463415,56.89024390243903,140,2
413,-0.06005859375,0.58154296875,0.5615234375,20.48780487804878,-67.98780487804879,56.34146341463415,140,2
414,-0.0146484375,0.6083984375,0.5732421875,21.646341463414636,-70.42682926829269,57.07317073170732,140,2
415,-0.04345703125,0.6015625,0.54345703125,21.951219512195124,-71.70731707317074,58.71951219512196,140,2
416,-0.06884765625,0.6103515625,0.53564453125,24.02439024390244,-73.04878048780489,58.71951219512196,140,2
417,-0.0517578125,0.61181640625,0.55029296875,27.134146341463417,-73.29268292682927,58.04878048780488,140,2
418,-0.0244140625,0.6103515625,0.576171875,26.76829268292683,-71.58536585365854,58.47560975609757,140,2
419,0.01123046875,0.60205078125,0.5478515625,22.865853658536587,-68.90243902439025,58.59756097560976,140,2
420,0.02734375,0.626953125,0.556640625,20.54878048780488,-64.39024390243902,58.29268292682927,140,2
421,0.0185546875,0.6044921875,0.55078125,18.84146341463415,-61.646341463414636,58.65853658536586,140,2
422,0.0205078125,0.6064453125,0.54345703125,18.963414634146343,-59.93902439024391,58.53658536585366,140,2
423,0.03515625,0.603515625,0.53662109375,20.670731707317074,-59.87804878048781,58.65853658536586,140,2
424,0.0517578125,0.61572265625,0.5283203125,23.414634146341466,-61.09756097560976,59.57317073170732,140,2
425,0.0546875,0.6181640625,0.51318359375,25.48780487804878,-63.29268292682927,59.93902439024391,140,2
426,0.04931640625,0.58984375,0.43359375,25.853658536585368,-65.60975609756098,61.15853658536586,140,2
427,0.03564453125,0.59521484375,0.4287109375,25.121951219512198,-65.97560975609757,61.03658536585366,140,2
428,0.0810546875,0.611328125,0.46875,23.475609756097562,-66.03658536585367,61.463414634146346,140,2
429,0.11669921875,0.63916015625,0.498046875,21.097560975609756,-65.0609756097561,46.951219512195124,140,2
430,0.123046875,0.74658203125,0.54443359375,18.29268292682927,-63.71951219512196,63.90243902439025,140,2
431,0.08447265625,0.57080078125,0.57080078125,17.195121951219512,-61.40243902439025,65.0609756097561,140,2
432,0.0849609375,0.56005859375,0.57958984375,18.29268292682927,-59.146341463414636,65.73170731707317,140,2
433,0.09619140625,0.53271484375,0.5478515625,19.695121951219512,-57.6219512195122,66.70731707317074,140,2
434,0.1201171875,0.5478515625,0.5146484375,21.951219512195124,-57.37804878048781,67.6829268292683,140,2
435,0.1708984375,0.56298828125,0.48095703125,24.02439024390244,-58.41463414634147,68.04878048780489,140,2
436,0.21044921875,0.59765625,0.43701171875,25.731707317073173,-59.87804878048781,68.29268292682927,140,2
437,0.24462890625,0.5966796875,0.37548828125,24.32926829268293,-60.60975609756098,68.71951219512195,140,2
438,0.12841796875,0.5859375,0.35107421875,21.402439024390247,-61.09756097560976,68.47560975609757,140,2
439,0.2734375,0.5888671875,0.3359375,17.682926829268293,-61.03658536585366,68.47560975609757,140,2
440,0.28271484375,0.59375,0.33349609375,13.475609756097562,-60.1219512195122,68.41463414634147,140,2
441,0.26806640625,0.57861328125,0.36962890625,8.902439024390244,-58.23170731707317,68.96341463414635,140,2
442,0.259765625,0.56689453125,0.40966796875,6.585365853658537,-56.34146341463415,69.57317073170732,140,2
443,0.24609375,0.5263671875,0.451171875,6.829268292682928,-54.87804878048781,70.3048780487805,140,2
444,0.24365234375,0.51611328125,0.48388671875,9.695121951219512,-54.39024390243903,71.34146341463415,140,2
445,0.232421875,0.4970703125,0.48095703125,14.390243902439027,-54.57317073170732,72.43902439024392,140,2
446,0.22998046875,0.48876953125,0.43359375,19.451219512195124,-56.585365853658544,74.20731707317074,140,2
447,0.24951171875,0.47802734375,0.37646484375,22.926829268292686,-58.41463414634147,75.1829268292683,140,2
448,0.3056640625,0.50244140625,0.34130859375,24.390243902439025,-60.426829268292686,76.21951219512196,140,2
449,0.3330078125,0.513671875,0.3134765625,21.097560975609756,-60.365853658536594,77.13414634146342,140,2
450,0.36279296875,0.53076171875,0.29736328125,30.792682926829272,-60.00000000000001,77.8658536585366,140,2
451,0.3681640625,0.51171875,0.31884765625,8.292682926829269,-58.53658536585366,78.17073170731707,140,2
452,0.3701171875,0.50537109375,0.3583984375,4.878048780487806,-58.04878048780488,78.47560975609757,140,2
453,0.3759765625,0.4931640625,0.3876953125,4.695121951219512,-57.560975609756106,78.65853658536587,140,2
454,0.38427734375,0.4658203125,0.392578125,6.2804878048780495,-58.04878048780488,79.26829268292684,140,2
455,0.3984375,0.4619140625,0.35986328125,9.329268292682928,-59.39024390243903,79.45121951219512,140,2
456,0.41748046875,0.45849609375,0.3525390625,13.597560975609758,-61.40243902439025,79.14634146341464,140,2
457,0.45947265625,0.4775390625,0.318359375,17.5,-64.08536585365854,78.53658536585367,140,2
458,0.4619140625,0.486328125,0.28125,19.146341463414636,-64.81707317073172,77.7439024390244,140,2
459,0.48876953125,0.5087890625,0.27880859375,17.378048780487806,-63.84146341463415,76.89024390243902,140,2
460,0.52392578125,0.52587890625,0.29248046875,13.475609756097562,-62.13414634146342,76.28048780487805,140,2
461,0.537109375,0.52099609375,0.294921875,9.695121951219512,-60.79268292682927,76.28048780487805,140,2
462,0.5205078125,0.48291015625,0.32470703125,8.231707317073171,-59.93902439024391,75.85365853658537,140,2
463,0.5107421875,0.47021484375,0.34716796875,8.414634146341465,-59.57317073170732,76.28048780487805,140,2
464,0.52001953125,0.45654296875,0.35595703125,9.451219512195122,-59.57317073170732,75.91463414634147,140,2
465,0.54345703125,0.4794921875,0.353515625,10.670731707317074,-60.060975609756106,75.73170731707317,140,2
466,0.56591796875,0.48583984375,0.35986328125,12.195121951219512,-60.426829268292686,75.2439024390244,140,2
467,0.5908203125,0.37841796875,0.32275390625,12.865853658536587,-60.97560975609757,74.57317073170732,140,2
468,0.59619140625,0.494140625,0.29833984375,12.256097560975611,-60.97560975609757,73.71951219512195,140,2
469,0.62451171875,0.51171875,0.279296875,10.731707317073171,-60.487804878048784,73.65853658536587,140,2
470,0.6298828125,0.501953125,0.2978515625,8.109756097560977,-59.63414634146342,73.71951219512195,140,2
471,0.62890625,0.490234375,0.32666015625,6.219512195121951,-58.17073170731708,73.84146341463415,140,2
472,0.62451171875,0.470703125,0.3330078125,6.158536585365854,-56.82926829268293,74.32926829268294,140,2
473,0.61328125,0.451171875,0.31982421875,7.195121951219513,-56.34146341463415,74.93902439024392,140,2
474,0.62890625,0.431640625,0.30078125,8.475609756097562,-56.28048780487806,75.2439024390244,140,2
475,0.654296875,0.4248046875,0.27392578125,9.329268292682928,-56.21951219512196,75.2439024390244,140,2
476,0.6826171875,0.42529296875,0.13427734375,10.0,-56.524390243902445,74.75609756097562,140,2
477,0.7080078125,0.42333984375,0.2470703125,10.182926829268293,-57.560975609756106,73.78048780487805,140,2
478,0.72802734375,0.43701171875,0.23291015625,10.121951219512196,-58.65853658536586,72.98780487804879,140,2
479,0.72900390625,0.4462890625,0.2216796875,8.109756097560977,-58.65853658536586,71.89024390243902,140,2
480,0.75341796875,0.470703125,0.240234375,4.75609756097561,-58.59756097560976,70.91463414634147,140,2
481,0.755859375,0.45947265625,0.27587890625,0.9756097560975611,-57.926829268292686,70.1219512195122,140,2
482,0.72705078125,0.43603515625,0.3212890625,-2.439024390243903,-57.07317073170732,68.71951219512195,140,2
483,0.69580078125,0.39404296875,0.35791015625,-4.329268292682928,-53.963414634146346,66.95121951219512,140,2
484,0.68212890625,0.3828125,0.34765625,-4.390243902439025,-51.646341463414636,65.2439024390244,140,2
485,0.69140625,0.3857421875,0.30859375,-2.25609756097561,-50.97560975609756,63.29268292682927,140,2
486,0.70068359375,0.39599609375,0.27587890625,1.402439024390244,-51.82926829268293,61.707317073170735,140,2
487,0.72509765625,0.421875,0.2626953125,5.487804878048781,-51.82926829268293,59.93902439024391,140,2
488,0.73828125,0.46240234375,0.255859375,7.682926829268293,-51.21951219512196,58.17073170731708,140,2
489,0.75439453125,0.51025390625,0.2421875,9.26829268292683,-51.03658536585366,56.40243902439025,140,2
490,0.75244140625,0.529296875,0.23974609375,9.26829268292683,-48.84146341463415,54.024390243902445,140,2
491,0.7607421875,0.546875,0.2607421875,7.560975609756098,-45.79268292682927,51.646341463414636,140,2
492,0.7607421875,0.55859375,0.267578125,5.2439024390243905,-43.10975609756098,49.085365853658544,140,2
493,0.75537109375,0.54443359375,0.275390625,2.8658536585365857,-40.0,46.82926829268293,140,2
494,0.73974609375,0.53173828125,0.302734375,1.0975609756097562,-36.768292682926834,45.243902439024396,140,2
495,0.74072265625,0.52001953125,0.302734375,0.1829268292682927,-34.87804878048781,43.71951219512196,140,2
496,0.73974609375,0.49169921875,0.291015625,1.0365853658536586,-33.78048780487805,41.951219512195124,140,2
497,0.73193359375,0.46435546875,0.28662109375,3.414634146341464,-33.963414634146346,40.304878048780495,140,2
498,0.7314453125,0.451171875,0.26123046875,6.158536585365854,-34.207317073170735,37.987804878048784,140,2
499,0.73974609375,0.45849609375,0.25,7.926829268292684,-33.109756097560975,35.1219512195122,140,2
