,Ax,Ay,Az,Gx,Gy,Gz,distance,shot_type
0,0.76806640625,-0.46142578125,-0.197265625,16.219512195121954,7.25609756097561,-21.402439024390247,155,2
1,0.76123046875,-0.490234375,-0.23388671875,22.743902439024392,3.1097560975609757,-23.04878048780488,155,2
2,0.7607421875,-0.5234375,-0.29150390625,25.30487804878049,1.2195121951219514,-24.32926829268293,155,2
3,0.72509765625,-0.56689453125,-0.36279296875,26.28048780487805,-0.426829268292683,-24.32926829268293,155,2
4,0.68212890625,-0.6240234375,-0.38427734375,26.03658536585366,-1.1585365853658538,-23.658536585365855,155,2
5,0.64208984375,-0.6396484375,-0.4384765625,23.231707317073173,0.9146341463414634,-22.195121951219512,155,2
6,0.61376953125,-0.6572265625,-0.45751953125,17.865853658536587,4.451219512195122,-20.243902439024392,155,2
7,0.57666015625,-0.68408203125,-0.4736328125,12.256097560975611,7.560975609756098,-16.463414634146343,155,2
8,0.54052734375,-0.74658203125,-0.4599609375,10.609756097560977,8.597560975609756,-13.353658536585368,155,2
9,0.5185546875,-0.79296875,-0.45654296875,11.585365853658537,8.170731707317074,-10.182926829268293,155,2
10,0.5078125,-0.794921875,-0.46337890625,11.463414634146343,7.073170731707318,-8.536585365853659,155,2
11,0.5341796875,-0.78857421875,-0.37890625,10.914634146341465,5.2439024390243905,-5.670731707317073,155,2
12,0.5234375,-0.78955078125,-0.513671875,10.24390243902439,2.7439024390243905,-3.353658536585366,155,2
13,0.5185546875,-0.79150390625,-0.50244140625,9.146341463414634,0.0,-1.2804878048780488,155,2
14,0.51416015625,-0.7783203125,-0.49853515625,9.451219512195122,-3.780487804878049,1.0365853658536586,155,2
15,0.52734375,-0.75439453125,-0.49072265625,9.634146341463415,-5.609756097560976,2.1341463414634148,155,2
16,0.5859375,-0.6787109375,-0.45556640625,8.414634146341465,-5.365853658536586,3.1707317073170733,155,2
17,0.5888671875,-0.64990234375,-0.4365234375,7.317073170731708,-5.426829268292684,5.0,155,2
18,0.591796875,-0.6474609375,-0.39501953125,5.670731707317073,-4.75609756097561,7.195121951219513,155,2
19,0.57763671875,-0.63525390625,-0.3544921875,4.634146341463415,-4.634146341463415,9.634146341463415,155,2
20,0.5732421875,-0.615234375,-0.35546875,4.024390243902439,-4.329268292682928,11.951219512195124,155,2
21,0.59619140625,-0.564453125,-0.34765625,0.5487804878048781,-2.1341463414634148,14.085365853658537,155,2
22,0.5029296875,-0.5126953125,-0.33154296875,-4.146341463414634,2.073170731707317,15.975609756097562,155,2
23,0.6357421875,-0.4755859375,-0.26318359375,-8.597560975609756,6.890243902439025,16.646341463414636,155,2
24,0.6240234375,-0.6240234375,-0.2041015625,-9.634146341463415,10.609756097560977,17.195121951219512,155,2
25,0.59765625,-0.52587890625,-0.1689453125,-4.75609756097561,9.329268292682928,16.097560975609756,155,2
26,0.65087890625,-0.46875,-0.20654296875,3.536585365853659,5.3048780487804885,14.634146341463415,155,2
27,0.70263671875,-0.37353515625,-0.30029296875,8.963414634146343,1.5853658536585367,10.670731707317074,155,2
28,0.81298828125,-0.24609375,-0.28466796875,8.414634146341465,8.231707317073171,7.317073170731708,155,2
29,0.8076171875,-0.29052734375,-0.2724609375,2.682926829268293,12.987804878048781,4.75609756097561,155,2
30,0.7900390625,-0.326171875,-0.2822265625,-1.2195121951219514,17.195121951219512,3.048780487804878,155,2
31,0.7861328125,-0.3154296875,-0.29150390625,-5.487804878048781,21.463414634146343,0.7317073170731708,155,2
32,0.79296875,-0.33349609375,-0.26171875,-10.853658536585368,25.48780487804878,-0.6097560975609757,155,2
33,0.7353515625,-0.4013671875,-0.365234375,-13.841463414634148,25.975609756097562,-0.6707317073170732,155,2
34,0.6875,-0.4677734375,-0.16357421875,-10.548780487804878,22.98780487804878,-0.7317073170731708,155,2
35,0.6416015625,-0.5595703125,-0.1162109375,-0.6707317073170732,15.975609756097562,0.3658536585365854,155,2
36,0.59033203125,-0.62060546875,-0.15283203125,0.06097560975609757,5.609756097560976,0.7926829268292683,155,2
37,0.611328125,-0.6123046875,-0.24560546875,30.243902439024392,-3.963414634146342,-0.9756097560975611,155,2
38,0.63720703125,-0.57763671875,-0.32275390625,38.71951219512196,-10.121951219512196,-2.7439024390243905,155,2
39,0.658203125,-0.56787109375,-0.369140625,38.41463414634147,-11.463414634146343,-3.1707317073170733,155,2
40,0.6875,-0.52392578125,-0.25048828125,32.6829268292683,-7.621951219512196,-3.7195121951219514,155,2
41,0.703125,-0.5263671875,-0.3701171875,23.719512195121954,-3.536585365853659,-3.4756097560975614,155,2
42,0.66650390625,-0.55322265625,-0.3212890625,20.243902439024392,-3.231707317073171,-2.1951219512195124,155,2
43,0.6328125,-0.60009765625,-0.2724609375,24.085365853658537,-8.414634146341465,-0.5487804878048781,155,2
44,0.58935546875,-0.650390625,-0.259765625,38.04878048780488,-19.451219512195124,1.0975609756097562,155,2
45,0.55419921875,-0.70263671875,-0.23828125,52.01219512195122,-30.0609756097561,2.7439024390243905,155,2
46,0.544921875,-0.7197265625,-0.2705078125,58.90243902439025,-34.81707317073171,3.8414634146341466,155,2
47,0.5634765625,-0.67626953125,-0.3359375,59.268292682926834,-36.15853658536586,4.085365853658537,155,2
48,0.59033203125,-0.6171875,-0.37744140625,52.37804878048781,-30.487804878048784,4.024390243902439,155,2
49,0.5654296875,-0.59814453125,-0.40576171875,38.84146341463415,-21.52439024390244,3.048780487804878,155,2
50,0.60986328125,-0.5244140625,-0.431640625,23.231707317073173,-10.914634146341465,1.5853658536585367,155,2
51,0.6396484375,-0.48388671875,-0.44189453125,6.707317073170732,-1.402439024390244,0.6097560975609757,155,2
52,0.625,-0.4833984375,-0.498046875,-6.2804878048780495,2.8658536585365857,0.24390243902439027,155,2
53,0.603515625,-0.53515625,-0.3857421875,-8.048780487804878,5.121951219512195,0.6097560975609757,155,2
54,0.560546875,-0.6025390625,-0.369140625,-6.829268292682928,5.060975609756098,0.426829268292683,155,2
55,0.59619140625,-0.62255859375,-0.40771484375,-5.3048780487804885,3.536585365853659,0.30487804878048785,155,2
56,0.58740234375,-0.62890625,-0.462890625,-3.5975609756097566,0.30487804878048785,0.5487804878048781,155,2
57,0.599609375,-0.580078125,-0.521484375,-0.9756097560975611,-2.6219512195121952,0.1829268292682927,155,2
58,0.634765625,-0.52294921875,-0.53076171875,0.12195121951219513,-1.9512195121951221,-0.6707317073170732,155,2
59,0.6796875,-0.49462890625,-0.6220703125,-2.5609756097560976,0.1829268292682927,-1.9512195121951221,155,2
60,0.6650390625,-0.51025390625,-0.46337890625,-3.048780487804878,-0.9756097560975611,-1.1585365853658538,155,2
61,0.6162109375,-0.56689453125,-0.44384765625,-1.0365853658536586,-3.353658536585366,-0.3658536585365854,155,2
62,0.62451171875,-0.57861328125,-0.4501953125,1.3414634146341464,-4.939024390243903,-0.426829268292683,155,2
63,0.6396484375,-0.576171875,-0.46728515625,-0.30487804878048785,-3.8414634146341466,0.853658536585366,155,2
64,0.62939453125,-0.58447265625,-0.44677734375,-0.9756097560975611,-2.1951219512195124,2.1951219512195124,155,2
65,0.7412109375,-0.6044921875,-0.4150390625,-0.853658536585366,-0.12195121951219513,4.634146341463415,155,2
66,0.61181640625,-0.5048828125,-0.40576171875,-2.3170731707317076,1.707317073170732,5.670731707317073,155,2
67,0.63134765625,-0.6005859375,-0.40087890625,-3.536585365853659,3.231707317073171,5.609756097560976,155,2
68,0.6259765625,-0.58154296875,-0.3935546875,-5.121951219512195,5.182926829268293,5.3048780487804885,155,2
69,0.6220703125,-0.5673828125,-0.3642578125,-7.621951219512196,7.439024390243903,5.2439024390243905,155,2
70,0.65087890625,-0.53662109375,-0.314453125,-8.719512195121952,8.78048780487805,4.75609756097561,155,2
71,0.64306640625,-0.54345703125,-0.27978515625,-9.02439024390244,9.146341463414634,4.939024390243903,155,2
72,0.63525390625,-0.5400390625,-0.25830078125,-7.073170731707318,8.231707317073171,4.695121951219512,155,2
73,0.6396484375,-0.5517578125,-0.228515625,-7.073170731707318,10.24390243902439,4.51219512195122,155,2
74,0.66455078125,-0.56640625,-0.224609375,-8.841463414634147,13.29268292682927,5.3048780487804885,155,2
75,0.6796875,-0.55078125,-0.23583984375,-11.890243902439025,17.195121951219512,5.0,155,2
76,0.70654296875,-0.5166015625,-0.24072265625,-13.841463414634148,19.26829268292683,4.695121951219512,155,2
77,0.697265625,-0.5205078125,-0.37451171875,-12.073170731707318,18.78048780487805,4.573170731707317,155,2
78,0.673828125,-0.5634765625,-0.2392578125,-8.78048780487805,17.926829268292686,4.146341463414634,155,2
79,0.6845703125,-0.5751953125,-0.2509765625,-7.01219512195122,17.682926829268293,3.2926829268292686,155,2
80,0.68994140625,-0.56591796875,-0.24951171875,-7.987804878048781,20.243902439024392,2.682926829268293,155,2
81,0.697265625,-0.552734375,-0.23583984375,-10.30487804878049,21.707317073170735,2.073170731707317,155,2
82,0.7109375,-0.5263671875,-0.20556640625,-7.8048780487804885,19.695121951219512,1.829268292682927,155,2
83,0.66796875,-0.58984375,-0.19970703125,-2.9268292682926833,16.463414634146343,1.402439024390244,155,2
84,0.65673828125,-0.59619140625,-0.2412109375,1.5853658536585367,13.04878048780488,0.426829268292683,155,2
85,0.6845703125,-0.568359375,-0.2646484375,2.987804878048781,13.04878048780488,-0.12195121951219513,155,2
86,0.6875,-0.55810546875,-0.26708984375,2.682926829268293,12.926829268292684,-0.7926829268292683,155,2
87,0.68115234375,-0.5576171875,-0.28173828125,3.4756097560975614,13.29268292682927,-0.9146341463414634,155,2
88,0.6806640625,-0.56103515625,-0.30322265625,4.146341463414634,14.02439024390244,-1.3414634146341464,155,2
89,0.67626953125,-0.56494140625,-0.30322265625,3.9024390243902443,15.914634146341465,-1.5853658536585367,155,2
90,0.662109375,-0.57958984375,-0.29541015625,3.1097560975609757,17.31707317073171,-1.402439024390244,155,2
91,0.64013671875,-0.57958984375,-0.2978515625,3.231707317073171,18.231707317073173,-1.0365853658536586,155,2
92,0.611328125,-0.595703125,-0.28662109375,4.573170731707317,18.29268292682927,0.3658536585365854,155,2
93,0.55615234375,-0.6396484375,-0.31396484375,6.158536585365854,18.84146341463415,2.25609756097561,155,2
94,0.57470703125,-0.64013671875,-0.26953125,5.609756097560976,22.31707317073171,2.6219512195121952,155,2
95,0.6103515625,-0.6259765625,-0.20849609375,4.2682926829268295,26.951219512195124,3.9024390243902443,155,2
96,0.59814453125,-0.64111328125,-0.19189453125,2.5,30.914634146341466,5.365853658536586,155,2
97,0.580078125,-0.63720703125,-0.23779296875,4.75609756097561,46.707317073170735,6.158536585365854,155,2
98,0.58544921875,-0.63232421875,-0.25390625,6.951219512195123,30.853658536585368,6.463414634146342,155,2
99,0.50634765625,-0.60400390625,-0.22265625,7.500000000000001,31.52439024390244,6.219512195121951,155,2
100,0.63427734375,-0.60888671875,-0.21142578125,6.951219512195123,31.52439024390244,6.890243902439025,155,2
101,0.61376953125,-0.62841796875,-0.19921875,9.329268292682928,30.365853658536587,8.048780487804878,155,2
102,0.61669921875,-0.74853515625,-0.20458984375,11.402439024390246,29.573170731707318,8.170731707317074,155,2
103,0.63427734375,-0.6025390625,-0.17578125,13.231707317073171,30.975609756097565,9.02439024390244,155,2
104,0.6611328125,-0.57421875,-0.21337890625,14.329268292682928,30.731707317073173,8.536585365853659,155,2
105,0.68212890625,-0.5478515625,-0.248046875,15.30487804878049,32.31707317073171,9.390243902439025,155,2
106,0.6708984375,-0.56103515625,-0.2451171875,13.902439024390246,34.75609756097561,10.24390243902439,155,2
107,0.65869140625,-0.57763671875,-0.23388671875,9.451219512195122,38.53658536585366,10.853658536585368,155,2
108,0.6787109375,-0.52294921875,-0.22216796875,4.146341463414634,44.57317073170732,12.865853658536587,155,2
109,0.65966796875,-0.525390625,-0.216796875,-2.25609756097561,51.40243902439025,14.329268292682928,155,2
110,0.7451171875,-0.55322265625,-0.21728515625,-8.353658536585366,57.560975609756106,16.097560975609756,155,2
111,0.6220703125,-0.5537109375,-0.13818359375,-2.9268292682926833,54.63414634146342,19.02439024390244,155,2
112,0.583984375,-0.67041015625,-0.0908203125,4.085365853658537,43.29268292682927,21.707317073170735,155,2
113,0.62451171875,-0.53173828125,-0.35986328125,5.914634146341464,39.57317073170732,20.79268292682927,155,2
114,0.7578125,-0.30322265625,-0.47119140625,-1.9512195121951221,46.768292682926834,20.48780487804878,155,2
115,0.78955078125,-0.30078125,-0.51171875,-20.914634146341466,61.15853658536586,18.84146341463415,155,2
116,0.83544921875,-0.22412109375,-0.45556640625,-32.43902439024391,82.19512195121952,18.475609756097562,155,2
117,0.85986328125,-0.24072265625,-0.42724609375,-63.53658536585366,95.2439024390244,19.81707317073171,155,2
118,0.80859375,-0.26416015625,-0.47509765625,-95.2439024390244,101.58536585365854,19.32926829268293,155,2
119,0.734375,-0.423828125,-0.31005859375,-85.60975609756099,90.3048780487805,17.25609756097561,155,2
120,0.64013671875,-0.59228515625,-0.2177734375,-63.71951219512196,76.28048780487805,14.085365853658537,155,2
121,0.6103515625,-0.6142578125,-0.22265625,-48.41463414634147,63.90243902439025,11.097560975609756,155,2
122,0.52685546875,-0.58203125,-0.28515625,-37.37804878048781,52.01219512195122,8.231707317073171,155,2
123,0.537109375,-0.47509765625,-0.2998046875,-30.914634146341466,47.804878048780495,4.695121951219512,155,2
124,0.60986328125,-0.4228515625,-0.37353515625,-37.07317073170732,48.04878048780488,1.524390243902439,155,2
125,0.6962890625,-0.28466796875,-0.46142578125,-50.1829268292683,52.6219512195122,-0.6097560975609757,155,2
126,0.7080078125,-0.267578125,-0.46337890625,-63.84146341463415,55.1219512195122,-3.2926829268292686,155,2
127,0.763671875,-0.25439453125,-0.4677734375,-71.52439024390245,52.86585365853659,-6.219512195121951,155,2
128,0.74951171875,-0.33154296875,-0.4453125,-68.96341463414635,45.85365853658537,-8.109756097560977,155,2
129,0.697265625,-0.412109375,-0.44677734375,-61.21951219512196,39.451219512195124,-10.731707317073171,155,2
130,0.71826171875,-0.3447265625,-0.404296875,-58.65853658536586,38.10975609756098,-12.560975609756099,155,2
131,0.7548828125,-0.279296875,-0.40283203125,-61.463414634146346,39.268292682926834,-12.987804878048781,155,2
132,0.7373046875,-0.2802734375,-0.37548828125,-68.41463414634147,42.25609756097561,-13.902439024390246,155,2
133,0.74072265625,-0.2705078125,-0.36962890625,-74.63414634146342,45.1829268292683,-14.939024390243905,155,2
134,0.73974609375,-0.279296875,-0.37451171875,-78.84146341463415,45.1829268292683,-17.012195121951223,155,2
135,0.70703125,-0.30859375,-0.43359375,-81.76829268292684,44.08536585365854,-20.426829268292686,155,2
136,0.70703125,-0.296875,-0.44580078125,-85.3658536585366,42.07317073170732,-23.29268292682927,155,2
137,0.72314453125,-0.26708984375,-0.4638671875,-89.63414634146342,40.243902439024396,-26.219512195121954,155,2
138,0.75732421875,-0.234375,-0.421875,-95.79268292682927,40.73170731707317,-28.963414634146343,155,2
139,0.76123046875,-0.279296875,-0.41650390625,-99.20731707317074,39.024390243902445,-31.219512195121954,155,2
140,0.75439453125,-0.2822265625,-0.4306640625,-101.82926829268294,39.32926829268293,-33.29268292682927,155,2
141,0.73388671875,-0.2919921875,-0.3896484375,-103.41463414634147,39.93902439024391,-34.87804878048781,155,2
142,0.76025390625,-0.263671875,-0.37939453125,-105.97560975609757,40.487804878048784,-36.21951219512196,155,2
143,0.76806640625,-0.25732421875,-0.39453125,-111.76829268292684,42.25609756097561,-38.84146341463415,155,2
144,0.77685546875,-0.2392578125,-0.400390625,-117.01219512195122,44.75609756097561,-40.60975609756098,155,2
145,0.759765625,-0.2529296875,-0.36767578125,-123.65853658536587,48.41463414634147,-43.53658536585366,155,2
146,0.79541015625,-0.216796875,-0.38671875,-129.57317073170734,46.463414634146346,-45.1219512195122,155,2
147,0.796875,-0.20361328125,-0.35205078125,-136.28048780487805,49.57317073170732,-47.37804878048781,155,2
148,0.775390625,-0.24560546875,-0.32568359375,-140.7926829268293,52.6829268292683,-50.0609756097561,155,2
149,0.8125,-0.22021484375,-0.3037109375,-141.70731707317074,51.89024390243903,-53.47560975609757,155,2
150,0.8447265625,-0.18603515625,-0.46728515625,-141.64634146341464,41.34146341463415,-57.01219512195122,155,2
151,0.857421875,-0.138671875,-0.6533203125,-137.5609756097561,33.04878048780488,-64.63414634146342,155,2
152,0.9580078125,-0.03857421875,-0.638671875,-142.19512195121953,36.524390243902445,-71.40243902439025,155,2
153,1.02587890625,-0.0849609375,-0.6669921875,-153.71951219512195,42.43902439024391,-76.09756097560977,155,2
154,1.0419921875,-0.11767578125,-0.7470703125,-165.00000000000003,49.268292682926834,-78.47560975609757,155,2
155,1.02685546875,-0.18359375,-0.54736328125,-172.37804878048783,53.04878048780488,-79.02439024390245,155,2
156,0.943359375,-0.24365234375,-0.50634765625,-175.97560975609758,56.21951219512196,-79.93902439024392,155,2
157,0.91748046875,-0.25146484375,-0.45751953125,-175.609756097561,57.560975609756106,-81.40243902439025,155,2
158,0.9501953125,-0.185546875,-0.4765625,-178.0487804878049,59.085365853658544,-84.26829268292684,155,2
159,0.99462890625,-0.138671875,-0.49609375,-180.3658536585366,59.39024390243903,-88.71951219512196,155,2
160,1.041015625,-0.0927734375,-0.51416015625,-182.9878048780488,61.09756097560976,-78.65853658536587,155,2
161,1.0556640625,-0.12890625,-0.62060546875,-185.4878048780488,63.35365853658537,-100.54878048780489,155,2
162,1.09716796875,-0.07470703125,-0.4794921875,-189.20731707317074,66.46341463414635,-106.64634146341464,155,2
163,1.17626953125,-0.0205078125,-0.4560546875,-192.50000000000003,68.17073170731707,-112.25609756097562,155,2
164,1.228515625,0.005859375,-0.5390625,-197.8658536585366,69.14634146341464,-117.98780487804879,155,2
165,1.24609375,0.04296875,-0.5400390625,-187.8048780487805,76.58536585365854,-124.26829268292684,155,2
166,1.31591796875,0.07568359375,-0.44873046875,-208.84146341463418,83.65853658536587,-128.2317073170732,155,2
167,1.3447265625,0.03125,-0.45947265625,-213.59756097560978,88.47560975609757,-131.95121951219514,155,2
168,1.33447265625,0.0419921875,-0.490234375,-215.6707317073171,92.6829268292683,-136.82926829268294,155,2
169,1.33935546875,0.10791015625,-0.4736328125,-217.8658536585366,97.31707317073172,-142.6829268292683,155,2
170,1.37451171875,0.15283203125,-0.4326171875,-219.87804878048783,102.8048780487805,-148.53658536585368,155,2
171,1.36669921875,0.1171875,-0.3994140625,-220.609756097561,105.00000000000001,-155.1219512195122,155,2
172,1.39306640625,0.1484375,-0.41748046875,-219.81707317073173,105.67073170731709,-160.5487804878049,155,2
173,1.384765625,0.14404296875,-0.40869140625,-217.19512195121953,107.01219512195122,-167.13414634146343,155,2
174,1.40283203125,0.12890625,-0.4072265625,-214.93902439024393,107.6829268292683,-172.6829268292683,155,2
175,1.41357421875,0.09423828125,-0.40576171875,-208.47560975609758,106.52439024390245,-177.9878048780488,155,2
176,1.421875,0.1162109375,-0.490234375,-198.109756097561,105.42682926829269,-184.39024390243904,155,2
177,1.47607421875,0.1533203125,-0.30810546875,-190.4268292682927,102.56097560975611,-188.47560975609758,155,2
178,1.49755859375,0.19921875,-0.26611328125,-183.96341463414635,102.01219512195122,-191.34146341463418,155,2
179,1.51904296875,0.2158203125,-0.232421875,-177.6219512195122,100.1829268292683,-195.85365853658539,155,2
180,1.56640625,0.27099609375,-0.18115234375,-169.75609756097563,100.1829268292683,-200.4878048780488,155,2
181,1.568359375,0.2734375,-0.21728515625,-165.1829268292683,99.20731707317074,-205.7317073170732,155,2
182,1.578125,0.31005859375,-0.20361328125,-162.31707317073173,102.01219512195122,-211.82926829268294,155,2
183,1.60205078125,0.35302734375,-0.1572265625,-158.109756097561,102.92682926829269,-219.51219512195124,155,2
184,1.67236328125,0.4130859375,-0.16015625,-156.82926829268294,105.54878048780489,-227.68292682926833,155,2
185,1.6806640625,0.39404296875,-0.16748046875,-157.9268292682927,107.8048780487805,-232.56097560975613,155,2
186,1.67138671875,0.3447265625,-0.103515625,-156.21951219512198,110.1219512195122,-238.53658536585368,155,2
187,1.67724609375,0.3330078125,-0.05126953125,-151.15853658536588,109.69512195121952,-242.07317073170734,155,2
188,1.64013671875,0.29248046875,-0.02490234375,-145.3658536585366,109.51219512195122,-245.5487804878049,155,2
189,1.5068359375,0.31787109375,-0.12109375,-137.7439024390244,107.43902439024392,-249.14634146341464,155,2
190,1.6181640625,0.33740234375,0.01220703125,-133.0487804878049,104.93902439024392,-253.0487804878049,155,2
191,1.640625,0.3544921875,-0.0029296875,-129.45121951219514,105.97560975609757,-258.5365853658537,155,2
192,1.650390625,0.38720703125,0.09765625,-126.58536585365854,107.7439024390244,-262.01219512195127,155,2
193,1.6787109375,0.39404296875,0.18798828125,-124.57317073170732,108.10975609756099,-263.1707317073171,155,2
194,1.6279296875,0.35888671875,0.24365234375,-119.93902439024392,110.00000000000001,-265.0609756097561,155,2
195,1.583984375,0.337890625,0.2421875,-112.7439024390244,109.39024390243904,-264.8780487804878,155,2
196,1.515625,0.3349609375,0.1259765625,-103.29268292682927,108.65853658536587,-265.0,155,2
197,1.49462890625,0.35400390625,0.24853515625,-96.52439024390245,108.71951219512196,-263.9024390243903,155,2
198,1.46728515625,0.35888671875,0.216796875,-90.48780487804879,107.25609756097562,-263.5975609756098,155,2
199,1.4248046875,0.30517578125,0.18115234375,-85.85365853658537,108.53658536585367,-264.1463414634147,155,2
200,1.4853515625,0.31787109375,0.1826171875,-81.09756097560977,109.69512195121952,-263.5365853658537,155,2
201,1.287109375,0.345703125,0.1767578125,-79.45121951219512,124.69512195121952,-263.1707317073171,155,2
202,1.18408203125,0.3076171875,0.23876953125,-77.01219512195122,108.96341463414635,-263.1707317073171,155,2
203,1.095703125,0.25341796875,0.00244140625,-71.82926829268294,108.84146341463416,-263.4756097560976,155,2
204,1.02734375,0.22412109375,0.09912109375,-67.7439024390244,107.50000000000001,-263.3536585365854,155,2
205,0.96533203125,0.22705078125,0.15087890625,-61.707317073170735,108.29268292682927,-264.9390243902439,155,2
206,0.9541015625,0.13818359375,0.1826171875,-52.31707317073171,106.28048780487806,-262.8048780487805,155,2
207,0.85400390625,0.0478515625,0.16064453125,-46.03658536585366,102.01219512195122,-260.609756097561,155,2
208,0.75927734375,0.02197265625,0.16455078125,-36.890243902439025,98.71951219512196,-258.4756097560976,155,2
209,0.77001953125,0.03662109375,0.22021484375,-32.80487804878049,95.97560975609757,-255.24390243902442,155,2
210,0.7158203125,-0.02978515625,0.20361328125,-31.76829268292683,97.43902439024392,-251.46341463414637,155,2
211,0.69140625,-0.08056640625,0.24951171875,-28.84146341463415,96.21951219512196,-247.80487804878052,155,2
212,0.64697265625,-0.12353515625,0.240234375,-27.134146341463417,93.29268292682927,-243.35365853658539,155,2
213,0.5732421875,-0.18212890625,0.18701171875,-28.658536585365855,94.75609756097562,-239.75609756097563,155,2
214,0.57958984375,-0.232421875,0.16259765625,-30.670731707317074,96.21951219512196,-236.09756097560978,155,2
215,0.52978515625,-0.29833984375,0.1513671875,-15.79268292682927,94.51219512195122,-229.93902439024393,155,2
216,0.44580078125,-0.40576171875,0.1787109375,-30.426829268292686,92.13414634146342,-222.68292682926833,155,2
217,0.3857421875,-0.49267578125,0.1103515625,-32.19512195121951,87.8658536585366,-215.6707317073171,155,2
218,0.2666015625,-0.57275390625,0.0361328125,-28.719512195121954,82.5609756097561,-205.2439024390244,155,2
219,0.13037109375,-0.68701171875,0.04541015625,-29.512195121951223,80.54878048780489,-192.50000000000003,155,2
220,0.07177734375,-0.76025390625,0.06787109375,-29.08536585365854,76.03658536585367,-177.25609756097563,155,2
221,-0.12060546875,-0.7568359375,0.06640625,-36.463414634146346,75.42682926829269,-163.35365853658539,155,2
222,-0.2890625,-1.017578125,0.09423828125,-38.29268292682927,70.97560975609757,-144.39024390243904,155,2
223,-0.43310546875,-1.1806640625,0.0966796875,-39.75609756097561,66.28048780487805,-139.26829268292684,155,2
224,-0.5068359375,-1.36376953125,0.109375,-35.1219512195122,61.524390243902445,-100.54878048780489,155,2
225,-0.69140625,-1.537109375,0.17529296875,-26.707317073170735,58.53658536585366,-79.26829268292684,155,2
226,-0.7919921875,-1.51171875,0.17529296875,-21.951219512195124,52.5609756097561,-56.21951219512196,155,2
227,-0.83056640625,-1.69482421875,0.24609375,-20.731707317073173,47.6219512195122,-35.85365853658537,155,2
228,-0.75732421875,-1.76416015625,0.1318359375,-21.646341463414636,42.987804878048784,-30.54878048780488,155,2
229,-0.72900390625,-1.76708984375,0.09423828125,-18.353658536585368,39.51219512195122,7.134146341463415,155,2
230,-0.6435546875,-1.97265625,0.03955078125,-8.78048780487805,34.87804878048781,30.731707317073173,155,2
231,-0.5791015625,-2.00341796875,-0.07763671875,2.987804878048781,28.963414634146343,53.10975609756098,155,2
232,-0.5126953125,-2.203125,-0.11962890625,16.951219512195124,20.914634146341466,76.09756097560977,155,2
233,-0.45751953125,-2.29248046875,-0.0947265625,36.21951219512196,12.865853658536587,98.59756097560977,155,2
234,-0.4306640625,-2.40869140625,-0.134765625,53.35365853658537,5.060975609756098,124.02439024390245,155,2
235,-0.37744140625,-2.46484375,-0.24267578125,67.98780487804879,-2.5609756097560976,150.85365853658539,155,2
236,-0.34228515625,-2.55859375,-0.3125,79.45121951219512,-10.24390243902439,178.96341463414635,155,2
237,-0.25244140625,-2.61083984375,-0.404296875,90.73170731707317,-18.231707317073173,207.8658536585366,155,2
238,-0.16455078125,-2.69775390625,-0.44970703125,100.48780487804879,-26.158536585365855,237.68292682926833,155,2
239,-0.0185546875,-2.81982421875,-0.4560546875,107.31707317073172,-31.82926829268293,252.07317073170734,155,2
240,0.16650390625,-2.921875,-0.44580078125,108.71951219512196,-37.19512195121951,300.9756097560976,155,2
241,0.38232421875,-3.06591796875,-0.45703125,105.3048780487805,-40.73170731707317,334.69512195121956,155,2
242,0.5341796875,-3.1982421875,-0.51416015625,102.8048780487805,-31.707317073170735,372.56097560975616,155,2
243,0.94384765625,-3.38525390625,-0.54345703125,99.51219512195122,-53.04878048780488,411.0975609756098,155,2
244,1.34375,-3.50244140625,-0.64013671875,95.48780487804879,-58.29268292682927,452.19512195121956,155,2
245,1.7626953125,-3.9697265625,-0.76318359375,100.60975609756099,-75.48780487804879,485.24390243902445,155,2
246,2.3818359375,-4.126953125,-1.365234375,123.59756097560977,-91.95121951219512,552.9878048780488,155,2
247,2.9365234375,-4.57275390625,-1.67529296875,160.3048780487805,-112.98780487804879,600.8536585365854,155,2
248,3.67626953125,-4.85498046875,-2.11865234375,244.39024390243904,-135.0609756097561,630.7317073170732,155,2
249,4.5439453125,-4.98291015625,-1.875,324.39024390243907,-147.31707317073173,653.719512195122,155,2
250,5.52490234375,-5.17529296875,-1.6064453125,383.0487804878049,-153.84146341463415,685.0000000000001,155,2
251,6.55322265625,-5.1611328125,-1.6904296875,427.07317073170736,-147.6829268292683,724.8780487804879,155,2
252,7.4990234375,-5.099609375,-2.1025390625,463.8414634146342,-128.90243902439025,767.6219512195123,155,2
253,8.60009765625,-5.09228515625,-2.94677734375,452.9878048780488,-114.20731707317074,824.0243902439025,155,2
254,9.45654296875,-4.52392578125,-3.9794921875,507.62195121951225,-95.91463414634147,863.3536585365854,155,2
255,10.6484375,-3.76025390625,-4.66357421875,532.439024390244,-86.89024390243904,896.4634146341464,155,2
256,11.53271484375,-3.09423828125,-5.54833984375,592.8658536585366,-78.65853658536587,929.0243902439025,155,2
257,12.18603515625,-2.1259765625,-6.5693359375,634.0243902439025,-122.37804878048782,947.2560975609757,155,2
258,12.44970703125,-1.1591796875,-7.525390625,731.1585365853659,-176.82926829268294,965.1829268292684,155,2
259,11.7998046875,-1.16064453125,-8.4521484375,858.6585365853659,-281.5243902439025,941.219512195122,155,2
260,10.525390625,-1.3681640625,-9.1640625,1030.8536585365855,-393.5975609756098,905.0609756097562,155,2
261,7.99462890625,-2.44482421875,-8.8173828125,1223.5365853658539,-507.01219512195127,785.0609756097562,155,2
262,6.20751953125,-3.34130859375,-9.02734375,1402.3170731707319,-662.1341463414635,658.719512195122,155,2
263,5.6015625,-3.97705078125,-10.771484375,1527.9268292682927,-715.2439024390244,488.04878048780495,155,2
264,6.62646484375,-1.36572265625,-15.375,645.2439024390244,-465.24390243902445,-221.64634146341464,155,2
265,15.99951171875,13.24951171875,-6.6748046875,1300.1829268292684,-426.6463414634147,828.3536585365854,155,2
266,-16.0,-7.2978515625,3.9755859375,1997.6829268292684,-983.2317073170733,-169.51219512195124,155,2
267,6.22021484375,-5.59765625,-16.0,1220.2439024390244,-487.25609756097566,-357.37804878048786,155,2
268,15.99951171875,15.99951171875,5.181640625,852.6829268292684,124.45121951219514,-337.9268292682927,155,2
269,-2.44775390625,-2.02197265625,4.22705078125,1600.9756097560978,-53.23170731707317,-224.87804878048783,155,2
270,7.04736328125,-0.07470703125,1.8662109375,1252.9268292682927,-183.41463414634148,-409.1463414634147,155,2
271,5.87353515625,-1.68701171875,1.8740234375,902.7439024390245,-46.951219512195124,-302.31707317073176,155,2
272,4.95947265625,-4.6787109375,0.15869140625,746.3414634146342,29.39024390243903,-389.51219512195127,155,2
273,5.90380859375,-6.2548828125,0.92529296875,586.0975609756098,-109.63414634146342,-550.7926829268293,155,2
274,5.44873046875,-5.56982421875,-2.388671875,498.6585365853659,-202.62195121951223,-715.0609756097562,155,2
275,4.7392578125,-4.77880859375,-3.1083984375,459.39024390243907,-111.40243902439025,-788.2926829268293,155,2
276,3.57958984375,-4.14990234375,-2.9033203125,395.12195121951225,-47.37804878048781,-847.8658536585367,155,2
277,3.44970703125,-4.12158203125,-2.728515625,280.1829268292683,24.085365853658537,-865.3048780487806,155,2
278,2.7275390625,-4.056640625,-3.04638671875,163.2926829268293,100.06097560975611,-857.6829268292684,155,2
279,1.9580078125,-3.9345703125,-2.8076171875,103.04878048780489,180.06097560975613,-845.1219512195123,155,2
280,1.77392578125,-3.48291015625,-2.34033203125,57.743902439024396,233.41463414634148,-821.5853658536586,155,2
281,1.48486328125,-3.09716796875,-1.8193359375,27.073170731707318,287.5,-811.0365853658537,155,2
282,1.16015625,-2.873046875,-1.453125,-3.4756097560975614,335.00000000000006,-769.6951219512196,155,2
283,1.1943359375,-2.38671875,-1.56494140625,-30.914634146341466,373.2317073170732,-739.2682926829269,155,2
284,1.47021484375,-1.91455078125,-1.6396484375,-58.53658536585366,395.3048780487805,-706.6463414634147,155,2
285,1.58740234375,-1.7353515625,-1.646484375,-80.0609756097561,416.4634146341464,-683.9024390243903,155,2
286,1.5537109375,-1.5205078125,-1.4501953125,-110.42682926829269,439.81707317073176,-638.9024390243903,155,2
287,1.5654296875,-1.52197265625,-1.30322265625,-143.2317073170732,441.4634146341464,-607.5,155,2
288,1.54052734375,-1.2626953125,-1.40234375,-149.81707317073173,432.9268292682927,-554.6341463414634,155,2
289,1.1787109375,-1.3984375,-1.53515625,-153.47560975609758,435.6707317073171,-528.4756097560976,155,2
290,1.12939453125,-1.25439453125,-1.71728515625,-170.609756097561,421.0365853658537,-503.2926829268293,155,2
291,1.29931640625,-1.11474609375,-1.76025390625,-192.31707317073173,398.0487804878049,-478.6585365853659,155,2
292,1.1171875,-0.8515625,-1.78076171875,-216.09756097560978,390.609756097561,-466.95121951219517,155,2
293,1.03271484375,-0.71875,-1.8837890625,-219.57317073170734,378.6585365853659,-427.37804878048786,155,2
294,0.96630859375,-0.48828125,-1.76220703125,-225.4878048780488,339.87804878048786,-396.95121951219517,155,2
295,0.5703125,-0.5068359375,-1.908203125,-215.91463414634148,326.1585365853659,-383.6585365853659,155,2
296,0.5654296875,-0.61083984375,-1.98974609375,-204.51219512195124,290.2439024390244,-381.70731707317077,155,2
297,0.603515625,-0.31787109375,-1.58544921875,-212.9268292682927,275.2439024390244,-384.0853658536586,155,2
298,0.55859375,-0.23779296875,-1.58837890625,-249.69512195121953,271.0975609756098,-372.25609756097566,155,2
299,0.47998046875,-0.1396484375,-1.5126953125,-289.69512195121956,280.1829268292683,-347.6829268292683,155,2
300,0.3662109375,-0.42919921875,-1.32568359375,-314.32926829268297,285.0,-315.9756097560976,155,2
301,-0.05908203125,-0.65380859375,-1.30029296875,-320.1829268292683,279.26829268292687,-287.7439024390244,155,2
302,-0.2978515625,-0.7490234375,-1.31884765625,-310.4878048780488,279.75609756097566,-266.2804878048781,155,2
303,-0.4619140625,-0.83056640625,-0.89208984375,-295.3658536585366,251.82926829268294,-253.1707317073171,155,2
304,-0.57666015625,-0.77783203125,-0.92041015625,-258.1707317073171,248.78048780487808,-240.00000000000003,155,2
305,-0.55908203125,-0.654296875,-0.7939453125,-258.4756097560976,228.41463414634148,-223.2317073170732,155,2
306,-0.57763671875,-0.544921875,-0.677734375,-273.109756097561,231.89024390243904,-216.58536585365854,155,2
307,-0.52099609375,-0.49658203125,-0.67626953125,-295.5487804878049,220.2439024390244,-173.78048780487808,155,2
308,-0.6416015625,-0.59765625,-0.78955078125,-256.82926829268297,216.52439024390245,-150.4268292682927,155,2
309,-0.83935546875,-0.501953125,-0.73583984375,-237.37804878048783,182.8048780487805,-138.2317073170732,155,2
310,-0.896484375,-0.61962890625,-0.6279296875,-228.59756097560978,186.89024390243904,-135.1219512195122,155,2
311,-0.81201171875,-0.4267578125,-0.55615234375,-232.19512195121953,163.53658536585368,-132.8658536585366,155,2
312,-0.6611328125,-0.2431640625,-0.6787109375,-232.19512195121953,149.26829268292684,-127.62195121951221,155,2
313,-0.599609375,-0.15625,-0.83935546875,-224.26829268292684,138.90243902439025,-119.45121951219514,155,2
314,-0.611328125,-0.27392578125,-0.9306640625,-215.6707317073171,125.3048780487805,-107.50000000000001,155,2
315,-0.76953125,-0.4208984375,-0.90625,-197.9268292682927,116.03658536585367,-96.21951219512196,155,2
316,-1.0224609375,-0.53759765625,-0.77001953125,-179.39024390243904,104.69512195121952,-87.8048780487805,155,2
317,-1.16162109375,-0.55859375,-0.68359375,-164.93902439024393,98.23170731707317,-82.50000000000001,155,2
318,-1.1943359375,-0.474609375,-0.6552734375,-157.5,90.3048780487805,-76.34146341463415,155,2
319,-1.13623046875,-0.3623046875,-0.71875,-156.95121951219514,84.39024390243902,-67.7439024390244,155,2
320,-1.00634765625,-0.34130859375,-0.81787109375,-155.5487804878049,73.71951219512195,-58.35365853658537,155,2
321,-1.14404296875,-0.25830078125,-0.90625,-144.81707317073173,63.71951219512196,-47.987804878048784,155,2
322,-1.2080078125,-0.48681640625,-0.890625,-131.46341463414635,50.85365853658537,-38.53658536585366,155,2
323,-1.27734375,-0.52880859375,-0.88671875,-112.7439024390244,38.41463414634147,-28.59756097560976,155,2
324,-1.31884765625,-0.58154296875,-0.84375,-98.71951219512196,30.000000000000004,-17.5,155,2
325,-1.30419921875,-0.62060546875,-0.87353515625,-88.47560975609757,22.378048780487806,-6.52439024390244,155,2
326,-1.25634765625,-0.50244140625,-0.830078125,-75.60975609756098,12.682926829268293,3.5975609756097566,155,2
327,-1.212890625,-0.58447265625,-0.77490234375,-62.804878048780495,3.536585365853659,12.865853658536587,155,2
328,-1.1630859375,-0.5419921875,-0.86083984375,-51.82926829268293,-4.329268292682928,18.53658536585366,155,2
329,-1.2470703125,-0.43115234375,-0.6630859375,-44.390243902439025,-12.134146341463415,23.231707317073173,155,2
330,-1.06201171875,-0.357421875,-0.63134765625,-37.987804878048784,-0.3658536585365854,26.03658536585366,155,2
331,-1.0478515625,-0.29443359375,-0.6201171875,-31.76829268292683,-22.378048780487806,28.719512195121954,155,2
332,-1.06640625,-0.2744140625,-0.50634765625,-24.02439024390244,-29.451219512195124,31.52439024390244,155,2
333,-1.11376953125,-0.26513671875,-0.65234375,-17.31707317073171,-38.04878048780488,34.08536585365854,155,2
334,-1.13818359375,-0.236328125,-0.685546875,-11.036585365853659,-31.76829268292683,37.25609756097561,155,2
335,-1.14794921875,-0.228515625,-0.68896484375,-3.9024390243902443,-55.97560975609757,40.304878048780495,155,2
336,-1.14404296875,-0.20849609375,-0.66015625,4.939024390243903,-63.23170731707317,43.71951219512196,155,2
337,-1.12353515625,-0.18603515625,-0.59033203125,13.902439024390246,-68.96341463414635,47.926829268292686,155,2
338,-1.0048828125,-0.1806640625,-0.52685546875,19.146341463414636,-74.26829268292684,52.07317073170732,155,2
339,-1.13232421875,-0.1591796875,-0.62255859375,24.085365853658537,-75.91463414634147,55.365853658536594,155,2
340,-1.1328125,-0.13427734375,-0.4345703125,27.682926829268297,-81.09756097560977,58.84146341463415,155,2
341,-1.1123046875,-0.11376953125,-0.44775390625,30.182926829268297,-87.37804878048782,60.304878048780495,155,2
342,-1.0791015625,-0.0478515625,-0.42578125,33.41463414634146,-92.8658536585366,62.31707317073171,155,2
343,-1.09619140625,-0.04248046875,-0.49609375,34.93902439024391,-98.96341463414635,63.35365853658537,155,2
344,-1.1220703125,-0.04150390625,-0.35009765625,36.524390243902445,-102.8658536585366,63.65853658536586,155,2
345,-1.1376953125,-0.04296875,-0.31494140625,37.13414634146342,-106.52439024390245,63.53658536585366,155,2
346,-1.15234375,-0.0263671875,-0.279296875,38.65853658536586,-93.84146341463415,63.35365853658537,155,2
347,-1.15185546875,0.00732421875,-0.27001953125,40.73170731707317,-111.82926829268294,63.04878048780488,155,2
348,-1.14111328125,0.033203125,-0.28076171875,43.53658536585366,-114.32926829268294,62.804878048780495,155,2
349,-1.1484375,0.04345703125,-0.375,48.35365853658537,-119.02439024390245,63.41463414634147,155,2
350,-1.16455078125,0.04345703125,-0.21484375,53.963414634146346,-123.53658536585367,63.90243902439025,155,2
351,-1.17236328125,0.03515625,-0.17578125,57.31707317073171,-126.34146341463416,64.51219512195122,155,2
352,-1.1708984375,0.03271484375,-0.0947265625,58.71951219512196,-125.91463414634147,65.3048780487805,155,2
353,-1.16845703125,0.02978515625,-0.03515625,57.804878048780495,-125.54878048780489,66.03658536585367,155,2
354,-1.140625,0.05712890625,0.0029296875,56.34146341463415,-124.69512195121952,66.58536585365854,155,2
355,-1.11962890625,0.07421875,0.02001953125,54.69512195121952,-123.23170731707319,66.82926829268293,155,2
356,-1.0869140625,0.11376953125,0.01806640625,54.51219512195122,-123.17073170731709,67.19512195121952,155,2
357,-1.060546875,0.14208984375,0.0185546875,56.524390243902445,-126.46341463414635,67.19512195121952,155,2
358,-1.02392578125,0.16455078125,0.02490234375,60.54878048780488,-131.52439024390245,66.28048780487805,155,2
359,-1.00634765625,0.19482421875,0.01513671875,64.14634146341464,-135.1829268292683,65.54878048780489,155,2
360,-0.9833984375,0.1845703125,0.05078125,64.9390243902439,-135.6707317073171,64.51219512195122,155,2
361,-0.95458984375,0.1943359375,0.08935546875,65.0,-137.9268292682927,65.0609756097561,155,2
362,-0.95556640625,0.17919921875,0.10888671875,64.26829268292684,-139.02439024390245,64.75609756097562,155,2
363,-0.9443359375,0.17919921875,0.13330078125,65.42682926829269,-140.7317073170732,64.08536585365854,155,2
364,-0.947265625,0.1650390625,0.17138671875,67.5609756097561,-143.71951219512195,63.17073170731708,155,2
365,-0.93359375,0.1865234375,0.189453125,70.2439024390244,-145.6707317073171,62.01219512195122,155,2
366,-0.91796875,0.1845703125,0.208984375,71.28048780487805,-145.4268292682927,60.365853658536594,155,2
367,-0.8916015625,0.2197265625,0.21533203125,70.97560975609757,-144.26829268292684,58.53658536585366,155,2
368,-0.83837890625,0.2646484375,0.216796875,70.85365853658537,-144.32926829268294,57.560975609756106,155,2
369,-0.82958984375,0.29345703125,0.23681640625,70.0609756097561,-145.0609756097561,58.29268292682927,155,2
370,-0.82958984375,0.28369140625,0.2431640625,69.63414634146342,-148.59756097560978,59.63414634146342,155,2
371,-0.841796875,0.271484375,0.25439453125,70.48780487804879,-150.609756097561,58.84146341463415,155,2
372,-0.830078125,0.27783203125,0.283203125,72.98780487804879,-151.89024390243904,58.04878048780488,155,2
373,-0.787109375,0.310546875,0.30859375,75.0609756097561,-153.53658536585368,57.865853658536594,155,2
374,-0.6279296875,0.31298828125,0.337890625,74.20731707317074,-154.45121951219514,57.987804878048784,155,2
375,-0.7392578125,0.2861328125,0.34619140625,71.64634146341464,-153.84146341463415,57.926829268292686,155,2
376,-0.7119140625,0.29443359375,0.3701171875,72.19512195121952,-153.71951219512195,57.50000000000001,155,2
377,-0.70703125,0.2998046875,0.38720703125,73.59756097560977,-153.0487804878049,56.951219512195124,155,2
378,-0.66796875,0.30712890625,0.416015625,72.43902439024392,-148.59756097560978,56.463414634146346,155,2
379,-0.64306640625,0.30859375,0.42724609375,66.70731707317074,-143.35365853658539,55.85365853658537,155,2
380,-0.62646484375,0.3310546875,0.4580078125,61.707317073170735,-138.96341463414635,55.0609756097561,155,2
381,-0.607421875,0.369140625,0.50390625,60.365853658536594,-135.3048780487805,54.63414634146342,155,2
382,-0.5927734375,0.400390625,0.52294921875,61.28048780487806,-134.45121951219514,54.81707317073171,155,2
383,-0.580078125,0.4052734375,0.5166015625,64.02439024390245,-138.84146341463415,56.03658536585366,155,2
384,-0.62451171875,0.35791015625,0.44970703125,68.17073170731707,-143.59756097560978,56.15853658536586,155,2
385,-0.63671875,0.328125,0.42041015625,75.60975609756098,-148.41463414634148,55.365853658536594,155,2
386,-0.6357421875,0.3447265625,0.44287109375,83.96341463414635,-152.07317073170734,54.51219512195122,155,2
387,-0.5947265625,0.3857421875,0.47509765625,88.78048780487805,-155.3658536585366,54.51219512195122,155,2
388,-0.5498046875,0.40673828125,0.54052734375,87.37804878048782,-151.82926829268294,54.63414634146342,155,2
389,-0.52490234375,0.41650390625,0.54736328125,92.8048780487805,-144.45121951219514,54.32926829268293,155,2
390,-0.49169921875,0.4482421875,0.5595703125,68.10975609756098,-138.2317073170732,54.207317073170735,155,2
391,-0.49169921875,0.43505859375,0.59033203125,63.10975609756098,-134.57317073170734,54.63414634146342,155,2
392,-0.47119140625,0.43115234375,0.6142578125,62.6219512195122,-132.13414634146343,55.73170731707317,155,2
393,-0.458984375,0.4365234375,0.64599609375,64.51219512195122,-131.52439024390245,57.926829268292686,155,2
394,-0.45751953125,0.42333984375,0.63525390625,67.7439024390244,-134.45121951219514,60.243902439024396,155,2
395,-0.48046875,0.39013671875,0.5458984375,73.10975609756098,-139.81707317073173,62.743902439024396,155,2
396,-0.5,0.38916015625,0.49072265625,78.41463414634147,-142.19512195121953,62.13414634146342,155,2
397,-0.4912109375,0.40966796875,0.4892578125,79.69512195121952,-143.65853658536588,61.82926829268293,155,2
398,-0.45947265625,0.455078125,0.515625,77.25609756097562,-142.5609756097561,62.07317073170732,155,2
399,-0.40966796875,0.49169921875,0.51513671875,69.81707317073172,-139.81707317073173,63.10975609756098,155,2
400,-0.40185546875,0.48291015625,0.560546875,61.524390243902445,-135.609756097561,64.57317073170732,155,2
401,-0.3935546875,0.45654296875,0.58154296875,56.21951219512196,-133.71951219512195,66.70731707317074,155,2
402,-0.376953125,0.46484375,0.62255859375,54.75609756097561,-133.2926829268293,68.47560975609757,155,2
403,-0.359375,0.46875,0.63671875,56.524390243902445,-133.96341463414635,71.34146341463415,155,2
404,-0.361328125,0.4619140625,0.61865234375,58.23170731707317,-133.71951219512195,73.71951219512195,155,2
405,-0.34033203125,0.4736328125,0.58447265625,57.865853658536594,-133.1707317073171,75.0609756097561,155,2
406,-0.30419921875,0.48388671875,0.537109375,57.37804878048781,-133.78048780487805,76.95121951219512,155,2
407,-0.36376953125,0.49072265625,0.49072265625,57.50000000000001,-136.28048780487805,78.90243902439025,155,2
408,-0.205078125,0.47802734375,0.458984375,55.365853658536594,-136.52439024390245,78.23170731707317,155,2
409,-0.13818359375,0.51220703125,0.4765625,53.47560975609757,-137.8048780487805,62.43902439024391,155,2
410,-0.1025390625,0.5419921875,0.5146484375,52.37804878048781,-139.63414634146343,78.90243902439025,155,2
411,-0.07080078125,0.57568359375,0.548828125,51.40243902439025,-140.3048780487805,79.32926829268294,155,2
412,-0.0576171875,0.57177734375,0.57080078125,50.243902439024396,-139.57317073170734,79.81707317073172,155,2
413,-0.0400390625,0.58544921875,0.6064453125,48.41463414634147,-137.13414634146343,80.0,155,2
414,-0.0322265625,0.599609375,0.5927734375,45.54878048780488,-134.39024390243904,80.48780487804879,155,2
415,-0.03271484375,0.6015625,0.59228515625,42.6219512195122,-131.28048780487805,81.40243902439025,155,2
416,-0.017578125,0.58203125,0.58984375,42.31707317073171,-131.89024390243904,83.04878048780489,155,2
417,-0.03076171875,0.533203125,0.541015625,43.35365853658537,-130.7926829268293,82.31707317073172,155,2
418,0.00390625,0.54638671875,0.54638671875,46.21951219512196,-130.3048780487805,82.07317073170732,155,2
419,0.0322265625,0.5625,0.5341796875,50.00000000000001,-131.15853658536585,82.6829268292683,155,2
420,0.083984375,0.59228515625,0.61865234375,52.43902439024391,-131.82926829268294,83.35365853658537,155,2
421,0.103515625,0.60400390625,0.45263671875,52.50000000000001,-132.8048780487805,84.93902439024392,155,2
422,0.1220703125,0.619140625,0.42333984375,52.86585365853659,-135.5487804878049,86.95121951219512,155,2
423,0.12890625,0.646484375,0.43505859375,51.40243902439025,-136.58536585365854,87.8048780487805,155,2
424,0.15576171875,0.64794921875,0.521484375,45.60975609756098,-132.8048780487805,88.71951219512196,155,2
425,0.17041015625,0.6435546875,0.5712890625,36.707317073170735,-128.0487804878049,89.87804878048782,155,2
426,0.1748046875,0.6474609375,0.5947265625,28.719512195121954,-122.92682926829269,90.00000000000001,155,2
427,0.16845703125,0.62841796875,0.6162109375,25.792682926829272,-120.91463414634147,91.03658536585367,155,2
428,0.150390625,0.60888671875,0.6142578125,25.914634146341466,-120.54878048780489,91.95121951219512,155,2
429,0.146484375,0.58203125,0.5712890625,27.073170731707318,-120.91463414634147,93.78048780487806,155,2
430,0.1611328125,0.56884765625,0.576171875,28.84146341463415,-121.28048780487806,95.54878048780489,155,2
431,0.19921875,0.5634765625,0.548828125,34.024390243902445,-126.21951219512196,97.5609756097561,155,2
432,0.21435546875,0.55908203125,0.5234375,39.024390243902445,-128.2926829268293,97.5609756097561,155,2
433,0.2666015625,0.58740234375,0.54150390625,45.0609756097561,-130.85365853658539,99.02439024390245,155,2
434,0.3125,0.5986328125,0.5498046875,49.87804878048781,-130.85365853658539,100.1829268292683,155,2
435,0.36279296875,0.6162109375,0.58056640625,48.71951219512196,-125.60975609756099,98.47560975609757,155,2
436,0.4052734375,0.74853515625,0.56640625,43.04878048780488,-118.59756097560977,98.59756097560977,155,2
437,0.43017578125,0.64501953125,0.55908203125,35.97560975609756,-111.58536585365854,96.82926829268294,155,2
438,0.45654296875,0.64990234375,0.548828125,46.40243902439025,-106.34146341463416,97.01219512195122,155,2
439,0.4609375,0.646484375,0.53515625,27.926829268292686,-104.51219512195122,97.50000000000001,155,2
440,0.4580078125,0.74267578125,0.49755859375,25.54878048780488,-102.98780487804879,100.06097560975611,155,2
441,0.4384765625,0.60009765625,0.46240234375,24.146341463414636,-102.7439024390244,101.64634146341464,155,2
442,0.45703125,0.5849609375,0.47607421875,26.09756097560976,-105.2439024390244,103.29268292682927,155,2
443,0.47412109375,0.5693359375,0.48095703125,16.03658536585366,-110.1219512195122,105.00000000000001,155,2
444,0.47021484375,0.5458984375,0.45556640625,36.21951219512196,-112.6829268292683,104.75609756097562,155,2
445,0.52099609375,0.5576171875,0.42919921875,39.451219512195124,-114.63414634146342,103.96341463414635,155,2
446,0.5810546875,0.5927734375,0.421875,41.82926829268293,-116.70731707317074,103.35365853658537,155,2
447,0.6220703125,0.60888671875,0.40087890625,42.07317073170732,-117.31707317073172,103.10975609756099,155,2
448,0.6435546875,0.59912109375,0.3525390625,35.91463414634147,-115.67073170731709,101.40243902439025,155,2
449,0.69775390625,0.619140625,0.2998046875,28.84146341463415,-114.87804878048782,100.3658536585366,155,2
450,0.70068359375,0.61083984375,0.31884765625,25.0609756097561,-115.60975609756099,100.73170731707317,155,2
451,0.705078125,0.6083984375,0.2998046875,23.902439024390247,-118.41463414634147,101.21951219512196,155,2
452,0.69189453125,0.58935546875,0.30029296875,23.170731707317074,-120.3658536585366,101.15853658536587,155,2
453,0.673828125,0.5654296875,0.33154296875,24.26829268292683,-121.03658536585367,101.52439024390245,155,2
454,0.68359375,0.5322265625,0.35009765625,23.414634146341466,-119.26829268292684,99.87804878048782,155,2
455,0.70361328125,0.51171875,0.328125,20.731707317073173,-115.48780487804879,99.02439024390245,155,2
456,0.705078125,0.50439453125,0.34375,17.621951219512198,-111.46341463414635,97.6219512195122,155,2
457,0.72021484375,0.5068359375,0.35888671875,15.182926829268293,-106.21951219512196,94.51219512195122,155,2
458,0.759765625,0.52099609375,0.33837890625,13.963414634146343,-100.54878048780489,91.82926829268294,155,2
459,0.77685546875,0.51904296875,0.30712890625,14.695121951219514,-97.37804878048782,90.3658536585366,155,2
460,0.76416015625,0.5048828125,0.373046875,18.902439024390244,-99.08536585365854,89.32926829268294,155,2
461,0.72509765625,0.50732421875,0.2099609375,22.80487804878049,-99.02439024390245,88.71951219512196,155,2
462,0.7119140625,0.48779296875,0.2138671875,25.182926829268293,-97.5609756097561,88.53658536585367,155,2
463,0.73291015625,0.51025390625,0.21826171875,24.146341463414636,-95.1829268292683,88.59756097560977,155,2
464,0.73291015625,0.5224609375,0.22119140625,19.634146341463417,-90.1219512195122,89.26829268292684,155,2
465,0.7373046875,0.51318359375,0.22412109375,14.207317073170733,-85.00000000000001,89.20731707317074,155,2
466,0.74755859375,0.5078125,0.22509765625,11.158536585365855,-81.15853658536587,88.53658536585367,155,2
467,0.76220703125,0.4814453125,0.24072265625,10.975609756097562,-79.08536585365854,87.50000000000001,155,2
468,0.77001953125,0.45654296875,0.21875,11.158536585365855,-77.8658536585366,85.85365853658537,155,2
469,0.7783203125,0.44287109375,0.18408203125,12.134146341463415,-76.52439024390245,84.02439024390245,155,2
470,0.78125,0.43408203125,0.177734375,14.329268292682928,-76.89024390243902,82.50000000000001,155,2
471,0.810546875,0.4326171875,0.1298828125,16.158536585365855,-77.31707317073172,80.54878048780489,155,2
472,0.80810546875,0.42333984375,0.12548828125,17.743902439024392,-77.5609756097561,79.08536585365854,155,2
473,0.810546875,0.42236328125,0.1435546875,19.390243902439025,-76.46341463414635,76.34146341463415,155,2
474,0.82958984375,0.43115234375,0.15283203125,21.03658536585366,-75.48780487804879,73.71951219512195,155,2
475,0.84130859375,0.44189453125,0.1435546875,20.731707317073173,-73.10975609756098,70.73170731707317,155,2
476,0.83740234375,0.435546875,0.10205078125,15.670731707317074,-69.20731707317074,66.95121951219512,155,2
477,0.8681640625,0.466796875,0.08056640625,10.30487804878049,-64.69512195121952,63.35365853658537,155,2
478,0.86328125,0.48046875,0.07421875,6.158536585365854,-61.707317073170735,60.73170731707317,155,2
479,0.87109375,0.4892578125,0.0888671875,2.804878048780488,-60.97560975609757,59.63414634146342,155,2
480,0.8291015625,0.43408203125,0.08935546875,2.0121951219512195,-59.81707317073171,57.865853658536594,155,2
481,0.80029296875,0.39501953125,0.001953125,3.780487804878049,-59.87804878048781,55.1219512195122,155,2
482,0.7763671875,0.41357421875,0.17431640625,5.548780487804878,-58.04878048780488,52.804878048780495,155,2
483,0.78564453125,0.4130859375,0.1787109375,6.7682926829268295,-55.97560975609757,50.36585365853659,155,2
484,0.78076171875,0.40625,0.15283203125,7.317073170731708,-53.47560975609757,47.6829268292683,155,2
485,0.76611328125,0.4033203125,0.12744140625,6.829268292682928,-49.87804878048781,44.390243902439025,155,2
486,0.78857421875,0.41845703125,0.09619140625,6.7682926829268295,-62.25609756097562,41.524390243902445,155,2
487,0.80224609375,0.42333984375,0.064453125,6.52439024390244,-43.84146341463415,38.53658536585366,155,2
488,0.8037109375,0.416015625,0.037109375,5.426829268292684,-41.09756097560976,35.36585365853659,155,2
489,0.8095703125,0.40966796875,0.013671875,3.1097560975609757,-37.86585365853659,31.463414634146343,155,2
490,0.79833984375,0.419921875,-0.11376953125,-0.853658536585366,-33.90243902439025,27.926829268292686,155,2
491,0.79931640625,0.42529296875,0.03369140625,-3.2926829268292686,-29.634146341463417,25.182926829268293,155,2
492,0.796875,0.41650390625,0.052734375,-4.878048780487806,-25.000000000000004,21.890243902439025,155,2
493,0.7822265625,0.39013671875,0.0556640625,-6.585365853658537,-20.48780487804878,19.75609756097561,155,2
494,0.74951171875,0.349609375,0.03271484375,-7.743902439024391,-16.402439024390244,17.5609756097561,155,2
495,0.71630859375,0.31298828125,0.00537109375,-7.865853658536586,-12.865853658536587,15.79268292682927,155,2
496,0.7265625,0.33251953125,-0.01611328125,-8.841463414634147,-8.231707317073171,14.878048780487806,155,2
497,0.7353515625,0.341796875,-0.0048828125,-11.463414634146343,-3.536585365853659,14.085365853658537,155,2
498,0.74072265625,0.32763671875,0.1201171875,-13.963414634146343,1.1585365853658538,13.29268292682927,155,2
499,0.74267578125,0.30224609375,-0.00390625,-15.487804878048783,5.2439024390243905,11.52439024390244,155,2
