,Ax,Ay,Az,Gx,Gy,Gz,distance,shot_type
0,0.77880859375,-0.2578125,-0.158203125,6.036585365853659,-3.658536585365854,1.402439024390244,90,8
1,0.80078125,-0.2490234375,-0.15966796875,5.3048780487804885,-2.439024390243903,-0.30487804878048785,90,8
2,0.7919921875,-0.28369140625,-0.1748046875,7.134146341463415,-1.9512195121951221,-2.1951219512195124,90,8
3,0.7841796875,-0.2998046875,-0.16650390625,10.0,-1.402439024390244,-3.7195121951219514,90,8
4,0.796875,-0.29150390625,-0.17724609375,9.695121951219512,0.3658536585365854,-5.121951219512195,90,8
5,0.81005859375,-0.279296875,-0.18408203125,8.963414634146343,2.073170731707317,-6.036585365853659,90,8
6,0.7919921875,-0.33203125,-0.16748046875,8.170731707317074,3.8414634146341466,-5.731707317073171,90,8
7,0.873046875,-0.40380859375,-0.1513671875,8.353658536585366,5.670731707317073,-5.3048780487804885,90,8
8,0.71533203125,-0.4228515625,-0.142578125,10.670731707317074,6.52439024390244,-6.097560975609756,90,8
9,0.72119140625,-0.39697265625,-0.13916015625,12.439024390243903,7.987804878048781,-7.682926829268293,90,8
10,0.63623046875,-0.34326171875,-0.1162109375,13.170731707317074,9.02439024390244,-9.695121951219512,90,8
11,0.7939453125,-0.32958984375,-0.11474609375,13.109756097560977,11.341463414634147,-11.829268292682928,90,8
12,0.79248046875,-0.3271484375,-0.14013671875,10.365853658536587,13.170731707317074,-13.475609756097562,90,8
13,0.79150390625,-0.35205078125,-0.16259765625,6.52439024390244,15.30487804878049,-14.085365853658537,90,8
14,0.7763671875,-0.40771484375,-0.17236328125,3.2926829268292686,16.219512195121954,-14.695121951219514,90,8
15,0.7724609375,-0.45263671875,-0.19677734375,1.6463414634146343,16.70731707317073,-14.634146341463415,90,8
16,0.75439453125,-0.4912109375,-0.19287109375,1.3414634146341464,16.34146341463415,-15.182926829268293,90,8
17,0.74365234375,-0.51806640625,-0.18212890625,3.780487804878049,14.26829268292683,-16.03658536585366,90,8
18,0.72998046875,-0.56982421875,-0.203125,8.109756097560977,11.463414634146343,-16.158536585365855,90,8
19,0.68310546875,-0.6171875,-0.216796875,12.865853658536587,8.475609756097562,-15.670731707317074,90,8
20,0.67529296875,-0.65673828125,-0.24365234375,15.121951219512196,7.621951219512196,-14.573170731707318,90,8
21,0.6748046875,-0.6552734375,-0.26611328125,14.207317073170733,7.926829268292684,-12.560975609756099,90,8
22,0.6533203125,-0.67724609375,-0.27734375,11.890243902439025,9.634146341463415,-10.30487804878049,90,8
23,0.64453125,-0.70947265625,-0.30078125,6.7682926829268295,12.682926829268293,-7.865853658536586,90,8
24,0.74755859375,-0.74609375,-0.3046875,0.9756097560975611,0.1829268292682927,-5.914634146341464,90,8
25,0.60498046875,-0.76123046875,-0.3095703125,-2.9268292682926833,17.31707317073171,-3.5975609756097566,90,8
26,0.58349609375,-0.78173828125,-0.2919921875,-4.390243902439025,16.585365853658537,-1.4634146341463417,90,8
27,0.56005859375,-0.79541015625,-0.3017578125,-2.682926829268293,13.963414634146343,1.0365853658536586,90,8
28,0.52734375,-0.82177734375,-0.31103515625,1.707317073170732,8.597560975609756,4.024390243902439,90,8
29,0.4951171875,-0.81640625,-0.29296875,7.073170731707318,3.1097560975609757,7.073170731707318,90,8
30,0.470703125,-0.80517578125,-0.26611328125,10.0,-0.3658536585365854,9.634146341463415,90,8
31,0.48486328125,-0.77392578125,-0.27587890625,10.121951219512196,-1.829268292682927,12.073170731707318,90,8
32,0.50634765625,-0.73779296875,-0.32373046875,9.02439024390244,-2.378048780487805,14.085365853658537,90,8
33,0.53466796875,-0.7236328125,-0.3203125,5.914634146341464,-0.9756097560975611,0.06097560975609757,90,8
34,0.5478515625,-0.72265625,-0.310546875,2.5,0.30487804878048785,17.134146341463417,90,8
35,0.55615234375,-0.7138671875,-0.2802734375,1.829268292682927,1.0365853658536586,18.04878048780488,90,8
36,0.58447265625,-0.69140625,-0.25146484375,2.804878048780488,0.7317073170731708,17.804878048780488,90,8
37,0.595703125,-0.6533203125,-0.21630859375,4.573170731707317,-0.06097560975609757,16.951219512195124,90,8
38,0.60986328125,-0.59765625,-0.1923828125,6.585365853658537,-0.7317073170731708,15.060975609756099,90,8
39,0.658203125,-0.54248046875,-0.1728515625,8.292682926829269,-2.6219512195121952,12.987804878048781,90,8
40,0.70458984375,-0.47314453125,-0.18017578125,10.487804878048781,-4.207317073170732,11.097560975609756,90,8
41,0.728515625,-0.42138671875,-0.1494140625,14.02439024390244,-6.402439024390245,9.329268292682928,90,8
42,0.72314453125,-0.42333984375,-0.125,17.195121951219512,-6.097560975609756,7.743902439024391,90,8
43,0.7216796875,-0.38818359375,-0.1044921875,18.53658536585366,-6.2804878048780495,6.097560975609756,90,8
44,0.72509765625,-0.35546875,-0.14404296875,19.512195121951223,-7.743902439024391,4.634146341463415,90,8
45,0.7548828125,-0.31640625,-0.17919921875,18.719512195121954,-5.731707317073171,3.231707317073171,90,8
46,0.794921875,-0.2724609375,-0.1923828125,15.121951219512196,-2.682926829268293,1.0365853658536586,90,8
47,0.8115234375,-0.2763671875,-0.2021484375,9.878048780487806,2.439024390243903,-0.426829268292683,90,8
48,0.81396484375,-0.27392578125,-0.20849609375,2.378048780487805,8.536585365853659,-2.439024390243903,90,8
49,0.83740234375,-0.267578125,-0.18701171875,-0.9146341463414634,12.926829268292684,-3.658536585365854,90,8
50,0.814453125,-0.3173828125,-0.1787109375,-2.804878048780488,14.695121951219514,-4.634146341463415,90,8
51,0.796875,-0.35498046875,-0.18408203125,-1.3414634146341464,15.243902439024392,-4.207317073170732,90,8
52,0.7451171875,-0.4443359375,-0.15234375,1.6463414634146343,15.060975609756099,-3.1097560975609757,90,8
53,0.68310546875,-0.51318359375,-0.1337890625,5.609756097560976,14.02439024390244,-2.1951219512195124,90,8
54,0.65673828125,-0.5224609375,-0.1259765625,10.365853658536587,11.646341463414634,-2.439024390243903,90,8
55,0.6796875,-0.48779296875,-0.1357421875,13.902439024390246,10.548780487804878,-3.8414634146341466,90,8
56,0.70361328125,-0.4306640625,-0.1435546875,15.121951219512196,10.609756097560977,-5.670731707317073,90,8
57,0.72265625,-0.41552734375,-0.162109375,13.597560975609758,12.01219512195122,-7.682926829268293,90,8
58,0.73779296875,-0.4228515625,-0.1845703125,9.939024390243903,14.51219512195122,-8.963414634146343,90,8
59,0.71923828125,-0.4482421875,-0.1728515625,5.121951219512195,17.5609756097561,-9.451219512195122,90,8
60,0.70654296875,-0.47412109375,-0.15869140625,2.1341463414634148,19.695121951219512,-9.695121951219512,90,8
61,0.70458984375,-0.5126953125,-0.13330078125,1.402439024390244,20.975609756097562,-9.695121951219512,90,8
62,0.6962890625,-0.53662109375,-0.11083984375,1.7682926829268295,21.28048780487805,-9.085365853658537,90,8
63,0.6640625,-0.58251953125,-0.11669921875,3.048780487804878,19.26829268292683,-8.963414634146343,90,8
64,0.67138671875,-0.5791015625,-0.1083984375,7.560975609756098,15.914634146341465,-9.26829268292683,90,8
65,0.669921875,-0.5859375,-0.115234375,11.76829268292683,13.170731707317074,-8.78048780487805,90,8
66,0.68359375,-0.611328125,-0.12841796875,15.30487804878049,11.402439024390246,-8.231707317073171,90,8
67,0.66455078125,-0.6298828125,-0.14208984375,17.98780487804878,10.426829268292684,-7.073170731707318,90,8
68,0.662109375,-0.63818359375,-0.15234375,18.475609756097562,9.878048780487806,-6.158536585365854,90,8
69,0.66015625,-0.62060546875,-0.15625,17.25609756097561,11.402439024390246,-5.548780487804878,90,8
70,0.6708984375,-0.61376953125,-0.1552734375,15.243902439024392,14.02439024390244,-4.51219512195122,90,8
71,0.666015625,-0.64404296875,-0.16015625,12.256097560975611,16.951219512195124,-3.4756097560975614,90,8
72,0.6591796875,-0.658203125,-0.16455078125,10.060975609756099,19.390243902439025,-2.073170731707317,90,8
73,0.6591796875,-0.66845703125,-0.1474609375,8.475609756097562,20.670731707317074,-0.48780487804878053,90,8
74,0.654296875,-0.66845703125,-0.13134765625,8.353658536585366,21.402439024390247,1.1585365853658538,90,8
75,0.6376953125,-0.6904296875,-0.13720703125,8.536585365853659,22.439024390243905,2.439024390243903,90,8
76,0.64404296875,-0.681640625,-0.150390625,9.26829268292683,22.926829268292686,3.414634146341464,90,8
77,0.6201171875,-0.6806640625,-0.11865234375,9.939024390243903,24.939024390243905,3.7195121951219514,90,8
78,0.63330078125,-0.65380859375,-0.09619140625,9.817073170731708,25.670731707317074,3.2926829268292686,90,8
79,0.64404296875,-0.60302734375,-0.1025390625,10.487804878048781,26.707317073170735,3.1097560975609757,90,8
80,0.646484375,-0.60888671875,-0.09326171875,8.841463414634147,28.231707317073173,3.9024390243902443,90,8
81,0.64404296875,-0.60791015625,-0.06982421875,6.585365853658537,30.853658536585368,5.609756097560976,90,8
82,0.646484375,-0.6240234375,-0.04052734375,5.121951219512195,33.84146341463415,6.707317073170732,90,8
83,0.66162109375,-0.609375,-0.01806640625,2.9268292682926833,37.31707317073171,7.682926829268293,90,8
84,0.67333984375,-0.58251953125,-0.02099609375,-0.3658536585365854,40.91463414634147,7.926829268292684,90,8
85,0.69189453125,-0.552734375,-0.03466796875,-3.9024390243902443,44.32926829268293,7.439024390243903,90,8
86,0.69677734375,-0.55029296875,-0.0234375,-5.060975609756098,46.40243902439025,7.500000000000001,90,8
87,0.67578125,-0.5712890625,-0.01171875,-4.695121951219512,47.6829268292683,7.682926829268293,90,8
88,0.66259765625,-0.580078125,-0.0146484375,-2.682926829268293,48.04878048780488,7.8048780487804885,90,8
89,0.6396484375,-0.58935546875,0.01220703125,-0.24390243902439027,48.53658536585366,9.207317073170733,90,8
90,0.626953125,-0.6015625,0.0087890625,2.1951219512195124,48.170731707317074,11.219512195121952,90,8
91,0.60498046875,-0.6103515625,0.001953125,4.878048780487806,48.71951219512196,12.926829268292684,90,8
92,0.62060546875,-0.62255859375,0.02783203125,8.048780487804878,49.87804878048781,15.914634146341465,90,8
93,0.63525390625,-0.6142578125,0.01416015625,5.060975609756098,51.82926829268293,18.170731707317074,90,8
94,0.66064453125,-0.6103515625,-0.0576171875,-1.0365853658536586,57.07317073170732,20.670731707317074,90,8
95,0.6923828125,-0.55859375,-0.00048828125,-8.658536585365855,61.463414634146346,22.5609756097561,90,8
96,0.70751953125,-0.5224609375,-0.16064453125,-18.29268292682927,65.60975609756098,22.195121951219512,90,8
97,0.76318359375,-0.46240234375,-0.18017578125,-24.878048780487806,72.5609756097561,21.585365853658537,90,8
98,0.78857421875,-0.43017578125,-0.15625,-35.85365853658537,80.3048780487805,20.30487804878049,90,8
99,0.818359375,-0.38623046875,-0.16943359375,-43.65853658536586,84.63414634146342,19.390243902439025,90,8
100,0.791015625,-0.38330078125,-0.12646484375,-49.75609756097561,87.98780487804879,19.573170731707318,90,8
101,0.7373046875,-0.41455078125,-0.09814453125,-52.50000000000001,89.51219512195122,18.414634146341466,90,8
102,0.736328125,-0.41357421875,-0.10888671875,-51.707317073170735,87.5609756097561,18.04878048780488,90,8
103,0.72802734375,-0.38916015625,-0.00146484375,-49.085365853658544,82.8048780487805,18.231707317073173,90,8
104,0.7333984375,-0.37158203125,-0.15234375,-48.65853658536586,80.73170731707317,17.804878048780488,90,8
105,0.71875,-0.34033203125,-0.19384765625,-51.21951219512196,79.26829268292684,16.76829268292683,90,8
106,0.73828125,-0.28173828125,-0.21728515625,-54.32926829268293,78.35365853658537,12.74390243902439,90,8
107,0.779296875,-0.27490234375,-0.2275390625,-55.60975609756098,77.37804878048782,9.939024390243903,90,8
108,0.78076171875,-0.32666015625,-0.251953125,-55.54878048780488,72.37804878048782,7.621951219512196,90,8
109,0.7529296875,-0.3671875,-0.248046875,-52.6829268292683,64.51219512195122,5.426829268292684,90,8
110,0.74169921875,-0.3544921875,-0.27978515625,-48.04878048780488,57.43902439024391,2.987804878048781,90,8
111,0.70068359375,-0.37060546875,-0.37255859375,-44.268292682926834,50.97560975609756,1.829268292682927,90,8
112,0.68408203125,-0.37451171875,-0.232421875,-41.463414634146346,46.34146341463415,-1.2804878048780488,90,8
113,0.73486328125,-0.28515625,-0.25146484375,-40.487804878048784,41.951219512195124,-6.158536585365854,90,8
114,0.77197265625,-0.1826171875,-0.26123046875,-45.0609756097561,39.63414634146342,-10.365853658536587,90,8
115,0.78564453125,-0.16552734375,-0.29248046875,-52.19512195121952,38.53658536585366,-15.121951219512196,90,8
116,0.78173828125,-0.18212890625,-0.28173828125,-56.34146341463415,36.40243902439025,-18.10975609756098,90,8
117,0.7724609375,-0.22900390625,-0.28076171875,-57.13414634146342,33.170731707317074,-20.426829268292686,90,8
118,0.76220703125,-0.27001953125,-0.26953125,-55.54878048780488,28.84146341463415,-21.585365853658537,90,8
119,0.73291015625,-0.28466796875,-0.2861328125,-53.78048780487806,25.853658536585368,-22.621951219512198,90,8
120,0.7333984375,-0.26171875,-0.28662109375,-52.86585365853659,22.25609756097561,-24.085365853658537,90,8
121,0.87158203125,-0.22998046875,-0.31640625,-54.024390243902445,20.426829268292686,-26.52439024390244,90,8
122,0.765625,-0.18896484375,-0.36474609375,-58.84146341463415,19.451219512195124,-30.30487804878049,90,8
123,0.7861328125,-0.15966796875,-0.3623046875,-65.60975609756098,20.365853658536587,-34.207317073170735,90,8
124,0.802734375,-0.16162109375,-0.3369140625,-72.31707317073172,22.31707317073171,-37.13414634146342,90,8
125,0.8037109375,-0.181640625,-0.32568359375,-79.02439024390245,24.26829268292683,-39.390243902439025,90,8
126,0.77490234375,-0.228515625,-0.3271484375,-83.78048780487805,24.207317073170735,-41.58536585365854,90,8
127,0.7587890625,-0.2431640625,-0.31787109375,-86.15853658536587,23.29268292682927,-43.29268292682927,90,8
128,0.767578125,-0.2451171875,-0.29150390625,-87.6829268292683,22.439024390243905,-45.97560975609756,90,8
129,0.796875,-0.22119140625,-0.26416015625,-91.09756097560977,22.31707317073171,-47.987804878048784,90,8
130,0.791015625,-0.21875,-0.28369140625,-94.02439024390245,21.158536585365855,-50.426829268292686,90,8
131,0.79443359375,-0.2197265625,-0.3310546875,-96.03658536585367,18.84146341463415,-53.59756097560976,90,8
132,0.8271484375,-0.1953125,-0.3310546875,-97.8658536585366,16.158536585365855,-57.43902439024391,90,8
133,0.85205078125,-0.2197265625,-0.3603515625,-100.91463414634147,15.182926829268293,-60.304878048780495,90,8
134,0.869140625,-0.24609375,-0.36328125,-103.71951219512196,15.060975609756099,-63.29268292682927,90,8
135,0.88037109375,-0.24072265625,-0.251953125,-107.01219512195122,15.182926829268293,-66.21951219512195,90,8
136,0.89892578125,-0.203125,-0.37158203125,-111.64634146341464,0.12195121951219513,-68.17073170731707,90,8
137,0.91455078125,-0.1962890625,-0.25048828125,-117.6829268292683,17.439024390243905,-70.3048780487805,90,8
138,0.92626953125,-0.21923828125,-0.3994140625,-123.71951219512196,18.414634146341466,-72.92682926829269,90,8
139,0.9296875,-0.18798828125,-0.40283203125,-130.4268292682927,20.731707317073173,-77.31707317073172,90,8
140,0.9521484375,-0.162109375,-0.4091796875,-136.15853658536585,21.402439024390247,-81.52439024390245,90,8
141,0.95947265625,-0.1494140625,-0.38134765625,-142.7439024390244,23.658536585365855,-85.73170731707317,90,8
142,0.96533203125,-0.1865234375,-0.41650390625,-147.7439024390244,24.634146341463417,-89.32926829268294,90,8
143,0.96875,-0.20703125,-0.39404296875,-151.03658536585368,25.30487804878049,-93.23170731707317,90,8
144,0.9931640625,-0.19873046875,-0.40478515625,-151.89024390243904,23.78048780487805,-97.50000000000001,90,8
145,1.0244140625,-0.171875,-0.41748046875,-152.6829268292683,22.621951219512198,-101.64634146341464,90,8
146,1.041015625,-0.1650390625,-0.41162109375,-156.09756097560978,24.32926829268293,-105.73170731707317,90,8
147,1.0712890625,-0.166015625,-0.404296875,-160.7317073170732,26.76829268292683,-109.63414634146342,90,8
148,1.1005859375,-0.15869140625,-0.3935546875,-165.1829268292683,28.353658536585368,-112.92682926829269,90,8
149,1.11865234375,-0.146484375,-0.416015625,-168.47560975609758,30.182926829268297,-116.70731707317074,90,8
150,1.150390625,-0.140625,-0.43212890625,-172.50000000000003,32.01219512195122,-120.91463414634147,90,8
151,1.19482421875,-0.1337890625,-0.45166015625,-175.91463414634148,33.59756097560976,-125.97560975609757,90,8
152,1.21240234375,-0.11669921875,-0.41796875,-177.9268292682927,35.91463414634147,-129.63414634146343,90,8
153,1.234375,-0.123046875,-0.451171875,-180.2439024390244,36.463414634146346,-133.1707317073171,90,8
154,1.3740234375,-0.0830078125,-0.44384765625,-179.14634146341464,34.93902439024391,-136.76829268292684,90,8
155,1.2744140625,-0.064453125,-0.44091796875,-178.41463414634148,34.451219512195124,-140.3658536585366,90,8
156,1.279296875,-0.0478515625,-0.47021484375,-181.28048780487808,35.91463414634147,-144.57317073170734,90,8
157,1.27685546875,-0.041015625,-0.4814453125,-184.93902439024393,39.268292682926834,-149.63414634146343,90,8
158,1.3037109375,-0.03857421875,-0.49462890625,-188.109756097561,41.646341463414636,-154.75609756097563,90,8
159,1.33349609375,-0.05029296875,-0.49755859375,-190.1829268292683,43.35365853658537,-158.65853658536588,90,8
160,1.34375,-0.07861328125,-0.5107421875,-192.50000000000003,44.024390243902445,-163.0487804878049,90,8
161,1.35595703125,-0.0703125,-0.61865234375,-191.21951219512198,43.90243902439025,-167.9268292682927,90,8
162,1.39599609375,-0.05859375,-0.474609375,-188.90243902439025,43.47560975609756,-170.1219512195122,90,8
163,1.41064453125,-0.0732421875,-0.478515625,-186.95121951219514,44.57317073170732,-173.47560975609758,90,8
164,1.4501953125,-0.04296875,-0.43017578125,-183.47560975609758,45.73170731707317,-178.0487804878049,90,8
165,1.474609375,-0.01025390625,-0.38720703125,-181.52439024390245,46.34146341463415,-181.03658536585368,90,8
166,1.4951171875,-0.0048828125,-0.44189453125,-182.56097560975613,48.35365853658537,-184.75609756097563,90,8
167,1.5087890625,0.0244140625,-0.39208984375,-182.43902439024393,51.89024390243903,-187.9878048780488,90,8
168,1.5361328125,0.01123046875,-0.400390625,-182.6829268292683,54.085365853658544,-191.21951219512198,90,8
169,1.55029296875,0.0244140625,-0.345703125,-182.31707317073173,59.451219512195124,-194.20731707317074,90,8
170,1.580078125,0.015625,-0.333984375,-181.52439024390245,61.463414634146346,-196.70731707317074,90,8
171,1.61181640625,0.0576171875,-0.3212890625,-177.9878048780488,61.585365853658544,-200.00000000000003,90,8
172,1.6416015625,0.064453125,-0.302734375,-174.63414634146343,61.89024390243903,-203.53658536585368,90,8
173,1.6611328125,0.06103515625,-0.31494140625,-171.09756097560978,60.60975609756098,-207.6829268292683,90,8
174,1.65966796875,0.06201171875,-0.2666015625,-167.13414634146343,60.304878048780495,-211.95121951219514,90,8
175,1.671875,0.05322265625,-0.25341796875,-161.46341463414635,57.743902439024396,-215.7926829268293,90,8
176,1.62890625,0.05126953125,-0.193359375,-154.32926829268294,56.09756097560976,-220.7317073170732,90,8
177,1.59375,0.02880859375,-0.1767578125,-147.13414634146343,51.463414634146346,-223.47560975609758,90,8
178,1.5517578125,0.06884765625,-0.1572265625,-139.69512195121953,49.57317073170732,-229.08536585365854,90,8
179,1.60302734375,0.14892578125,-0.24267578125,-134.20731707317074,48.41463414634147,-234.63414634146343,90,8
180,1.62451171875,0.1845703125,-0.080078125,-134.75609756097563,48.84146341463415,-237.62195121951223,90,8
181,1.56689453125,0.1494140625,-0.10498046875,-136.09756097560978,50.85365853658537,-239.93902439024393,90,8
182,1.525390625,0.17236328125,-0.08056640625,-132.8048780487805,50.54878048780488,-241.95121951219514,90,8
183,1.50439453125,0.1708984375,-0.0322265625,-124.93902439024392,48.41463414634147,-243.53658536585368,90,8
184,1.48974609375,0.19873046875,-0.017578125,-114.57317073170732,44.93902439024391,-243.84146341463418,90,8
185,1.51953125,0.2646484375,-0.0244140625,-107.13414634146342,42.6829268292683,-246.70731707317074,90,8
186,1.484375,0.296875,-0.013671875,-102.07317073170732,40.91463414634147,-250.4268292682927,90,8
187,1.46728515625,0.32373046875,0.01806640625,-96.09756097560977,41.09756097560976,-255.00000000000003,90,8
188,1.45751953125,0.2568359375,0.0595703125,-91.52439024390245,40.91463414634147,-259.8170731707317,90,8
189,1.42578125,0.388671875,0.068359375,-89.57317073170732,41.646341463414636,-250.18292682926833,90,8
190,1.37890625,0.35498046875,0.08447265625,-88.47560975609757,42.13414634146342,-271.219512195122,90,8
191,1.29443359375,0.310546875,0.15478515625,-84.63414634146342,42.25609756097561,-276.1585365853659,90,8
192,1.26318359375,0.31103515625,0.17919921875,-79.02439024390245,42.19512195121951,-280.9146341463415,90,8
193,1.2255859375,0.27099609375,0.16015625,-74.57317073170732,43.47560975609756,-283.7804878048781,90,8
194,1.1728515625,0.23681640625,0.24755859375,-69.14634146341464,44.87804878048781,-284.8780487804878,90,8
195,1.1162109375,0.2041015625,0.111328125,-76.95121951219512,45.54878048780488,-284.1463414634147,90,8
196,1.0498046875,0.18359375,0.08935546875,-52.6829268292683,43.23170731707317,-284.0853658536586,90,8
197,1.0654296875,0.2021484375,0.06884765625,-42.50000000000001,40.85365853658537,-282.5609756097561,90,8
198,1.09375,0.19482421875,0.02392578125,-39.451219512195124,40.97560975609756,-281.0975609756098,90,8
199,1.11767578125,0.150390625,0.07177734375,-39.024390243902445,42.6219512195122,-278.7804878048781,90,8
200,1.1171875,0.08154296875,0.1015625,-37.19512195121951,42.743902439024396,-275.0609756097561,90,8
201,1.13818359375,0.00634765625,0.11962890625,-33.71951219512196,41.646341463414636,-270.7926829268293,90,8
202,1.0625,-0.09228515625,0.17724609375,-28.658536585365855,39.390243902439025,-264.26829268292687,90,8
203,0.939453125,-0.1904296875,0.1875,-22.378048780487806,35.85365853658537,-255.97560975609758,90,8
204,0.818359375,-0.26025390625,0.15625,-16.463414634146343,33.170731707317074,-248.59756097560978,90,8
205,0.7314453125,-0.298828125,0.1748046875,-14.756097560975611,32.01219512195122,-241.76829268292684,90,8
206,0.62841796875,-0.31591796875,0.1708984375,-20.426829268292686,32.80487804878049,-232.8658536585366,90,8
207,0.521484375,-0.375,0.16650390625,-31.03658536585366,36.15853658536586,-223.0487804878049,90,8
208,0.41357421875,-0.4501953125,0.13330078125,-42.50000000000001,40.426829268292686,-215.18292682926833,90,8
209,0.2841796875,-0.4970703125,0.21044921875,-49.87804878048781,43.65853658536586,-206.34146341463418,90,8
210,0.1845703125,-0.537109375,0.25244140625,-51.951219512195124,44.146341463414636,-198.2317073170732,90,8
211,0.12548828125,-0.53564453125,0.33154296875,-51.463414634146346,45.00000000000001,-189.39024390243904,90,8
212,0.01904296875,-0.56982421875,0.3974609375,-50.97560975609756,48.29268292682927,-178.53658536585368,90,8
213,-0.01708984375,-0.6552734375,0.44921875,-51.646341463414636,50.304878048780495,-165.1829268292683,90,8
214,-0.30908203125,-0.7890625,0.482421875,-47.31707317073171,49.87804878048781,-152.5,90,8
215,-0.3994140625,-0.841796875,0.4921875,-36.03658536585366,45.36585365853659,-137.5609756097561,90,8
216,-0.46435546875,-0.89794921875,0.43603515625,-25.731707317073173,40.73170731707317,-120.79268292682927,90,8
217,-0.533203125,-0.96337890625,0.42041015625,-16.70731707317073,37.86585365853659,-104.08536585365854,90,8
218,-0.59228515625,-0.98291015625,0.49755859375,-8.841463414634147,36.21951219512196,-87.50000000000001,90,8
219,-0.59912109375,-0.95263671875,0.35546875,-4.146341463414634,35.54878048780488,-69.75609756097562,90,8
220,-0.65771484375,-0.92333984375,0.43994140625,-0.6097560975609757,38.53658536585366,-53.71951219512196,90,8
221,-0.67822265625,-0.92822265625,0.4716796875,2.5609756097560976,38.29268292682927,-39.268292682926834,90,8
222,-0.65625,-0.93212890625,0.46142578125,6.158536585365854,37.31707317073171,-25.731707317073173,90,8
223,-0.6591796875,-0.96923828125,0.474609375,9.51219512195122,37.19512195121951,-10.121951219512196,90,8
224,-0.73193359375,-0.9755859375,0.52880859375,11.219512195121952,38.78048780487805,6.52439024390244,90,8
225,-0.599609375,-1.01904296875,0.53125,10.731707317073171,43.90243902439025,23.59756097560976,90,8
226,-0.61279296875,-1.09326171875,0.51025390625,9.146341463414634,45.1829268292683,43.78048780487805,90,8
227,-0.5302734375,-1.2607421875,0.25,10.731707317073171,43.23170731707317,66.34146341463415,90,8
228,-0.60986328125,-1.33251953125,0.3779296875,0.06097560975609757,42.6829268292683,84.26829268292684,90,8
229,-0.46533203125,-1.36083984375,0.3076171875,23.231707317073173,42.25609756097561,104.32926829268294,90,8
230,-0.37646484375,-1.45458984375,0.2646484375,29.39024390243903,44.87804878048781,124.08536585365854,90,8
231,-0.3515625,-1.5732421875,0.30322265625,39.57317073170732,43.53658536585366,144.08536585365854,90,8
232,-0.3701171875,-1.65478515625,0.3271484375,51.82926829268293,37.987804878048784,165.1829268292683,90,8
233,-0.302734375,-1.7099609375,0.31640625,62.37804878048781,31.76829268292683,185.7926829268293,90,8
234,-0.169921875,-1.73681640625,0.29931640625,69.02439024390245,29.87804878048781,206.89024390243904,90,8
235,-0.0146484375,-1.78076171875,0.29296875,70.42682926829269,30.365853658536587,227.68292682926833,90,8
236,0.1630859375,-1.84326171875,0.216796875,70.0609756097561,31.463414634146343,234.87804878048783,90,8
237,0.291015625,-1.96240234375,0.1728515625,72.8048780487805,31.951219512195124,273.719512195122,90,8
238,0.42529296875,-2.09521484375,0.25048828125,62.743902439024396,35.30487804878049,298.8414634146342,90,8
239,0.5546875,-2.24755859375,0.39208984375,83.96341463414635,36.768292682926834,324.87804878048786,90,8
240,0.74609375,-2.25048828125,0.3193359375,90.1219512195122,38.170731707317074,351.0365853658537,90,8
241,0.9716796875,-2.48486328125,0.267578125,98.47560975609757,38.35365853658537,359.0243902439025,90,8
242,1.23974609375,-2.5869140625,0.24169921875,107.98780487804879,38.04878048780488,398.9634146341464,90,8
243,1.39599609375,-2.72314453125,0.17529296875,119.08536585365854,38.90243902439025,424.87804878048786,90,8
244,1.7880859375,-2.91064453125,0.22705078125,130.4268292682927,40.0,439.57317073170736,90,8
245,2.12255859375,-3.11669921875,-0.05810546875,143.59756097560978,40.304878048780495,494.69512195121956,90,8
246,2.46435546875,-3.4921875,-0.212890625,160.4878048780488,39.268292682926834,537.8658536585366,90,8
247,2.8740234375,-3.77490234375,-0.41943359375,182.6219512195122,34.81707317073171,584.1463414634147,90,8
248,3.37255859375,-4.2099609375,-0.673828125,206.58536585365854,27.926829268292686,610.3658536585366,90,8
249,4.044921875,-4.33984375,-0.8486328125,232.31707317073173,24.695121951219516,659.2682926829269,90,8
250,4.73046875,-4.52783203125,-0.986328125,250.12195121951223,15.609756097560977,678.9024390243903,90,8
251,5.228515625,-4.7216796875,-1.00732421875,282.8658536585366,41.58536585365854,683.109756097561,90,8
252,5.64501953125,-4.67041015625,-1.58447265625,317.6829268292683,46.707317073170735,699.2073170731708,90,8
253,6.3359375,-4.38916015625,-2.357421875,338.1707317073171,47.987804878048784,730.7317073170732,90,8
254,7.1875,-4.21240234375,-3.2431640625,365.8536585365854,21.646341463414636,776.3414634146342,90,8
255,8.3544921875,-3.94970703125,-4.10546875,380.3658536585366,15.365853658536587,808.3536585365854,90,8
256,9.2470703125,-3.333984375,-4.58935546875,377.62195121951225,-18.78048780487805,839.329268292683,90,8
257,9.36962890625,-2.48974609375,-5.10400390625,381.219512195122,-3.231707317073171,844.6341463414635,90,8
258,10.0673828125,-1.18017578125,-4.98583984375,446.5243902439025,-74.81707317073172,852.439024390244,90,8
259,9.44140625,-1.00341796875,-5.068359375,528.2926829268293,-160.0609756097561,844.5121951219513,90,8
260,9.49169921875,-1.3076171875,-5.5322265625,611.829268292683,-268.5365853658537,794.6951219512196,90,8
261,8.2314453125,-1.4560546875,-5.27783203125,773.7804878048781,-400.4268292682927,691.7682926829269,90,8
262,7.0224609375,-1.2587890625,-4.81494140625,1013.7804878048781,-589.329268292683,652.8658536585366,90,8
263,5.90478515625,-2.2529296875,-4.8994140625,1271.5243902439026,-758.6585365853659,551.219512195122,90,8
264,5.064453125,-1.17138671875,-7.1015625,1997.987804878049,-1319.3902439024391,552.7439024390244,90,8
265,-3.8984375,-16.0,-14.89892578125,1097.378048780488,-215.12195121951223,-288.1707317073171,90,8
266,15.99951171875,15.99951171875,-3.8466796875,823.5975609756098,-161.03658536585368,234.02439024390245,90,8
267,-8.86279296875,-11.9560546875,1.6572265625,1567.6829268292684,-354.26829268292687,13.658536585365855,90,8
268,9.67138671875,0.67578125,0.24951171875,1061.5243902439026,-342.50000000000006,-122.6829268292683,90,8
269,3.97119140625,0.84521484375,-4.02978515625,858.4146341463415,-153.84146341463415,-219.32926829268294,90,8
270,2.4296875,1.240234375,-0.63916015625,728.9634146341464,-60.73170731707317,-156.03658536585368,90,8
271,3.79833984375,-1.26123046875,0.701171875,806.9512195121952,-115.3048780487805,-289.45121951219517,90,8
272,3.5625,-2.5439453125,-0.35595703125,720.548780487805,-79.87804878048782,-416.3414634146342,90,8
273,3.40234375,-2.19482421875,-0.923828125,657.3780487804879,-56.524390243902445,-457.07317073170736,90,8
274,3.39892578125,-2.6982421875,-0.90625,645.9146341463415,-43.65853658536586,-557.6219512195122,90,8
275,4.70166015625,-1.88232421875,-1.39208984375,591.219512195122,-8.719512195121952,-622.3780487804878,90,8
276,4.4326171875,-2.2001953125,-1.49951171875,510.9146341463415,35.1219512195122,-642.6219512195122,90,8
277,3.8857421875,-2.5849609375,-1.552734375,405.9756097560976,79.57317073170732,-660.3658536585366,90,8
278,3.72802734375,-2.63916015625,-1.20068359375,323.0487804878049,164.45121951219514,-653.2317073170732,90,8
279,2.91650390625,-2.91259765625,-1.22802734375,245.3658536585366,215.2439024390244,-629.6341463414635,90,8
280,2.43603515625,-2.9208984375,-1.26123046875,178.96341463414635,234.69512195121953,-600.4878048780488,90,8
281,1.6572265625,-2.99462890625,-1.265625,144.39024390243904,272.7439024390244,-575.4878048780488,90,8
282,1.2509765625,-2.6142578125,-1.61083984375,120.12195121951221,300.6707317073171,-547.5,90,8
283,1.30126953125,-2.05224609375,-1.283203125,110.1219512195122,313.4146341463415,-522.7439024390244,90,8
284,1.46728515625,-1.689453125,-1.09521484375,102.43902439024392,323.1707317073171,-513.9024390243903,90,8
285,1.52880859375,-1.634765625,-1.04541015625,91.03658536585367,327.5,-480.54878048780495,90,8
286,1.50048828125,-1.51416015625,-1.23583984375,71.21951219512195,329.32926829268297,-469.1463414634147,90,8
287,1.79345703125,-1.3349609375,-1.4892578125,37.01219512195122,335.00000000000006,-449.26829268292687,90,8
288,1.65234375,-1.32666015625,-1.623046875,3.7195121951219514,338.0487804878049,-426.0975609756098,90,8
289,1.359375,-1.4501953125,-1.673828125,-29.32926829268293,338.5365853658537,-399.39024390243907,90,8
290,0.99560546875,-1.61328125,-1.72216796875,-50.1219512195122,333.9024390243903,-371.5853658536586,90,8
291,0.64111328125,-1.580078125,-1.603515625,-51.15853658536586,321.1585365853659,-349.39024390243907,90,8
292,0.44921875,-1.33642578125,-1.2451171875,-49.87804878048781,309.9390243902439,-330.7926829268293,90,8
293,0.31689453125,-1.03662109375,-1.03076171875,-52.19512195121952,307.5609756097561,-310.3048780487805,90,8
294,0.2275390625,-0.8359375,-0.99951171875,-56.524390243902445,304.39024390243907,-293.8414634146342,90,8
295,0.265625,-0.6416015625,-0.82861328125,-65.0,301.0365853658537,-278.5365853658537,90,8
296,0.408203125,-0.5302734375,-0.92724609375,-77.25609756097562,292.8048780487805,-280.1829268292683,90,8
297,0.42529296875,-0.40087890625,-1.0244140625,-91.34146341463415,284.20731707317077,-252.8658536585366,90,8
298,0.3955078125,-0.3359375,-1.001953125,-98.59756097560977,276.0975609756098,-235.97560975609758,90,8
299,0.13525390625,-0.32421875,-1.033203125,-114.69512195121952,267.07317073170736,-222.56097560975613,90,8
300,-0.02197265625,-0.31103515625,-1.15966796875,-121.46341463414635,260.4878048780488,-207.50000000000003,90,8
301,-0.05615234375,-0.1884765625,-1.10498046875,-125.12195121951221,252.9878048780488,-192.50000000000003,90,8
302,-0.15087890625,-0.13720703125,-1.0849609375,-123.59756097560977,243.41463414634148,-177.5609756097561,90,8
303,-0.2158203125,-0.08154296875,-0.96337890625,-118.65853658536587,239.51219512195124,-170.3048780487805,90,8
304,-0.1640625,-0.03076171875,-0.77880859375,-108.23170731707317,219.93902439024393,-159.02439024390245,90,8
305,-0.4091796875,-0.15234375,-0.58740234375,-101.89024390243904,207.8658536585366,-153.2317073170732,90,8
306,-0.52490234375,-0.12060546875,-0.46923828125,-95.79268292682927,197.9268292682927,-145.3048780487805,90,8
307,-0.5634765625,-0.05224609375,-0.4111328125,-95.67073170731709,190.00000000000003,-155.7926829268293,90,8
308,-0.58544921875,0.025390625,-0.37890625,-98.17073170731709,184.20731707317074,-134.14634146341464,90,8
309,-0.59619140625,0.0498046875,-0.52978515625,-99.45121951219512,178.65853658536588,-125.42682926829269,90,8
310,-0.67578125,0.00830078125,-0.5947265625,-108.53658536585367,169.51219512195124,-117.01219512195122,90,8
311,-0.72705078125,0.01416015625,-0.6376953125,-106.64634146341464,163.65853658536588,-110.48780487804879,90,8
312,-0.76416015625,0.017578125,-0.62353515625,-99.93902439024392,171.21951219512198,-104.81707317073172,90,8
313,-0.87548828125,0.0205078125,-0.3173828125,-93.10975609756099,147.01219512195124,-96.82926829268294,90,8
314,-0.9873046875,0.029296875,-0.3349609375,-92.07317073170732,136.64634146341464,-93.10975609756099,90,8
315,-0.953125,0.1318359375,-0.384765625,-88.35365853658537,127.98780487804879,-90.2439024390244,90,8
316,-0.8974609375,0.17724609375,-0.38671875,-82.92682926829269,116.76829268292684,-87.43902439024392,90,8
317,-0.90283203125,0.14453125,-0.3876953125,-93.23170731707317,109.26829268292684,-82.7439024390244,90,8
318,-0.904296875,0.10546875,-0.2509765625,-72.7439024390244,102.25609756097562,-73.96341463414635,90,8
319,-0.9306640625,0.07666015625,-0.3916015625,-68.17073170731707,96.40243902439025,-65.3658536585366,90,8
320,-1.01416015625,0.0537109375,-0.40625,-64.81707317073172,92.6829268292683,-54.87804878048781,90,8
321,-1.0693359375,0.00146484375,-0.3369140625,-59.451219512195124,88.59756097560977,-62.25609756097562,90,8
322,-1.146484375,-0.00634765625,-0.26953125,-56.09756097560976,83.17073170731707,-40.73170731707317,90,8
323,-1.14599609375,0.060546875,-0.205078125,-50.426829268292686,77.25609756097562,-34.93902439024391,90,8
324,-1.16455078125,0.0986328125,-0.181640625,-47.743902439024396,69.69512195121952,-30.914634146341466,90,8
325,-1.177734375,0.14453125,-0.20654296875,-44.93902439024391,63.71951219512196,-27.378048780487806,90,8
326,-1.1279296875,0.1630859375,-0.228515625,-39.63414634146342,58.23170731707317,-24.02439024390244,90,8
327,-1.10400390625,0.205078125,-0.2763671875,-38.170731707317074,50.73170731707317,-20.853658536585368,90,8
328,-1.0498046875,0.21142578125,-0.27978515625,-37.13414634146342,43.53658536585366,-18.29268292682927,90,8
329,-1.0693359375,0.203125,-0.2802734375,-33.41463414634146,34.08536585365854,-14.390243902439027,90,8
330,-1.0966796875,0.1318359375,-0.287109375,-28.10975609756098,24.02439024390244,-10.24390243902439,90,8
331,-1.0810546875,0.13427734375,-0.2529296875,-22.98780487804878,17.804878048780488,-6.2804878048780495,90,8
332,-1.072265625,0.15234375,-0.2021484375,-20.365853658536587,10.670731707317074,-2.5609756097560976,90,8
333,-1.09130859375,0.1826171875,-0.19775390625,-19.634146341463417,5.975609756097562,1.524390243902439,90,8
334,-1.001953125,0.19775390625,-0.19873046875,-19.634146341463417,0.12195121951219513,4.024390243902439,90,8
335,-1.07861328125,0.20751953125,-0.23193359375,-18.04878048780488,-7.865853658536586,4.817073170731708,90,8
336,-1.03369140625,0.21875,-0.2255859375,-15.487804878048783,-13.963414634146343,7.8048780487804885,90,8
337,-1.00634765625,0.22900390625,-0.181640625,-14.390243902439027,-20.243902439024392,10.853658536585368,90,8
338,-1.0185546875,0.20751953125,-0.16259765625,-14.02439024390244,-27.5609756097561,14.817073170731708,90,8
339,-1.052734375,0.1923828125,-0.13818359375,-13.963414634146343,-34.08536585365854,17.804878048780488,90,8
340,-1.0576171875,0.18408203125,-0.1025390625,-13.475609756097562,-41.524390243902445,20.60975609756098,90,8
341,-1.04345703125,0.18896484375,-0.1044921875,-13.597560975609758,-31.52439024390244,22.31707317073171,90,8
342,-0.9716796875,0.20263671875,-0.08447265625,-14.146341463414636,-51.28048780487806,24.390243902439025,90,8
343,-0.9169921875,0.37255859375,-0.0908203125,-13.963414634146343,-56.768292682926834,26.463414634146343,90,8
344,-0.9111328125,0.2783203125,-0.0703125,-10.731707317073171,-47.25609756097561,27.80487804878049,90,8
345,-0.90966796875,0.27587890625,-0.12353515625,-6.036585365853659,-69.39024390243902,29.39024390243903,90,8
346,-0.92138671875,0.28564453125,0.02880859375,-1.0975609756097562,-76.15853658536587,30.000000000000004,90,8
347,-0.89794921875,0.287109375,0.0263671875,4.146341463414634,-80.67073170731707,30.243902439024392,90,8
348,-0.9990234375,0.3193359375,0.04736328125,6.341463414634147,-82.7439024390244,30.975609756097565,90,8
349,-0.880859375,0.314453125,0.03662109375,7.25609756097561,-86.03658536585367,31.219512195121954,90,8
350,-0.869140625,0.32568359375,0.04541015625,10.24390243902439,-89.63414634146342,32.5,90,8
351,-0.99755859375,0.31298828125,0.05419921875,13.536585365853659,-94.87804878048782,34.51219512195122,90,8
352,-0.873046875,0.29736328125,0.072265625,17.5609756097561,-98.71951219512196,36.707317073170735,90,8
353,-0.87451171875,0.3037109375,0.06787109375,19.939024390243905,-101.03658536585367,38.41463414634147,90,8
354,-0.861328125,0.32275390625,0.05615234375,18.963414634146343,-102.7439024390244,39.81707317073171,90,8
355,-0.83984375,0.3349609375,0.08056640625,19.02439024390244,-106.82926829268294,41.463414634146346,90,8
356,-0.8369140625,0.33056640625,0.1123046875,20.670731707317074,-112.98780487804879,42.5609756097561,90,8
357,-0.83447265625,0.30908203125,0.1376953125,24.207317073170735,-118.17073170731709,43.90243902439025,90,8
358,-0.8134765625,0.306640625,0.1865234375,28.231707317073173,-123.65853658536587,46.03658536585366,90,8
359,-0.8095703125,0.30615234375,0.21533203125,31.03658536585366,-127.01219512195124,47.31707317073171,90,8
360,-0.7724609375,0.31982421875,0.23974609375,33.04878048780488,-129.02439024390245,49.024390243902445,90,8
361,-0.7421875,0.32275390625,0.25537109375,32.86585365853659,-129.45121951219514,51.03658536585366,90,8
362,-0.70166015625,0.3408203125,0.25830078125,31.707317073170735,-130.5487804878049,52.804878048780495,90,8
363,-0.66943359375,0.36328125,0.2734375,29.87804878048781,-131.76829268292684,54.32926829268293,90,8
364,-0.6376953125,0.3759765625,0.2841796875,29.02439024390244,-133.53658536585368,55.91463414634147,90,8
365,-0.61083984375,0.39501953125,0.31591796875,29.02439024390244,-135.85365853658539,57.50000000000001,90,8
366,-0.5771484375,0.39306640625,0.3349609375,29.634146341463417,-137.9878048780488,58.10975609756098,90,8
367,-0.55908203125,0.39306640625,0.32958984375,29.207317073170735,-139.87804878048783,58.23170731707317,90,8
368,-0.5244140625,0.4052734375,0.33447265625,29.634146341463417,-143.2926829268293,58.65853658536586,90,8
369,-0.525390625,0.40625,0.3525390625,30.243902439024392,-145.6707317073171,58.78048780487806,90,8
370,-0.62255859375,0.43212890625,0.4013671875,31.82926829268293,-148.65853658536588,59.63414634146342,90,8
371,-0.48388671875,0.42431640625,0.4111328125,32.6219512195122,-150.85365853658539,60.54878048780488,90,8
372,-0.4599609375,0.4345703125,0.4248046875,33.109756097560975,-150.5487804878049,61.03658536585366,90,8
373,-0.4326171875,0.45166015625,0.44873046875,33.04878048780488,-149.69512195121953,62.01219512195122,90,8
374,-0.40087890625,0.47265625,0.4453125,32.926829268292686,-149.93902439024393,63.71951219512196,90,8
375,-0.37109375,0.4794921875,0.4404296875,32.6829268292683,-150.1829268292683,65.0609756097561,90,8
376,-0.35302734375,0.4599609375,0.45263671875,31.82926829268293,-150.609756097561,66.21951219512195,90,8
377,-0.33740234375,0.443359375,0.4755859375,32.80487804878049,-152.01219512195124,67.43902439024392,90,8
378,-0.32421875,0.435546875,0.47900390625,33.84146341463415,-151.89024390243904,68.35365853658537,90,8
379,-0.31201171875,0.45068359375,0.52587890625,35.54878048780488,-150.4878048780488,69.14634146341464,90,8
380,-0.26611328125,0.4609375,0.5400390625,35.487804878048784,-148.2317073170732,70.1829268292683,90,8
381,-0.20751953125,0.4736328125,0.55322265625,35.243902439024396,-146.52439024390245,71.03658536585367,90,8
382,-0.18017578125,0.478515625,0.5380859375,36.34146341463415,-147.01219512195124,71.34146341463415,90,8
383,-0.1728515625,0.4677734375,0.52490234375,39.93902439024391,-148.35365853658539,71.15853658536587,90,8
384,-0.142578125,0.47021484375,0.53076171875,45.304878048780495,-150.3658536585366,70.79268292682927,90,8
385,-0.11572265625,0.466796875,0.5439453125,49.146341463414636,-151.64634146341464,71.58536585365854,90,8
386,-0.09228515625,0.490234375,0.5673828125,50.487804878048784,-150.4878048780488,72.13414634146342,90,8
387,-0.06103515625,0.49072265625,0.5703125,48.963414634146346,-147.07317073170734,72.43902439024392,90,8
388,-0.04833984375,0.478515625,0.564453125,44.75609756097561,-142.37804878048783,72.31707317073172,90,8
389,-0.00244140625,0.49365234375,0.5576171875,42.926829268292686,-141.09756097560978,72.98780487804879,90,8
390,-0.00439453125,0.478515625,0.556640625,42.926829268292686,-156.03658536585368,73.17073170731707,90,8
391,0.00732421875,0.4736328125,0.57763671875,45.54878048780488,-141.46341463414635,74.75609756097562,90,8
392,0.01025390625,0.462890625,0.587890625,49.75609756097561,-143.47560975609758,76.70731707317074,90,8
393,0.009765625,0.45751953125,0.60107421875,53.59756097560976,-144.57317073170734,77.8658536585366,90,8
394,0.03857421875,0.4873046875,0.58349609375,57.743902439024396,-145.4268292682927,78.41463414634147,90,8
395,0.078125,0.5244140625,0.5712890625,60.67073170731708,-145.3658536585366,79.32926829268294,90,8
396,0.111328125,0.55126953125,0.5732421875,59.69512195121952,-143.71951219512195,80.1219512195122,90,8
397,0.12548828125,0.55712890625,0.537109375,53.10975609756098,-156.03658536585368,81.21951219512196,90,8
398,0.1435546875,0.57666015625,0.53662109375,62.25609756097562,-136.76829268292684,81.64634146341464,90,8
399,0.15234375,0.58935546875,0.5537109375,41.646341463414636,-133.47560975609758,82.01219512195122,90,8
400,0.18701171875,0.59716796875,0.5537109375,38.23170731707317,-131.95121951219514,82.6829268292683,90,8
401,0.21044921875,0.6005859375,0.56591796875,36.21951219512196,-131.89024390243904,83.84146341463415,90,8
402,0.203125,0.5673828125,0.54541015625,36.707317073170735,-134.32926829268294,85.1829268292683,90,8
403,0.1904296875,0.52685546875,0.52490234375,40.0,-135.5487804878049,84.87804878048782,90,8
404,0.2236328125,0.53125,0.513671875,45.487804878048784,-137.9268292682927,84.69512195121952,90,8
405,0.24853515625,0.54736328125,0.38232421875,48.84146341463415,-139.08536585365854,85.3048780487805,90,8
406,0.283203125,0.568359375,0.4921875,48.78048780487805,-136.82926829268294,85.1219512195122,90,8
407,0.30859375,0.58935546875,0.47509765625,44.024390243902445,-131.46341463414635,84.93902439024392,90,8
408,0.3486328125,0.64208984375,0.47607421875,38.47560975609756,-126.76829268292684,85.0609756097561,90,8
409,0.251953125,0.67041015625,0.4716796875,34.32926829268293,-124.75609756097562,85.91463414634147,90,8
410,0.3759765625,0.66015625,0.44921875,31.463414634146343,-124.81707317073172,87.37804878048782,90,8
411,0.357421875,0.63232421875,0.4208984375,30.54878048780488,-126.28048780487806,89.45121951219512,90,8
412,0.3515625,0.59619140625,0.4130859375,32.43902439024391,-128.2317073170732,90.60975609756099,90,8
413,0.36962890625,0.5830078125,0.423828125,34.32926829268293,-131.46341463414635,92.07317073170732,90,8
414,0.373046875,0.55908203125,0.4228515625,32.31707317073171,-129.32926829268294,92.31707317073172,90,8
415,0.39990234375,0.5546875,0.42236328125,28.10975609756098,-140.4268292682927,92.01219512195122,90,8
416,0.43115234375,0.58447265625,0.4365234375,23.59756097560976,-120.2439024390244,92.19512195121952,90,8
417,0.4541015625,0.50244140625,0.42431640625,21.03658536585366,-116.89024390243904,92.31707317073172,90,8
418,0.48828125,0.63818359375,0.41650390625,21.158536585365855,-115.1829268292683,92.8048780487805,90,8
419,0.50439453125,0.626953125,0.384765625,22.439024390243905,-115.48780487804879,92.98780487804879,90,8
420,0.50927734375,0.61376953125,0.3701171875,24.451219512195124,-117.01219512195122,92.7439024390244,90,8
421,0.509765625,0.6162109375,0.337890625,26.646341463414636,-117.8658536585366,93.53658536585367,90,8
422,0.52099609375,0.62353515625,0.314453125,27.378048780487806,-119.39024390243904,94.39024390243904,90,8
423,0.5009765625,0.60009765625,0.294921875,24.02439024390244,-116.76829268292684,94.57317073170732,90,8
424,0.3828125,0.59716796875,0.28955078125,18.353658536585368,-111.64634146341464,93.35365853658537,90,8
425,0.56201171875,0.62451171875,0.3037109375,13.658536585365855,-108.17073170731709,93.90243902439025,90,8
426,0.5830078125,0.74658203125,0.3212890625,10.731707317073171,-106.28048780487806,93.65853658536587,90,8
427,0.5849609375,0.58984375,0.3388671875,9.085365853658537,-105.3048780487805,94.57317073170732,90,8
428,0.59375,0.5478515625,0.34228515625,8.536585365853659,-105.42682926829269,94.63414634146342,90,8
429,0.58544921875,0.5478515625,0.33935546875,9.085365853658537,-105.79268292682927,78.10975609756099,90,8
430,0.6201171875,0.583984375,0.33935546875,10.670731707317074,-106.70731707317074,78.29268292682927,90,8
431,0.6298828125,0.58251953125,0.32421875,11.585365853658537,-107.6219512195122,94.26829268292684,90,8
432,0.634765625,0.54736328125,0.28369140625,11.646341463414634,-107.6219512195122,96.15853658536587,90,8
433,0.6201171875,0.5244140625,0.369140625,10.548780487804878,-106.09756097560977,95.97560975609757,90,8
434,0.634765625,0.5126953125,0.2138671875,8.353658536585366,-104.26829268292684,95.67073170731709,90,8
435,0.66552734375,0.5185546875,0.21435546875,5.670731707317073,-102.31707317073172,95.73170731707317,90,8
436,0.66552734375,0.50439453125,0.205078125,1.4634146341463417,-99.75609756097562,97.13414634146342,90,8
437,0.677734375,0.48974609375,0.19970703125,-3.1097560975609757,-96.58536585365854,96.89024390243904,90,8
438,0.7099609375,0.49609375,0.193359375,-5.365853658536586,-96.15853658536587,96.52439024390245,90,8
439,0.7314453125,0.498046875,0.16796875,-6.097560975609756,-95.79268292682927,95.79268292682927,90,8
440,0.75634765625,0.37548828125,0.16259765625,-7.195121951219513,-95.79268292682927,95.54878048780489,90,8
441,0.78125,0.49169921875,0.15234375,-8.475609756097562,-97.19512195121952,95.85365853658537,90,8
442,0.77392578125,0.47314453125,0.16796875,-9.390243902439025,-97.5609756097561,94.20731707317074,90,8
443,0.75537109375,0.42236328125,0.15087890625,-9.878048780487806,-97.6829268292683,94.81707317073172,90,8
444,0.734375,0.40234375,0.17041015625,-9.26829268292683,-97.92682926829269,94.69512195121952,90,8
445,0.7109375,0.37353515625,0.2197265625,-9.390243902439025,-94.20731707317074,95.1219512195122,90,8
446,0.73779296875,0.3740234375,0.22265625,-11.28048780487805,-88.71951219512196,94.45121951219512,90,8
447,0.76611328125,0.36767578125,0.20849609375,-14.02439024390244,-83.96341463414635,95.60975609756099,90,8
448,0.76318359375,0.35546875,0.18701171875,-14.207317073170733,-81.58536585365854,95.3658536585366,90,8
449,0.7890625,0.34326171875,0.1279296875,-12.317073170731708,-81.89024390243902,94.51219512195122,90,8
450,0.8017578125,0.3291015625,0.1171875,-9.207317073170733,-82.5609756097561,94.14634146341464,90,8
451,0.83740234375,0.35009765625,0.0966796875,-6.402439024390245,-83.65853658536587,91.64634146341464,90,8
452,0.89599609375,0.384765625,0.1044921875,-5.426829268292684,-83.35365853658537,88.96341463414635,90,8
453,0.92919921875,0.4169921875,0.08544921875,-7.378048780487806,-82.31707317073172,87.8048780487805,90,8
454,0.908203125,0.404296875,0.05224609375,-12.682926829268293,-81.58536585365854,87.6219512195122,90,8
455,0.86376953125,0.373046875,0.03515625,-19.207317073170735,-79.08536585365854,86.76829268292684,90,8
456,0.853515625,0.498046875,0.0673828125,-24.878048780487806,-76.64634146341464,87.19512195121952,90,8
457,0.869140625,0.3828125,0.08935546875,-29.39024390243903,-74.75609756097562,87.6219512195122,90,8
458,0.8642578125,0.3447265625,0.078125,-33.53658536585366,-72.07317073170732,89.02439024390245,90,8
459,0.85546875,0.29931640625,0.08544921875,-36.34146341463415,-70.0,89.75609756097562,90,8
460,0.85791015625,0.28662109375,0.08349609375,-36.58536585365854,-69.63414634146342,89.81707317073172,90,8
461,0.88525390625,0.263671875,0.09521484375,-34.57317073170732,-70.2439024390244,89.39024390243904,90,8
462,0.8955078125,0.2470703125,0.08837890625,-31.58536585365854,-72.37804878048782,88.41463414634147,90,8
463,0.8896484375,0.22119140625,0.05517578125,-27.439024390243905,-75.54878048780489,86.64634146341464,90,8
464,0.90234375,0.205078125,0.04248046875,-24.573170731707318,-76.15853658536587,83.29268292682927,90,8
465,0.9384765625,0.21044921875,0.048828125,-24.81707317073171,-74.93902439024392,80.0609756097561,90,8
466,0.9462890625,0.23193359375,0.04248046875,-27.621951219512198,-71.64634146341464,77.6219512195122,90,8
467,0.9345703125,0.2353515625,0.0341796875,-30.975609756097565,-67.7439024390244,76.28048780487805,90,8
468,0.90966796875,0.2255859375,0.0283203125,-34.451219512195124,-63.78048780487806,75.2439024390244,90,8
469,0.9033203125,0.2099609375,0.02880859375,-36.463414634146346,-60.54878048780488,73.96341463414635,90,8
470,0.90283203125,0.1904296875,0.01708984375,-36.707317073170735,-59.451219512195124,73.29268292682927,90,8
471,0.89208984375,0.15576171875,-0.01708984375,-36.09756097560976,-58.41463414634147,72.25609756097562,90,8
472,0.88525390625,0.134765625,-0.021484375,-34.87804878048781,-56.82926829268293,70.3048780487805,90,8
473,0.89599609375,0.14794921875,-0.0166015625,-33.59756097560976,-55.365853658536594,67.92682926829269,90,8
474,0.91943359375,0.15087890625,-0.01220703125,-31.951219512195124,-55.0609756097561,65.3658536585366,90,8
475,0.92138671875,0.1533203125,-0.02734375,-33.71951219512196,-50.97560975609756,77.98780487804879,90,8
476,0.91357421875,0.1591796875,-0.04736328125,-39.75609756097561,-45.1829268292683,58.71951219512196,90,8
477,0.9296875,0.19580078125,-0.02880859375,-46.09756097560976,-38.47560975609756,55.1219512195122,90,8
478,0.93994140625,0.20654296875,-0.00732421875,-50.304878048780495,-33.109756097560975,52.13414634146342,90,8
479,0.94091796875,0.1943359375,0.01220703125,-51.463414634146346,-29.39024390243903,49.75609756097561,90,8
480,0.91064453125,0.1337890625,0.00634765625,-50.304878048780495,-27.682926829268297,47.804878048780495,90,8
481,0.85302734375,0.08740234375,-0.00537109375,-62.31707317073171,-27.25609756097561,45.91463414634147,90,8
482,0.8447265625,0.08349609375,-0.0048828125,-41.524390243902445,-28.170731707317074,43.35365853658537,90,8
483,0.8701171875,0.08642578125,-0.04638671875,-37.6219512195122,-27.682926829268297,40.73170731707317,90,8
484,0.873046875,0.08349609375,-0.041015625,-37.19512195121951,-23.475609756097562,38.963414634146346,90,8
485,0.8759765625,0.11328125,-0.06884765625,-38.84146341463415,-20.426829268292686,37.01219512195122,90,8
486,0.8935546875,0.12060546875,-0.0869140625,-41.58536585365854,-17.865853658536587,35.85365853658537,90,8
487,0.99951171875,0.1044921875,-0.09130859375,-45.1829268292683,-13.841463414634148,35.0,90,8
488,0.873046875,0.08447265625,-0.09814453125,-49.39024390243903,-10.30487804878049,34.69512195121951,90,8
489,0.8427734375,0.087890625,-0.0576171875,-51.951219512195124,-5.914634146341464,34.390243902439025,90,8
490,0.83447265625,0.0634765625,-0.021484375,-55.487804878048784,-1.707317073170732,34.390243902439025,90,8
491,0.82080078125,0.04345703125,0.01708984375,-59.207317073170735,3.1097560975609757,33.29268292682927,90,8
492,0.783203125,0.009765625,0.06689453125,-59.51219512195122,8.292682926829269,31.82926829268293,90,8
493,0.80615234375,0.04248046875,0.12158203125,-58.35365853658537,13.963414634146343,29.75609756097561,90,8
494,0.828125,0.0546875,0.15234375,-56.707317073170735,19.085365853658537,27.5609756097561,90,8
495,0.83203125,0.05126953125,0.119140625,-55.54878048780488,22.134146341463417,25.243902439024392,90,8
496,0.82275390625,0.0302734375,0.048828125,-53.963414634146346,24.939024390243905,22.134146341463417,90,8
497,0.84619140625,0.04150390625,-0.0029296875,-52.19512195121952,26.52439024390244,18.53658536585366,90,8
498,0.89453125,0.08642578125,-0.12109375,-51.09756097560976,27.134146341463417,31.09756097560976,90,8
499,0.92333984375,0.0791015625,-0.0869140625,-51.768292682926834,28.353658536585368,12.439024390243903,90,8
