,Ax,Ay,Az,Gx,Gy,Gz,distance,shot_type
0,0.66845703125,-0.6015625,-0.44677734375,3.353658536585366,6.158536585365854,-4.085365853658537,100,0
1,0.6376953125,-0.62451171875,-0.42529296875,2.1951219512195124,5.914634146341464,-3.231707317073171,100,0
2,0.62548828125,-0.6376953125,-0.41162109375,0.6097560975609757,5.853658536585367,-1.707317073170732,100,0
3,0.60498046875,-0.64306640625,-0.4013671875,-1.6463414634146343,6.341463414634147,0.24390243902439027,100,0
4,0.5751953125,-0.65478515625,-0.39697265625,-2.0121951219512195,4.817073170731708,2.9268292682926833,100,0
5,0.5595703125,-0.68359375,-0.400390625,-15.426829268292684,2.378048780487805,5.3048780487804885,100,0
6,0.552734375,-0.6845703125,-0.40576171875,3.048780487804878,15.426829268292684,6.707317073170732,100,0
7,0.57421875,-0.66064453125,-0.4150390625,5.2439024390243905,-1.829268292682927,7.926829268292684,100,0
8,0.60302734375,-0.75,-0.4208984375,5.0,-2.25609756097561,8.963414634146343,100,0
9,0.61181640625,-0.59912109375,-0.4072265625,3.1707317073170733,-1.4634146341463417,10.060975609756099,100,0
10,0.61328125,-0.595703125,-0.39697265625,1.0975609756097562,-0.9146341463414634,10.670731707317074,100,0
11,0.6240234375,-0.576171875,-0.40087890625,-0.24390243902439027,-0.24390243902439027,11.646341463414634,100,0
12,0.74951171875,-0.55810546875,-0.2626953125,-1.4634146341463417,-0.6097560975609757,12.560975609756099,100,0
13,0.501953125,-0.54443359375,-0.376953125,-2.682926829268293,-0.7926829268292683,12.926829268292684,100,0
14,0.64306640625,-0.51171875,-0.35595703125,-3.658536585365854,-0.48780487804878053,12.500000000000002,100,0
15,0.658203125,-0.47705078125,-0.3232421875,-3.048780487804878,-0.6097560975609757,11.585365853658537,100,0
16,0.67529296875,-0.4423828125,-0.3046875,-1.2804878048780488,-0.853658536585366,9.634146341463415,100,0
17,0.69140625,-0.42138671875,-0.28564453125,1.402439024390244,-1.9512195121951221,7.865853658536586,100,0
18,0.68603515625,-0.39892578125,-0.25244140625,5.7926829268292686,-3.4756097560975614,5.548780487804878,100,0
19,0.70263671875,-0.35791015625,-0.25146484375,10.121951219512196,-4.146341463414634,3.1097560975609757,100,0
20,0.71923828125,-0.32861328125,-0.26220703125,11.829268292682928,-3.9024390243902443,0.9146341463414634,100,0
21,0.73388671875,-0.29931640625,-0.26611328125,11.585365853658537,-2.439024390243903,-1.5853658536585367,100,0
22,0.74267578125,-0.2734375,-0.25341796875,10.24390243902439,-0.853658536585366,-3.8414634146341466,100,0
23,0.74951171875,-0.25634765625,-0.2412109375,8.231707317073171,0.7926829268292683,-5.426829268292684,100,0
24,0.74658203125,-0.25634765625,-0.23486328125,7.073170731707318,1.6463414634146343,-7.134146341463415,100,0
25,0.7509765625,-0.27392578125,-0.23974609375,6.036585365853659,1.6463414634146343,-8.414634146341465,100,0
26,0.767578125,-0.2900390625,-0.26904296875,5.731707317073171,1.3414634146341464,-9.02439024390244,100,0
27,0.7509765625,-0.31201171875,-0.2998046875,7.25609756097561,1.0365853658536586,-9.02439024390244,100,0
28,0.734375,-0.2666015625,-0.30712890625,8.475609756097562,1.402439024390244,-8.78048780487805,100,0
29,0.69482421875,-0.43994140625,-0.3203125,10.487804878048781,2.6219512195121952,-9.02439024390244,100,0
30,0.7119140625,-0.41748046875,-0.32177734375,11.76829268292683,4.329268292682928,-9.329268292682928,100,0
31,0.72509765625,-0.41064453125,-0.318359375,15.243902439024392,4.817073170731708,-8.902439024390244,100,0
32,0.72021484375,-0.4150390625,-0.31689453125,16.402439024390244,5.426829268292684,-9.329268292682928,100,0
33,0.73828125,-0.39990234375,-0.31982421875,15.54878048780488,7.01219512195122,-8.902439024390244,100,0
34,0.72314453125,-0.41162109375,-0.30419921875,15.914634146341465,6.463414634146342,-7.378048780487806,100,0
35,0.701171875,-0.44384765625,-0.28759765625,17.439024390243905,4.75609756097561,-6.585365853658537,100,0
36,0.6904296875,-0.4462890625,-0.26708984375,18.78048780487805,3.353658536585366,-6.036585365853659,100,0
37,0.72119140625,-0.4345703125,-0.2705078125,17.378048780487806,3.1097560975609757,-5.975609756097562,100,0
38,0.72119140625,-0.44384765625,-0.2861328125,16.70731707317073,3.231707317073171,-6.402439024390245,100,0
39,0.72607421875,-0.45458984375,-0.30615234375,14.634146341463415,2.1341463414634148,-6.158536585365854,100,0
40,0.71044921875,-0.4814453125,-0.29296875,15.060975609756099,2.1341463414634148,-6.951219512195123,100,0
41,0.70947265625,-0.5029296875,-0.294921875,15.182926829268293,2.1341463414634148,-7.682926829268293,100,0
42,0.70556640625,-0.521484375,-0.302734375,31.158536585365855,2.0121951219512195,-7.926829268292684,100,0
43,0.66259765625,-0.5595703125,-0.30810546875,17.31707317073171,0.9756097560975611,-7.621951219512196,100,0
44,0.6435546875,-0.5732421875,-0.34814453125,17.5,0.9146341463414634,-7.865853658536586,100,0
45,0.6474609375,-0.56396484375,-0.36572265625,15.731707317073171,2.5,-7.378048780487806,100,0
46,0.634765625,-0.58203125,-0.2509765625,13.841463414634148,3.231707317073171,-5.975609756097562,100,0
47,0.61181640625,-0.58251953125,-0.37158203125,13.170731707317074,3.7195121951219514,-4.451219512195122,100,0
48,0.60302734375,-0.59716796875,-0.3505859375,14.02439024390244,3.5975609756097566,-3.231707317073171,100,0
49,0.58984375,-0.5869140625,-0.33935546875,14.329268292682928,3.231707317073171,-1.7682926829268295,100,0
50,0.59912109375,-0.5732421875,-0.3583984375,13.658536585365855,3.8414634146341466,-0.48780487804878053,100,0
51,0.6064453125,-0.5712890625,-0.251953125,11.585365853658537,5.0,0.7317073170731708,100,0
52,0.60791015625,-0.55908203125,-0.37939453125,8.719512195121952,6.158536585365854,1.8902439024390245,100,0
53,0.60693359375,-0.5546875,-0.36181640625,6.7682926829268295,7.195121951219513,2.6219512195121952,100,0
54,0.60302734375,-0.55517578125,-0.36572265625,4.75609756097561,7.926829268292684,2.8658536585365857,100,0
55,0.6025390625,-0.537109375,-0.3466796875,3.9024390243902443,8.475609756097562,2.682926829268293,100,0
56,0.6318359375,-0.51318359375,-0.35009765625,3.9024390243902443,9.756097560975611,2.073170731707317,100,0
57,0.6455078125,-0.5107421875,-0.3271484375,2.6219512195121952,11.76829268292683,2.073170731707317,100,0
58,0.65576171875,-0.505859375,-0.31298828125,0.5487804878048781,13.475609756097562,2.073170731707317,100,0
59,0.64990234375,-0.5126953125,-0.28369140625,-1.1585365853658538,14.390243902439027,2.3170731707317076,100,0
60,0.65283203125,-0.50390625,-0.25830078125,-1.707317073170732,15.914634146341465,2.378048780487805,100,0
61,0.65673828125,-0.50390625,-0.23193359375,-1.829268292682927,16.463414634146343,2.9268292682926833,100,0
62,0.6572265625,-0.501953125,-0.1962890625,-0.30487804878048785,16.34146341463415,3.353658536585366,100,0
63,0.65625,-0.52587890625,-0.17578125,1.524390243902439,15.853658536585368,3.353658536585366,100,0
64,0.66357421875,-0.5126953125,-0.17919921875,2.8658536585365857,15.79268292682927,2.439024390243903,100,0
65,0.677734375,-0.51904296875,-0.150390625,6.158536585365854,15.670731707317074,3.658536585365854,100,0
66,0.666015625,-0.53173828125,-0.1533203125,8.536585365853659,16.097560975609756,4.024390243902439,100,0
67,0.67236328125,-0.53515625,-0.1572265625,10.731707317073171,31.158536585365855,3.7195121951219514,100,0
68,0.70556640625,-0.48974609375,-0.17236328125,14.695121951219514,0.06097560975609757,3.1707317073170733,100,0
69,0.72705078125,-0.48291015625,-0.1826171875,16.03658536585366,16.76829268292683,4.146341463414634,100,0
70,0.6298828125,-0.45166015625,-0.22216796875,13.963414634146343,20.54878048780488,3.4756097560975614,100,0
71,0.7861328125,-0.41845703125,-0.23291015625,9.390243902439025,26.28048780487805,2.9268292682926833,100,0
72,0.7841796875,-0.43212890625,-0.22509765625,4.451219512195122,15.853658536585368,2.5,100,0
73,0.7744140625,-0.44921875,-0.20654296875,-0.853658536585366,36.09756097560976,3.048780487804878,100,0
74,0.7568359375,-0.48291015625,-0.189453125,-2.9268292682926833,38.10975609756098,3.8414634146341466,100,0
75,0.7158203125,-0.525390625,-0.16259765625,-3.4756097560975614,39.69512195121951,5.426829268292684,100,0
76,0.69482421875,-0.5546875,-0.13623046875,-3.963414634146342,40.0609756097561,5.914634146341464,100,0
77,0.7021484375,-0.53955078125,-0.11962890625,-3.2926829268292686,41.21951219512196,7.500000000000001,100,0
78,0.6962890625,-0.53125,-0.0830078125,-3.1707317073170733,42.86585365853659,8.475609756097562,100,0
79,0.6923828125,-0.54443359375,-0.0947265625,-1.2195121951219514,40.670731707317074,9.329268292682928,100,0
80,0.74560546875,-0.4931640625,-0.14697265625,2.804878048780488,40.54878048780488,8.658536585365855,100,0
81,0.798828125,-0.4345703125,-0.1640625,2.6219512195121952,44.32926829268293,7.195121951219513,100,0
82,0.79931640625,-0.4384765625,-0.1845703125,15.426829268292684,47.987804878048784,6.402439024390245,100,0
83,0.79833984375,-0.41259765625,-0.22314453125,-3.963414634146342,52.31707317073171,6.036585365853659,100,0
84,0.798828125,-0.40673828125,-0.22998046875,-9.51219512195122,57.43902439024391,6.829268292682928,100,0
85,0.8740234375,-0.44482421875,-0.22705078125,-15.487804878048783,61.82926829268293,7.926829268292684,100,0
86,0.7109375,-0.47216796875,-0.22216796875,-23.53658536585366,65.85365853658537,8.292682926829269,100,0
87,0.7216796875,-0.44677734375,-0.20068359375,-28.658536585365855,71.28048780487805,9.51219512195122,100,0
88,0.7236328125,-0.43701171875,-0.1904296875,-34.57317073170732,75.1219512195122,10.853658536585368,100,0
89,0.693359375,-0.45654296875,-0.18798828125,-37.743902439024396,75.91463414634147,11.463414634146343,100,0
90,0.669921875,-0.47265625,-0.193359375,-33.53658536585366,74.32926829268294,11.951219512195124,100,0
91,0.69091796875,-0.37744140625,-0.14453125,-28.10975609756098,73.23170731707317,12.987804878048781,100,0
92,0.6875,-0.56787109375,-0.15087890625,-24.878048780487806,70.79268292682927,13.902439024390246,100,0
93,0.673828125,-0.560546875,-0.21044921875,-21.890243902439025,65.1219512195122,12.256097560975611,100,0
94,0.6796875,-0.5322265625,-0.2939453125,-16.76829268292683,60.487804878048784,11.158536585365855,100,0
95,0.69189453125,-0.478515625,-0.31787109375,-18.170731707317074,60.304878048780495,7.378048780487806,100,0
96,0.71337890625,-0.4287109375,-0.3330078125,-32.6829268292683,65.60975609756098,5.609756097560976,100,0
97,0.75390625,-0.333984375,-0.3701171875,-45.670731707317074,70.97560975609757,3.8414634146341466,100,0
98,0.75341796875,-0.328125,-0.35546875,-55.1219512195122,73.65853658536587,2.5609756097560976,100,0
99,0.7333984375,-0.35595703125,-0.30126953125,-56.768292682926834,71.95121951219512,3.1097560975609757,100,0
100,0.70849609375,-0.3896484375,-0.21142578125,-54.146341463414636,67.01219512195122,3.536585365853659,100,0
101,0.669921875,-0.412109375,-0.15380859375,-50.36585365853659,60.365853658536594,4.939024390243903,100,0
102,0.64990234375,-0.4091796875,-0.16650390625,-62.19512195121952,52.37804878048781,5.670731707317073,100,0
103,0.611328125,-0.4072265625,-0.22119140625,-40.304878048780495,44.93902439024391,7.378048780487806,100,0
104,0.65234375,-0.390625,-0.27490234375,-36.09756097560976,41.34146341463415,7.073170731707318,100,0
105,0.703125,-0.31787109375,-0.35595703125,-38.84146341463415,41.524390243902445,6.890243902439025,100,0
106,0.73974609375,-0.263671875,-0.44189453125,-44.207317073170735,44.93902439024391,6.341463414634147,100,0
107,0.74462890625,-0.26025390625,-0.453125,-50.426829268292686,47.6219512195122,5.731707317073171,100,0
108,0.74169921875,-0.27685546875,-0.466796875,-55.487804878048784,49.146341463414636,5.182926829268293,100,0
109,0.7578125,-0.25732421875,-0.4541015625,-59.085365853658544,49.146341463414636,4.207317073170732,100,0
110,0.87255859375,-0.259765625,-0.44873046875,-61.40243902439025,47.86585365853659,3.1097560975609757,100,0
111,0.7294921875,-0.2568359375,-0.41259765625,-61.89024390243903,44.87804878048781,2.378048780487805,100,0
112,0.705078125,-0.2626953125,-0.36865234375,-62.50000000000001,41.03658536585366,2.1341463414634148,100,0
113,0.69287109375,-0.24951171875,-0.33544921875,-62.31707317073171,36.82926829268293,1.6463414634146343,100,0
114,0.6796875,-0.2568359375,-0.35791015625,-62.865853658536594,33.04878048780488,15.487804878048783,100,0
115,0.67724609375,-0.2158203125,-0.36962890625,-64.75609756097562,32.43902439024391,-2.1951219512195124,100,0
116,0.71142578125,-0.18212890625,-0.42041015625,-66.03658536585367,29.87804878048781,-5.182926829268293,100,0
117,0.73828125,-0.13916015625,-0.45556640625,-67.7439024390244,28.04878048780488,-8.841463414634147,100,0
118,0.62646484375,-0.15283203125,-0.4423828125,-69.39024390243902,27.012195121951223,-11.341463414634147,100,0
119,0.72607421875,-0.1787109375,-0.4375,-72.31707317073172,25.731707317073173,-13.475609756097562,100,0
120,0.70947265625,-0.1845703125,-0.39111328125,-75.0609756097561,24.390243902439025,-14.939024390243905,100,0
121,0.6962890625,-0.1943359375,-0.39013671875,-77.8658536585366,22.682926829268293,-16.097560975609756,100,0
122,0.6669921875,-0.2041015625,-0.39990234375,-79.87804878048782,21.463414634146343,-18.04878048780488,100,0
123,0.68408203125,-0.18408203125,-0.3837890625,-82.50000000000001,21.951219512195124,-19.26829268292683,100,0
124,0.71435546875,-0.13720703125,-0.373046875,-86.09756097560977,21.219512195121954,-20.121951219512198,100,0
125,0.72216796875,-0.146484375,-0.3876953125,-89.26829268292684,20.0609756097561,-22.25609756097561,100,0
126,0.72705078125,-0.1416015625,-0.42529296875,-91.40243902439025,18.231707317073173,-25.121951219512198,100,0
127,0.73388671875,-0.13037109375,-0.4443359375,-78.47560975609757,17.378048780487806,-27.987804878048784,100,0
128,0.62744140625,-0.1298828125,-0.4365234375,-98.04878048780489,18.170731707317074,-30.487804878048784,100,0
129,0.7470703125,-0.134765625,-0.4375,-102.01219512195122,17.621951219512198,-32.80487804878049,100,0
130,0.751953125,-0.1552734375,-0.44091796875,-104.32926829268294,15.853658536585368,-35.79268292682927,100,0
131,0.75634765625,-0.16552734375,-0.45361328125,-105.97560975609757,14.695121951219514,-38.59756097560976,100,0
132,0.7666015625,-0.14990234375,-0.45361328125,-108.53658536585367,14.878048780487806,-40.79268292682927,100,0
133,0.80224609375,-0.125,-0.4541015625,-112.07317073170732,14.51219512195122,-43.23170731707317,100,0
134,0.8271484375,-0.10205078125,-0.4609375,-116.70731707317074,15.426829268292684,-44.57317073170732,100,0
135,0.82421875,-0.1083984375,-0.45947265625,-122.50000000000001,15.914634146341465,-46.646341463414636,100,0
136,0.83251953125,-0.109375,-0.4599609375,-129.81707317073173,17.98780487804878,-50.00000000000001,100,0
137,0.83544921875,-0.119140625,-0.45556640625,-134.81707317073173,19.75609756097561,-52.5609756097561,100,0
138,0.84716796875,-0.11181640625,-0.4833984375,-137.8658536585366,18.963414634146343,-55.73170731707317,100,0
139,0.865234375,-0.0966796875,-0.48046875,-141.52439024390245,19.02439024390244,-58.53658536585366,100,0
140,0.86962890625,-0.1201171875,-0.48486328125,-145.0609756097561,19.32926829268293,-61.28048780487806,100,0
141,0.8876953125,-0.11669921875,-0.48095703125,-149.32926829268294,21.402439024390247,-64.39024390243902,100,0
142,0.8896484375,-0.11962890625,-0.43603515625,-153.53658536585368,23.04878048780488,-66.40243902439025,100,0
143,0.91064453125,-0.11474609375,-0.40869140625,-158.71951219512198,24.32926829268293,-68.71951219512195,100,0
144,0.916015625,-0.1171875,-0.41015625,-162.9268292682927,26.52439024390244,-70.79268292682927,100,0
145,0.90087890625,-0.12060546875,-0.412109375,-167.13414634146343,28.719512195121954,-74.08536585365854,100,0
146,0.9384765625,-0.11767578125,-0.42578125,-168.41463414634148,28.719512195121954,-77.37804878048782,100,0
147,0.95947265625,-0.09765625,-0.52001953125,-165.609756097561,25.121951219512198,-81.15853658536587,100,0
148,1.001953125,-0.01953125,-0.55078125,-165.3658536585366,25.30487804878049,-85.1829268292683,100,0
149,1.0390625,-0.119140625,-0.58447265625,-170.00000000000003,26.463414634146343,-89.39024390243904,100,0
150,1.06103515625,0.02490234375,-0.5791015625,-173.2926829268293,28.292682926829272,-78.41463414634147,100,0
151,1.1005859375,0.0244140625,-0.583984375,-176.95121951219514,30.000000000000004,-98.29268292682927,100,0
152,1.2451171875,0.02734375,-0.5751953125,-179.57317073170734,30.731707317073173,-102.19512195121952,100,0
153,1.10205078125,0.01025390625,-0.5673828125,-181.34146341463415,30.975609756097565,-105.60975609756099,100,0
154,1.08349609375,-0.00244140625,-0.5478515625,-179.57317073170734,29.75609756097561,-108.17073170731709,100,0
155,1.09423828125,-0.0068359375,-0.53369140625,-175.4268292682927,28.414634146341466,-111.28048780487806,100,0
156,1.13330078125,0.03271484375,-0.5458984375,-171.89024390243904,26.646341463414636,-115.85365853658537,100,0
157,1.1796875,0.07861328125,-0.56640625,-172.13414634146343,27.012195121951223,-119.75609756097562,100,0
158,1.23779296875,0.11279296875,-0.5908203125,-175.3048780487805,28.292682926829272,-124.14634146341464,100,0
159,1.2861328125,0.13623046875,-0.61279296875,-179.02439024390245,30.60975609756098,-129.81707317073173,100,0
160,1.3232421875,0.150390625,-0.615234375,-183.71951219512198,15.609756097560977,-134.51219512195124,100,0
161,1.3603515625,0.14501953125,-0.50390625,-187.13414634146343,33.90243902439025,-139.45121951219514,100,0
162,1.39697265625,0.169921875,-0.58447265625,-189.75609756097563,36.28048780487805,-144.75609756097563,100,0
163,1.41455078125,0.16845703125,-0.556640625,-190.1219512195122,38.10975609756098,-150.4268292682927,100,0
164,1.431640625,0.16748046875,-0.564453125,-190.3048780487805,39.75609756097561,-153.84146341463415,100,0
165,1.43408203125,0.150390625,-0.55908203125,-191.52439024390245,42.926829268292686,-158.71951219512198,100,0
166,1.44873046875,0.12841796875,-0.5400390625,-193.109756097561,45.36585365853659,-161.82926829268294,100,0
167,1.46142578125,0.12744140625,-0.50537109375,-194.08536585365854,48.53658536585366,-165.0609756097561,100,0
168,1.45361328125,0.1015625,-0.45751953125,-194.57317073170734,50.91463414634147,-167.9268292682927,100,0
169,1.453125,0.08740234375,-0.4248046875,-193.1707317073171,52.6219512195122,-170.91463414634148,100,0
170,1.462890625,0.07958984375,-0.4208984375,-189.93902439024393,52.43902439024391,-172.25609756097563,100,0
171,1.43505859375,0.03271484375,-0.4267578125,-185.06097560975613,52.19512195121952,-175.7926829268293,100,0
172,1.45849609375,0.0537109375,-0.423828125,-179.63414634146343,52.31707317073171,-179.63414634146343,100,0
173,1.48095703125,0.09423828125,-0.35791015625,-176.28048780487808,53.29268292682927,-184.08536585365854,100,0
174,1.48681640625,0.09228515625,-0.3212890625,-176.15853658536588,55.00000000000001,-171.82926829268294,100,0
175,1.484375,0.072265625,-0.2724609375,-175.4878048780488,57.804878048780495,-190.5487804878049,100,0
176,1.4853515625,0.07763671875,-0.185546875,-173.41463414634148,60.54878048780488,-191.82926829268294,100,0
177,1.47216796875,0.1103515625,-0.1318359375,-171.82926829268294,64.32926829268293,-193.109756097561,100,0
178,1.4462890625,0.14111328125,-0.1025390625,-170.1219512195122,66.21951219512195,-195.1829268292683,100,0
179,1.42529296875,0.1708984375,-0.08984375,-165.4268292682927,66.03658536585367,-197.19512195121953,100,0
180,1.43603515625,0.18603515625,-0.13525390625,-159.26829268292684,66.82926829268293,-199.08536585365854,100,0
181,1.421875,0.18310546875,-0.1591796875,-152.9878048780488,66.95121951219512,-202.7439024390244,100,0
182,1.40087890625,0.228515625,-0.19091796875,-146.95121951219514,66.82926829268293,-205.1829268292683,100,0
183,1.3994140625,0.27099609375,-0.173828125,-142.13414634146343,66.09756097560977,-207.7439024390244,100,0
184,1.36962890625,0.2900390625,-0.150390625,-137.19512195121953,66.58536585365854,-210.06097560975613,100,0
185,1.29638671875,0.2939453125,-0.25,-131.82926829268294,64.81707317073172,-210.7317073170732,100,0
186,1.2275390625,0.2587890625,-0.08544921875,-140.2439024390244,62.43902439024391,-212.62195121951223,100,0
187,1.16064453125,0.30078125,-0.02197265625,-115.42682926829269,58.53658536585366,-213.1707317073171,100,0
188,1.14013671875,0.3154296875,0.01708984375,-106.82926829268294,55.00000000000001,-215.3658536585366,100,0
189,1.16552734375,0.37744140625,0.04736328125,-99.75609756097562,49.207317073170735,-217.13414634146343,100,0
190,1.16455078125,0.39501953125,0.04150390625,-93.04878048780489,45.487804878048784,-218.53658536585368,100,0
191,1.1298828125,0.38916015625,0.029296875,-89.93902439024392,43.170731707317074,-219.39024390243904,100,0
192,1.126953125,0.375,0.01708984375,-88.41463414634147,41.890243902439025,-221.09756097560978,100,0
193,1.1220703125,0.3916015625,0.04150390625,-84.69512195121952,41.34146341463415,-221.89024390243904,100,0
194,1.1025390625,0.41162109375,0.033203125,-81.40243902439025,39.390243902439025,-221.21951219512198,100,0
195,1.0546875,0.39892578125,0.01806640625,-93.59756097560977,38.47560975609756,-220.06097560975613,100,0
196,1.03076171875,0.39697265625,0.0419921875,-75.0609756097561,37.926829268292686,-220.91463414634148,100,0
197,0.9765625,0.3818359375,0.041015625,-71.52439024390245,35.91463414634147,-220.6707317073171,100,0
198,0.96875,0.38818359375,0.06005859375,-66.09756097560977,35.426829268292686,-221.40243902439028,100,0
199,0.92919921875,0.39306640625,0.0693359375,-66.58536585365854,35.1829268292683,-221.28048780487808,100,0
200,0.9072265625,0.337890625,0.0673828125,-65.85365853658537,36.15853658536586,-221.03658536585368,100,0
201,0.8623046875,0.31494140625,0.12841796875,-63.35365853658537,35.670731707317074,-220.3048780487805,100,0
202,0.853515625,0.28369140625,0.18017578125,-57.31707317073171,34.207317073170735,-219.14634146341464,100,0
203,0.80078125,0.22509765625,0.1826171875,-50.91463414634147,33.29268292682927,-217.56097560975613,100,0
204,0.87109375,0.197265625,0.197265625,-47.804878048780495,31.76829268292683,-215.4878048780488,100,0
205,0.6728515625,0.14501953125,0.205078125,-43.59756097560976,30.792682926829272,-215.00000000000003,100,0
206,0.7451171875,0.12353515625,0.25537109375,-40.36585365853659,31.280487804878053,-212.56097560975613,100,0
207,0.57470703125,0.0751953125,0.37451171875,-40.54878048780488,34.69512195121951,-209.57317073170734,100,0
208,0.5390625,0.0166015625,0.2392578125,-42.5609756097561,37.31707317073171,-205.3658536585366,100,0
209,0.48583984375,-0.02099609375,0.2021484375,-41.646341463414636,37.5609756097561,-201.21951219512198,100,0
210,0.4248046875,-0.07177734375,0.23388671875,-41.09756097560976,38.963414634146346,-195.7926829268293,100,0
211,0.4912109375,-0.015625,0.2158203125,-39.57317073170732,38.35365853658537,-190.3048780487805,100,0
212,0.27587890625,-0.24365234375,0.1689453125,-34.51219512195122,35.97560975609756,-183.71951219512198,100,0
213,0.27001953125,-0.27685546875,0.2138671875,-29.81707317073171,36.34146341463415,-179.08536585365854,100,0
214,0.228515625,-0.25341796875,0.26025390625,-28.902439024390247,40.91463414634147,-187.31707317073173,100,0
215,0.16015625,-0.2978515625,0.31689453125,-35.243902439024396,44.08536585365854,-162.5609756097561,100,0
216,0.03515625,-0.3681640625,0.419921875,-33.90243902439025,43.35365853658537,-152.5609756097561,100,0
217,-0.01513671875,-0.44287109375,0.41064453125,-31.82926829268293,45.97560975609756,-143.90243902439025,100,0
218,-0.123046875,-0.544921875,0.412109375,-29.634146341463417,44.87804878048781,-132.5,100,0
219,-0.240234375,-0.712890625,0.41064453125,-22.5609756097561,41.646341463414636,-119.87804878048782,100,0
220,-0.34375,-0.80859375,0.43408203125,-13.78048780487805,39.146341463414636,-106.15853658536587,100,0
221,-0.2529296875,-0.85205078125,0.41064453125,-8.536585365853659,36.646341463414636,-90.67073170731707,100,0
222,-0.46337890625,-0.95458984375,0.4404296875,-4.390243902439025,36.21951219512196,-73.17073170731707,100,0
223,-0.45849609375,-1.06884765625,0.46142578125,1.707317073170732,36.951219512195124,-55.243902439024396,100,0
224,-0.47509765625,-1.14404296875,0.552734375,9.634146341463415,37.19512195121951,-39.08536585365854,100,0
225,-0.4501953125,-1.22265625,0.5869140625,15.000000000000002,38.29268292682927,-20.79268292682927,100,0
226,-0.4150390625,-1.298828125,0.59814453125,17.621951219512198,40.1219512195122,-4.085365853658537,100,0
227,-0.4072265625,-1.41162109375,0.5888671875,22.682926829268293,40.304878048780495,13.78048780487805,100,0
228,-0.4267578125,-1.478515625,0.6533203125,29.26829268292683,40.91463414634147,29.08536585365854,100,0
229,-0.40087890625,-1.5126953125,0.64697265625,33.170731707317074,41.951219512195124,46.646341463414636,100,0
230,-0.4970703125,-1.58447265625,0.57470703125,36.03658536585366,44.024390243902445,47.804878048780495,100,0
231,-0.31884765625,-1.65234375,0.4619140625,39.390243902439025,44.146341463414636,83.53658536585367,100,0
232,-0.27001953125,-1.76904296875,0.36865234375,45.1219512195122,45.1829268292683,101.89024390243904,100,0
233,-0.21533203125,-1.8564453125,0.31396484375,54.87804878048781,44.75609756097561,124.51219512195124,100,0
234,-0.15869140625,-1.97021484375,0.2431640625,65.1219512195122,45.0609756097561,147.9268292682927,100,0
235,-0.0615234375,-2.0322265625,0.17236328125,70.79268292682927,46.34146341463415,170.3048780487805,100,0
236,0.04296875,-2.12109375,0.13818359375,75.60975609756098,46.463414634146346,194.81707317073173,100,0
237,0.1318359375,-2.23291015625,0.11474609375,83.23170731707317,45.487804878048784,220.4878048780488,100,0
238,0.27783203125,-2.29638671875,0.10302734375,88.96341463414635,46.34146341463415,246.58536585365854,100,0
239,0.4345703125,-2.39599609375,0.0771484375,92.37804878048782,46.524390243902445,277.6219512195122,100,0
240,0.51416015625,-2.53125,0.0263671875,97.43902439024392,48.53658536585366,307.6829268292683,100,0
241,0.83349609375,-2.66845703125,-0.10595703125,102.01219512195122,45.91463414634147,340.2439024390244,100,0
242,1.0546875,-2.8173828125,-0.30908203125,112.01219512195122,41.768292682926834,373.4146341463415,100,0
243,1.36328125,-2.95947265625,-0.45263671875,110.1219512195122,34.81707317073171,390.8536585365854,100,0
244,1.63134765625,-3.01611328125,-0.63134765625,145.4878048780488,25.731707317073173,442.92682926829275,100,0
245,2.0478515625,-3.412109375,-0.93310546875,177.43902439024393,17.5,477.37804878048786,100,0
246,2.57958984375,-3.69970703125,-1.30029296875,206.64634146341464,4.817073170731708,514.5731707317074,100,0
247,3.13916015625,-3.9296875,-1.62353515625,278.3536585365854,-7.743902439024391,551.1585365853659,100,0
248,3.66552734375,-4.11328125,-1.8681640625,342.8048780487805,-16.402439024390244,584.8780487804878,100,0
249,4.45263671875,-4.27783203125,-2.001953125,400.7317073170732,-30.60975609756098,611.1585365853659,100,0
250,5.21240234375,-4.38134765625,-2.142578125,433.4146341463415,-0.24390243902439027,634.5731707317074,100,0
251,5.96484375,-4.27490234375,-2.44091796875,459.1463414634147,14.146341463414636,652.8048780487806,100,0
252,6.36181640625,-4.12939453125,-2.8544921875,469.51219512195127,30.426829268292686,669.0243902439025,100,0
253,6.7490234375,-3.9873046875,-3.40478515625,467.13414634146346,50.670731707317074,690.548780487805,100,0
254,7.34619140625,-3.82470703125,-4.01708984375,474.81707317073176,86.95121951219512,726.5243902439025,100,0
255,8.05712890625,-3.3466796875,-4.45849609375,521.7073170731708,89.08536585365854,777.439024390244,100,0
256,9.06201171875,-3.0263671875,-5.32177734375,604.7560975609757,66.70731707317074,816.5243902439025,100,0
257,10.04150390625,-2.02978515625,-5.71337890625,655.7926829268293,43.170731707317074,813.1707317073171,100,0
258,9.88427734375,-0.75048828125,-6.34619140625,728.109756097561,-36.646341463414636,805.4878048780489,100,0
259,9.3291015625,0.20947265625,-6.66748046875,814.3902439024391,-146.21951219512195,792.5000000000001,100,0
260,8.2294921875,0.052734375,-7.34130859375,936.0365853658537,-251.34146341463418,722.9878048780488,100,0
261,7.14697265625,-0.568359375,-7.857421875,1088.1707317073171,-433.3536585365854,635.2439024390244,100,0
262,5.271484375,-1.51171875,-8.70556640625,1327.7439024390244,-610.3048780487806,454.32926829268297,100,0
263,9.6962890625,-1.83837890625,-15.26904296875,1701.4024390243903,-1259.5731707317075,1272.1951219512196,100,0
264,-16.0,-15.88232421875,14.794921875,444.87804878048786,1992.4390243902442,-1422.2560975609758,100,0
265,15.99951171875,15.99951171875,-1.27734375,518.9634146341464,-184.51219512195124,-134.26829268292684,100,0
266,2.72509765625,-11.375,-6.28466796875,1271.3414634146343,-263.8414634146342,72.01219512195122,100,0
267,14.4951171875,7.8466796875,7.5654296875,852.0731707317074,49.451219512195124,-157.25609756097563,100,0
268,-2.50390625,-2.49169921875,-3.1708984375,902.7439024390245,-187.31707317073173,-212.9878048780488,100,0
269,5.85400390625,-0.9228515625,-3.07763671875,850.6097560975611,10.487804878048781,-371.70731707317077,100,0
270,4.8623046875,0.42578125,-2.1328125,888.1097560975611,-1.524390243902439,-357.07317073170736,100,0
271,3.92431640625,-2.896484375,-3.9736328125,816.9512195121952,-130.1219512195122,-488.5975609756098,100,0
272,3.14208984375,-1.220703125,-2.90771484375,699.0243902439025,-213.109756097561,-568.3536585365854,100,0
273,1.5546875,-0.99755859375,-3.001953125,625.1829268292684,-182.9878048780488,-581.1585365853659,100,0
274,1.3427734375,-1.19580078125,-2.6650390625,500.9756097560976,-110.1219512195122,-586.1585365853659,100,0
275,1.04443359375,-1.29833984375,-1.94140625,394.32926829268297,-102.50000000000001,-597.0121951219513,100,0
276,1.05419921875,-0.5126953125,-1.552734375,355.5487804878049,-41.951219512195124,-604.2073170731708,100,0
277,1.74609375,-0.0048828125,-0.998046875,292.5,-7.01219512195122,-623.4146341463415,100,0
278,1.79638671875,0.17138671875,-0.71240234375,244.08536585365854,46.40243902439025,-640.548780487805,100,0
279,2.43505859375,0.42724609375,-0.42236328125,168.84146341463415,104.32926829268294,-665.548780487805,100,0
280,2.939453125,0.3232421875,-0.1103515625,70.1219512195122,124.87804878048782,-658.048780487805,100,0
281,2.9541015625,-0.34765625,-0.0966796875,12.01219512195122,180.06097560975613,-646.4024390243903,100,0
282,2.81005859375,-0.59521484375,-0.31591796875,-76.21951219512196,200.3048780487805,-619.5121951219513,100,0
283,2.3701171875,-0.88525390625,-0.734375,-128.78048780487805,211.52439024390245,-585.0,100,0
284,2.0068359375,-1.20947265625,-0.9638671875,-170.00000000000003,216.03658536585368,-551.7073170731708,100,0
285,1.85107421875,-0.94189453125,-0.654296875,-195.4268292682927,219.63414634146343,-525.9756097560976,100,0
286,1.57177734375,-0.8759765625,-0.3740234375,-212.50000000000003,219.81707317073173,-505.24390243902445,100,0
287,1.35693359375,-0.79296875,-0.1923828125,-226.95121951219514,260.0609756097561,-491.5243902439025,100,0
288,1.25341796875,-0.69482421875,-0.04736328125,-228.1707317073171,270.0,-481.4024390243903,100,0
289,1.2197265625,-0.4521484375,-0.05126953125,-225.7926829268293,275.6707317073171,-465.24390243902445,100,0
290,1.15283203125,-0.3828125,-0.234375,-226.82926829268294,279.45121951219517,-445.609756097561,100,0
291,1.166015625,-0.427734375,-0.44921875,-233.0487804878049,284.32926829268297,-422.74390243902445,100,0
292,1.10693359375,-0.576171875,-0.62109375,-249.63414634146343,293.9024390243903,-397.07317073170736,100,0
293,1.0068359375,-0.703125,-0.79296875,-258.2317073170732,297.19512195121956,-371.1585365853659,100,0
294,1.24853515625,-0.64453125,-0.98046875,-252.56097560975613,305.3658536585366,-337.19512195121956,100,0
295,0.830078125,-0.3935546875,-0.908203125,-241.52439024390247,290.6707317073171,-306.2804878048781,100,0
296,0.75341796875,-0.564453125,-1.0634765625,-231.28048780487808,281.5243902439025,-285.7317073170732,100,0
297,0.5703125,-0.35107421875,-1.244140625,-229.63414634146343,281.4024390243903,-272.25609756097566,100,0
298,0.44677734375,-0.39794921875,-0.87646484375,-231.64634146341464,277.4390243902439,-253.90243902439028,100,0
299,0.15869140625,-0.5302734375,-0.634765625,-231.28048780487808,271.70731707317077,-238.47560975609758,100,0
300,-0.005859375,-0.517578125,-0.65185546875,-231.82926829268294,260.0609756097561,-220.4268292682927,100,0
301,0.013671875,-0.2470703125,-0.791015625,-248.47560975609758,250.5487804878049,-218.47560975609758,100,0
302,0.10498046875,-0.0859375,-0.8603515625,-255.7317073170732,231.03658536585368,-182.50000000000003,100,0
303,0.11376953125,-0.05126953125,-1.0,-288.5975609756098,218.71951219512198,-167.6829268292683,100,0
304,0.0888671875,-0.0625,-0.8896484375,-306.6463414634147,207.37804878048783,-149.63414634146343,100,0
305,-0.005859375,-0.1845703125,-0.78125,-303.9024390243903,202.9268292682927,-137.25609756097563,100,0
306,-0.375,-0.28271484375,-0.53662109375,-300.1219512195122,194.20731707317074,-125.3048780487805,100,0
307,-0.5048828125,-0.314453125,-0.443359375,-290.5487804878049,185.3658536585366,-121.95121951219514,100,0
308,-0.7099609375,-0.240234375,-0.49462890625,-269.8780487804878,180.7926829268293,-124.45121951219514,100,0
309,-0.7431640625,-0.09912109375,-0.5283203125,-238.47560975609758,167.5609756097561,-123.04878048780489,100,0
310,-0.509765625,-0.0341796875,-0.546875,-215.3658536585366,158.65853658536588,-121.40243902439025,100,0
311,-0.45458984375,-0.03515625,-0.65771484375,-205.1829268292683,152.5609756097561,-112.50000000000001,100,0
312,-0.3779296875,-0.0634765625,-0.716796875,-202.01219512195124,147.25609756097563,-95.00000000000001,100,0
313,-0.69921875,-0.19189453125,-0.6865234375,-194.81707317073173,145.1829268292683,-74.93902439024392,100,0
314,-0.951171875,-0.13720703125,-0.517578125,-185.00000000000003,145.4878048780488,-77.6829268292683,100,0
315,-1.05908203125,-0.26611328125,-0.51708984375,-177.13414634146343,144.45121951219514,-54.93902439024391,100,0
316,-1.025390625,-0.16357421875,-0.609375,-166.76829268292684,142.9268292682927,-52.37804878048781,100,0
317,-0.9404296875,-0.08642578125,-0.646484375,-150.4268292682927,131.03658536585368,-46.09756097560976,100,0
318,-0.9755859375,-0.10693359375,-0.62548828125,-134.51219512195124,111.15853658536587,-40.0,100,0
319,-1.0712890625,-0.19482421875,-0.60986328125,-122.13414634146342,94.93902439024392,-32.43902439024391,100,0
320,-1.162109375,-0.31591796875,-0.5439453125,-111.58536585365854,80.91463414634147,-22.500000000000004,100,0
321,-1.27001953125,-0.41552734375,-0.4228515625,-105.85365853658537,71.21951219512195,-13.475609756097562,100,0
322,-1.31103515625,-0.44873046875,-0.4150390625,-107.31707317073172,67.13414634146342,-6.951219512195123,100,0
323,-1.2607421875,-0.380859375,-0.41650390625,-105.1219512195122,61.03658536585366,-1.829268292682927,100,0
324,-1.18994140625,-0.34033203125,-0.43798828125,-99.81707317073172,52.743902439024396,3.8414634146341466,100,0
325,-1.1201171875,-0.30615234375,-0.47216796875,-88.41463414634147,39.63414634146342,10.060975609756099,100,0
326,-1.10546875,-0.275390625,-0.46435546875,-74.45121951219512,25.182926829268293,15.000000000000002,100,0
327,-1.12353515625,-0.2626953125,-0.47509765625,-64.08536585365854,14.146341463414636,20.60975609756098,100,0
328,-1.14208984375,-0.369140625,-0.431640625,-54.268292682926834,5.3048780487804885,25.853658536585368,100,0
329,-1.1767578125,-0.24169921875,-0.4951171875,-49.57317073170732,-1.0975609756097562,31.03658536585366,100,0
330,-1.2236328125,-0.21728515625,-0.34375,-44.268292682926834,-7.195121951219513,35.73170731707317,100,0
331,-1.22412109375,-0.2109375,-0.34765625,-37.5,-15.30487804878049,38.170731707317074,100,0
332,-1.19287109375,-0.14892578125,-0.35888671875,-46.82926829268293,-23.353658536585368,40.487804878048784,100,0
333,-1.17626953125,-0.09033203125,-0.33740234375,-23.719512195121954,-29.939024390243905,42.743902439024396,100,0
334,-1.1640625,-0.03173828125,-0.30078125,-17.5609756097561,-36.28048780487805,44.75609756097561,100,0
335,-1.166015625,0.005859375,-0.26904296875,-11.402439024390246,-42.13414634146342,46.03658536585366,100,0
336,-1.1787109375,0.029296875,-0.265625,-5.121951219512195,-47.926829268292686,45.91463414634147,100,0
337,-1.17724609375,0.05029296875,-0.25048828125,1.9512195121951221,-52.5609756097561,44.93902439024391,100,0
338,-1.166015625,0.06787109375,-0.19140625,7.621951219512196,-57.37804878048781,45.0609756097561,100,0
339,-1.15576171875,0.07177734375,-0.1591796875,12.74390243902439,-62.01219512195122,45.36585365853659,100,0
340,-1.16064453125,0.07080078125,-0.1455078125,16.890243902439025,-65.0,46.15853658536586,100,0
341,-1.20703125,0.06201171875,-0.1572265625,21.463414634146343,-70.1829268292683,46.15853658536586,100,0
342,-1.23193359375,0.06494140625,-0.16064453125,27.25609756097561,-73.59756097560977,46.21951219512196,100,0
343,-1.220703125,0.08935546875,-0.13134765625,33.35365853658537,-77.37804878048782,46.34146341463415,100,0
344,-1.21728515625,0.08935546875,-0.103515625,37.5,-81.76829268292684,46.951219512195124,100,0
345,-1.22216796875,0.1123046875,-0.10009765625,39.93902439024391,-86.82926829268294,47.07317073170732,100,0
346,-1.20751953125,0.11181640625,-0.095703125,41.707317073170735,-91.76829268292684,47.25609756097561,100,0
347,-1.19140625,0.09375,-0.09375,43.90243902439025,-96.21951219512196,47.6829268292683,100,0
348,-1.17529296875,0.0537109375,-0.05908203125,45.85365853658537,-99.14634146341464,48.47560975609756,100,0
349,-1.14697265625,0.078125,-0.052734375,46.524390243902445,-103.23170731707317,50.00000000000001,100,0
350,-1.12939453125,0.06689453125,-0.03076171875,47.25609756097561,-106.64634146341464,51.768292682926834,100,0
351,-1.10302734375,0.064453125,0.00439453125,48.170731707317074,-109.87804878048782,53.47560975609757,100,0
352,-1.08056640625,0.09228515625,0.0302734375,49.57317073170732,-113.23170731707319,55.0609756097561,100,0
353,-1.0458984375,0.1005859375,0.05078125,51.21951219512196,-116.46341463414635,56.646341463414636,100,0
354,-1.12353515625,0.1220703125,0.06103515625,52.987804878048784,-119.69512195121952,57.926829268292686,100,0
355,-0.9677734375,0.17529296875,0.083984375,54.268292682926834,-123.35365853658537,59.024390243902445,100,0
356,-0.92822265625,0.2001953125,0.11376953125,55.67073170731708,-127.01219512195124,59.57317073170732,100,0
357,-0.88330078125,0.21826171875,0.14697265625,56.89024390243903,-130.1829268292683,59.63414634146342,100,0
358,-0.8359375,0.22509765625,0.17138671875,58.90243902439025,-134.32926829268294,58.963414634146346,100,0
359,-0.80615234375,0.23974609375,0.19677734375,60.85365853658537,-137.19512195121953,57.743902439024396,100,0
360,-0.771484375,0.26708984375,0.21728515625,58.71951219512196,-136.28048780487805,55.1219512195122,100,0
361,-0.73828125,0.28857421875,0.22509765625,56.15853658536586,-135.6707317073171,52.926829268292686,100,0
362,-0.72998046875,0.3046875,0.26318359375,53.71951219512196,-135.0,50.85365853658537,100,0
363,-0.7216796875,0.3115234375,0.30322265625,52.6219512195122,-134.75609756097563,49.75609756097561,100,0
364,-0.7265625,0.2919921875,0.32275390625,52.13414634146342,-133.71951219512195,47.6829268292683,100,0
365,-0.724609375,0.29052734375,0.341796875,54.146341463414636,-134.20731707317074,45.73170731707317,100,0
366,-0.7333984375,0.29052734375,0.35498046875,58.90243902439025,-135.7926829268293,44.268292682926834,100,0
367,-0.70703125,0.3076171875,0.36865234375,63.90243902439025,-138.2317073170732,43.10975609756098,100,0
368,-0.68896484375,0.29150390625,0.39501953125,66.52439024390245,-136.82926829268294,41.646341463414636,100,0
369,-0.66015625,0.31982421875,0.3896484375,65.60975609756098,-132.7439024390244,39.51219512195122,100,0
370,-0.6044921875,0.3642578125,0.38134765625,62.926829268292686,-130.7317073170732,38.78048780487805,100,0
371,-0.55712890625,0.400390625,0.37841796875,61.82926829268293,-131.46341463414635,38.59756097560976,100,0
372,-0.54931640625,0.40576171875,0.3857421875,58.71951219512196,-131.15853658536585,37.31707317073171,100,0
373,-0.544921875,0.40576171875,0.435546875,58.41463414634147,-129.9390243902439,35.91463414634147,100,0
374,-0.529296875,0.4208984375,0.4697265625,58.71951219512196,-130.3658536585366,35.30487804878049,100,0
375,-0.48779296875,0.4404296875,0.50634765625,60.426829268292686,-132.9268292682927,35.54878048780488,100,0
376,-0.490234375,0.41845703125,0.51611328125,63.47560975609757,-134.69512195121953,34.390243902439025,100,0
377,-0.376953125,0.4169921875,0.53466796875,67.6219512195122,-134.9390243902439,32.37804878048781,100,0
378,-0.48046875,0.4306640625,0.52734375,70.0609756097561,-134.39024390243904,29.634146341463417,100,0
379,-0.43603515625,0.43798828125,0.51953125,70.42682926829269,-132.07317073170734,28.658536585365855,100,0
380,-0.40771484375,0.435546875,0.53271484375,67.8048780487805,-128.53658536585368,28.04878048780488,100,0
381,-0.3837890625,0.4326171875,0.57666015625,65.0609756097561,-124.20731707317074,27.743902439024392,100,0
382,-0.3642578125,0.4296875,0.5966796875,63.29268292682927,-121.82926829268294,27.378048780487806,100,0
383,-0.36376953125,0.42529296875,0.60009765625,64.20731707317074,-120.3048780487805,25.731707317073173,100,0
384,-0.3671875,0.4423828125,0.60888671875,66.21951219512195,-119.69512195121952,24.695121951219516,100,0
385,-0.36572265625,0.46728515625,0.59716796875,72.7439024390244,-121.03658536585367,25.365853658536587,100,0
386,-0.32275390625,0.52587890625,0.5859375,71.28048780487805,-122.62195121951221,24.085365853658537,100,0
387,-0.36279296875,0.50146484375,0.5576171875,71.28048780487805,-109.45121951219514,24.451219512195124,100,0
388,-0.38232421875,0.513671875,0.5439453125,71.58536585365854,-125.42682926829269,24.390243902439025,100,0
389,-0.49853515625,0.5341796875,0.568359375,70.60975609756098,-125.97560975609757,25.48780487804878,100,0
390,-0.36181640625,0.54833984375,0.6142578125,66.64634146341464,-124.57317073170732,26.219512195121954,100,0
391,-0.34765625,0.560546875,0.650390625,60.1219512195122,-120.91463414634147,27.012195121951223,100,0
392,-0.3310546875,0.556640625,0.66796875,54.75609756097561,-116.70731707317074,27.195121951219516,100,0
393,-0.31591796875,0.54833984375,0.66845703125,54.69512195121952,-117.56097560975611,27.682926829268297,100,0
394,-0.32421875,0.5302734375,0.646484375,56.40243902439025,-117.98780487804879,25.792682926829272,100,0
395,-0.30712890625,0.5556640625,0.6103515625,59.93902439024391,-120.2439024390244,24.695121951219516,100,0
396,-0.29052734375,0.564453125,0.609375,63.59756097560976,-122.19512195121952,25.48780487804878,100,0
397,-0.26171875,0.61376953125,0.60498046875,64.87804878048782,-122.92682926829269,25.54878048780488,100,0
398,-0.25732421875,0.64697265625,0.59228515625,62.43902439024391,-121.95121951219514,26.03658536585366,100,0
399,-0.2255859375,0.67041015625,0.59619140625,59.87804878048781,-120.79268292682927,26.219512195121954,100,0
400,-0.2158203125,0.67138671875,0.62255859375,55.1829268292683,-117.92682926829269,25.365853658536587,100,0
401,-0.19873046875,0.67529296875,0.6396484375,52.50000000000001,-116.21951219512196,24.26829268292683,100,0
402,-0.18359375,0.6826171875,0.65576171875,54.39024390243903,-116.40243902439025,23.04878048780488,100,0
403,-0.181640625,0.6708984375,0.697265625,57.865853658536594,-116.34146341463416,22.621951219512198,100,0
404,-0.16259765625,0.6689453125,0.658203125,65.0609756097561,-118.47560975609757,22.743902439024392,100,0
405,-0.1796875,0.6884765625,0.67138671875,74.57317073170732,-121.82926829268294,23.170731707317074,100,0
406,-0.17626953125,0.7265625,0.666015625,83.65853658536587,-124.02439024390245,24.634146341463417,100,0
407,-0.1630859375,0.73779296875,0.66552734375,86.52439024390245,-121.70731707317074,25.000000000000004,100,0
408,-0.115234375,0.8095703125,0.70751953125,85.73170731707317,-116.76829268292684,23.414634146341466,100,0
409,-0.09423828125,0.86572265625,0.73583984375,81.95121951219512,-112.6219512195122,23.658536585365855,100,0
410,-0.07080078125,0.8818359375,0.740234375,76.03658536585367,-107.07317073170732,21.646341463414636,100,0
411,-0.04541015625,0.93505859375,0.72509765625,74.32926829268294,-104.57317073170732,19.81707317073171,100,0
412,-0.05517578125,0.75,0.7060546875,74.75609756097562,-102.01219512195122,17.195121951219512,100,0
413,-0.046875,0.75732421875,0.70849609375,77.8658536585366,-101.95121951219512,14.390243902439027,100,0
414,-0.00439453125,0.90673828125,0.68896484375,82.8048780487805,-102.31707317073172,13.231707317073171,100,0
415,0.0087890625,0.89306640625,0.72998046875,87.37804878048782,-100.67073170731709,12.560975609756099,100,0
416,0.00146484375,0.84814453125,0.70751953125,81.21951219512196,-92.6829268292683,10.853658536585368,100,0
417,0.03515625,0.92431640625,0.689453125,74.02439024390245,-86.95121951219512,5.2439024390243905,100,0
418,0.04931640625,0.9609375,0.68115234375,71.76829268292684,-83.10975609756099,4.024390243902439,100,0
419,0.037109375,0.99072265625,0.66796875,65.91463414634147,-79.45121951219512,1.2804878048780488,100,0
420,0.0400390625,0.984375,0.64111328125,61.707317073170735,-76.89024390243902,0.48780487804878053,100,0
421,0.017578125,0.947265625,0.6357421875,55.85365853658537,-73.53658536585367,-1.2195121951219514,100,0
422,-0.00830078125,0.8994140625,0.59033203125,52.07317073170732,-73.04878048780489,-1.402439024390244,100,0
423,-0.021484375,0.86767578125,0.580078125,53.90243902439025,-74.81707317073172,-1.4634146341463417,100,0
424,-0.02734375,0.8505859375,0.57373046875,56.03658536585366,-77.01219512195122,-0.5487804878048781,100,0
425,-0.04052734375,0.8271484375,0.5283203125,56.524390243902445,-79.93902439024392,-0.12195121951219513,100,0
426,-0.037109375,0.7841796875,0.4814453125,59.268292682926834,-81.76829268292684,-1.6463414634146343,100,0
427,-0.02978515625,0.77392578125,0.44775390625,58.35365853658537,-81.28048780487805,-3.658536585365854,100,0
428,-0.00830078125,0.7939453125,0.4638671875,58.10975609756098,-81.95121951219512,-2.6219512195121952,100,0
429,-0.1240234375,0.8154296875,0.48193359375,57.6219512195122,-82.7439024390244,-0.853658536585366,100,0
430,-0.0107421875,0.8310546875,0.49462890625,55.85365853658537,-82.6219512195122,1.402439024390244,100,0
431,-0.05908203125,0.79736328125,0.4697265625,55.91463414634147,-81.82926829268294,2.7439024390243905,100,0
432,-0.09814453125,0.7783203125,0.48583984375,53.59756097560976,-78.53658536585367,2.682926829268293,100,0
433,-0.07080078125,0.81640625,0.48193359375,51.03658536585366,-75.79268292682927,4.2682926829268295,100,0
434,-0.05322265625,0.82763671875,0.47314453125,46.89024390243903,-73.29268292682927,7.01219512195122,100,0
435,-0.05078125,0.81640625,0.4365234375,42.86585365853659,-71.28048780487805,8.353658536585366,100,0
436,-0.033203125,0.7841796875,0.39892578125,35.85365853658537,-67.01219512195122,7.8048780487804885,100,0
437,-0.1201171875,0.794921875,0.4013671875,26.402439024390247,-64.26829268292684,7.317073170731708,100,0
438,0.01220703125,0.8388671875,0.388671875,22.5609756097561,-65.0,8.353658536585366,100,0
439,0.00341796875,0.85498046875,0.40234375,21.219512195121954,-65.3048780487805,9.634146341463415,100,0
440,-0.00830078125,0.86376953125,0.3994140625,21.03658536585366,-66.89024390243902,10.365853658536587,100,0
441,-0.025390625,0.86376953125,0.388671875,21.097560975609756,-68.71951219512195,11.463414634146343,100,0
442,-0.0283203125,0.87890625,0.2529296875,21.951219512195124,-70.73170731707317,10.914634146341465,100,0
443,-0.01220703125,0.99462890625,0.34130859375,17.743902439024392,-69.20731707317074,9.329268292682928,100,0
444,0.0283203125,0.91015625,0.3447265625,10.914634146341465,-66.70731707317074,6.402439024390245,100,0
445,0.06201171875,0.9775390625,0.357421875,6.219512195121951,-66.52439024390245,5.2439024390243905,100,0
446,0.08056640625,0.99072265625,0.36962890625,2.8658536585365857,-66.76829268292684,3.9024390243902443,100,0
447,0.07861328125,0.9775390625,0.390625,15.426829268292684,-66.52439024390245,2.8658536585365857,100,0
448,0.05712890625,0.94677734375,0.41357421875,-3.048780487804878,-65.2439024390244,0.30487804878048785,100,0
449,0.0576171875,0.9619140625,0.419921875,-2.987804878048781,-64.69512195121952,-1.8902439024390245,100,0
450,0.0458984375,0.94873046875,0.4482421875,-0.7317073170731708,-64.9390243902439,-3.231707317073171,100,0
451,0.01953125,0.9326171875,0.431640625,-0.6707317073170732,-62.987804878048784,-4.390243902439025,100,0
452,0.00732421875,0.93505859375,0.43115234375,-4.695121951219512,-57.804878048780495,-6.890243902439025,100,0
453,0.0185546875,0.96826171875,0.41943359375,-9.329268292682928,-53.78048780487806,-8.109756097560977,100,0
454,0.02001953125,0.9365234375,0.4130859375,-10.670731707317074,-51.524390243902445,-8.658536585365855,100,0
455,0.021484375,0.95361328125,0.408203125,-12.439024390243903,-48.47560975609756,-9.085365853658537,100,0
456,0.0087890625,0.9306640625,0.416015625,-0.06097560975609757,-46.21951219512196,-8.231707317073171,100,0
457,-0.00390625,0.89013671875,0.40380859375,-16.219512195121954,-31.34146341463415,-7.682926829268293,100,0
458,-0.0185546875,0.83740234375,0.25,-16.82926829268293,-47.5609756097561,-8.109756097560977,100,0
459,-0.0341796875,0.802734375,0.37646484375,-17.926829268292686,-46.768292682926834,-10.426829268292684,100,0
460,-0.001953125,0.810546875,0.3515625,-21.646341463414636,-45.487804878048784,-12.500000000000002,100,0
461,0.044921875,0.84130859375,0.34033203125,-24.146341463414636,-45.0609756097561,-13.902439024390246,100,0
462,0.06103515625,0.83642578125,0.31884765625,-25.792682926829272,-45.73170731707317,-16.03658536585366,100,0
463,0.06201171875,0.83447265625,0.31591796875,-26.89024390243903,-46.21951219512196,-17.5609756097561,100,0
464,0.07666015625,0.83203125,0.3291015625,-27.378048780487806,-47.5609756097561,-18.04878048780488,100,0
465,0.076171875,0.8291015625,0.3271484375,-28.231707317073173,-48.35365853658537,-17.804878048780488,100,0
466,0.072265625,0.830078125,0.3134765625,-27.500000000000004,-48.47560975609756,-17.5609756097561,100,0
467,0.0810546875,0.81591796875,0.31591796875,-26.28048780487805,-49.63414634146342,-16.585365853658537,100,0
468,0.0712890625,0.7978515625,0.27392578125,-24.207317073170735,-51.951219512195124,-15.914634146341465,100,0
469,0.0751953125,0.7626953125,0.26318359375,-21.52439024390244,-53.963414634146346,-16.52439024390244,100,0
470,0.07080078125,0.78466796875,0.25537109375,-18.04878048780488,-56.34146341463415,-17.195121951219512,100,0
471,0.0869140625,0.7880859375,0.26123046875,-14.329268292682928,-60.060975609756106,-17.926829268292686,100,0
472,0.0927734375,0.78759765625,0.2451171875,-10.365853658536587,-64.08536585365854,-18.53658536585366,100,0
473,0.0654296875,0.74169921875,0.22412109375,-10.060975609756099,-64.69512195121952,-20.30487804878049,100,0
474,0.07080078125,0.740234375,0.205078125,-12.865853658536587,-63.65853658536586,-22.743902439024392,100,0
475,0.10546875,0.76904296875,0.220703125,-15.426829268292684,-62.13414634146342,-25.121951219512198,100,0
476,0.14404296875,0.79296875,0.22265625,-14.51219512195122,-63.23170731707317,-26.34146341463415,100,0
477,0.1396484375,0.7744140625,0.232421875,-12.865853658536587,-64.45121951219512,-26.82926829268293,100,0
478,0.1162109375,0.75830078125,0.25439453125,-9.878048780487806,-64.87804878048782,-27.621951219512198,100,0
479,0.11376953125,0.751953125,0.248046875,-6.52439024390244,-65.3658536585366,-27.439024390243905,100,0
480,0.10400390625,0.87060546875,0.25341796875,-3.8414634146341466,-65.0609756097561,-27.25609756097561,100,0
481,0.08642578125,0.72705078125,0.25390625,-3.048780487804878,-63.29268292682927,-26.58536585365854,100,0
482,0.064453125,0.72705078125,0.2587890625,-3.353658536585366,-61.524390243902445,-25.243902439024392,100,0
483,0.05322265625,0.7099609375,0.26953125,-3.353658536585366,-59.93902439024391,-23.78048780487805,100,0
484,0.048828125,0.6953125,0.2919921875,-3.048780487804878,-57.6219512195122,-21.646341463414636,100,0
485,0.04443359375,0.7109375,0.30810546875,-1.6463414634146343,-55.91463414634147,-19.085365853658537,100,0
486,0.05859375,0.72119140625,0.3154296875,1.402439024390244,-56.40243902439025,-16.097560975609756,100,0
487,0.05810546875,0.69873046875,0.3046875,6.036585365853659,-57.6829268292683,-12.987804878048781,100,0
488,0.05029296875,0.67529296875,0.2998046875,10.24390243902439,-60.365853658536594,-9.26829268292683,100,0
489,0.033203125,0.6357421875,0.27294921875,15.121951219512196,-62.07317073170732,-5.3048780487804885,100,0
490,0.01171875,0.59765625,0.27294921875,19.878048780487806,-63.65853658536586,-0.9756097560975611,100,0
491,0.01171875,0.59619140625,0.28955078125,24.02439024390244,-64.63414634146342,3.048780487804878,100,0
492,0.0244140625,0.58349609375,0.27880859375,21.158536585365855,-63.04878048780488,6.219512195121951,100,0
493,0.033203125,0.5810546875,0.25244140625,12.500000000000002,-56.89024390243903,10.182926829268293,100,0
494,0.041015625,0.5888671875,0.23095703125,0.6097560975609757,-49.87804878048781,15.060975609756099,100,0
495,0.05859375,0.576171875,0.23681640625,-6.097560975609756,-46.646341463414636,19.32926829268293,100,0
496,0.087890625,0.5859375,0.2177734375,-6.7682926829268295,-46.34146341463415,23.10975609756098,100,0
497,0.08740234375,0.58447265625,0.2138671875,-7.865853658536586,-46.524390243902445,26.158536585365855,100,0
498,0.10498046875,0.5654296875,0.2080078125,-8.475609756097562,-44.63414634146342,28.780487804878053,100,0
499,0.16748046875,0.60888671875,0.24072265625,-10.731707317073171,-42.804878048780495,29.573170731707318,100,0
