,Ax,Ay,Az,Gx,Gy,Gz,distance,shot_type
0,0.5830078125,-0.55224609375,-0.3720703125,3.7195121951219514,1.0975609756097562,7.743902439024391,120,2
1,0.60546875,-0.51904296875,-0.41162109375,6.219512195121951,-1.8902439024390245,7.134146341463415,120,2
2,0.6611328125,-0.484375,-0.412109375,6.951219512195123,-3.9024390243902443,5.914634146341464,120,2
3,0.68798828125,-0.474609375,-0.4013671875,6.52439024390244,-2.804878048780488,5.060975609756098,120,2
4,0.68798828125,-0.46142578125,-0.3916015625,3.414634146341464,-1.2195121951219514,4.085365853658537,120,2
5,0.69921875,-0.44775390625,-0.38623046875,0.3658536585365854,0.48780487804878053,3.658536585365854,120,2
6,0.68701171875,-0.45361328125,-0.33935546875,-0.7926829268292683,2.0121951219512195,3.780487804878049,120,2
7,0.68701171875,-0.46875,-0.26953125,-2.3170731707317076,3.414634146341464,2.804878048780488,120,2
8,0.6962890625,-0.43359375,-0.2353515625,-2.8658536585365857,5.182926829268293,1.4634146341463417,120,2
9,0.7080078125,-0.4091796875,-0.20947265625,-2.073170731707317,5.3048780487804885,0.853658536585366,120,2
10,0.68603515625,-0.4248046875,-0.208984375,-0.7926829268292683,5.182926829268293,0.7926829268292683,120,2
11,0.68115234375,-0.416015625,-0.20947265625,0.6707317073170732,4.573170731707317,0.12195121951219513,120,2
12,0.70654296875,-0.39013671875,-0.22021484375,1.707317073170732,3.9024390243902443,-0.6707317073170732,120,2
13,0.73828125,-0.37841796875,-0.23681640625,2.1341463414634148,3.780487804878049,-0.853658536585366,120,2
14,0.7236328125,-0.4033203125,-0.25830078125,2.25609756097561,3.1097560975609757,-1.0365853658536586,120,2
15,0.716796875,-0.4306640625,-0.27783203125,4.51219512195122,1.3414634146341464,-1.402439024390244,120,2
16,0.70849609375,-0.45751953125,-0.27490234375,8.658536585365855,-0.426829268292683,-2.987804878048781,120,2
17,0.74755859375,-0.41650390625,-0.267578125,10.365853658536587,-0.3658536585365854,-4.817073170731708,120,2
18,0.75390625,-0.38330078125,-0.37109375,8.902439024390244,1.524390243902439,-6.2804878048780495,120,2
19,0.7548828125,-0.37158203125,-0.2275390625,7.926829268292684,3.4756097560975614,-7.621951219512196,120,2
20,0.73291015625,-0.376953125,-0.21826171875,7.25609756097561,3.9024390243902443,-8.841463414634147,120,2
21,0.73046875,-0.36767578125,-0.203125,7.987804878048781,4.207317073170732,-9.207317073170733,120,2
22,0.705078125,-0.39453125,-0.20166015625,8.841463414634147,4.51219512195122,-9.390243902439025,120,2
23,0.7119140625,-0.42919921875,-0.2294921875,8.231707317073171,5.0,-9.26829268292683,120,2
24,0.69921875,-0.46240234375,-0.263671875,7.439024390243903,5.2439024390243905,-8.536585365853659,120,2
25,0.69921875,-0.48974609375,-0.28076171875,6.036585365853659,5.060975609756098,-7.987804878048781,120,2
26,0.70751953125,-0.533203125,-0.28125,4.634146341463415,5.670731707317073,-7.621951219512196,120,2
27,0.7099609375,-0.5595703125,-0.30224609375,2.6219512195121952,6.097560975609756,-6.951219512195123,120,2
28,0.69677734375,-0.576171875,-0.27294921875,2.0121951219512195,5.609756097560976,-5.853658536585367,120,2
29,0.66796875,-0.6142578125,-0.26806640625,3.1707317073170733,4.390243902439025,-5.2439024390243905,120,2
30,0.658203125,-0.63671875,-0.279296875,6.463414634146342,2.439024390243903,-4.573170731707317,120,2
31,0.6357421875,-0.65087890625,-0.28662109375,10.365853658536587,15.426829268292684,-3.2926829268292686,120,2
32,0.6240234375,-0.6337890625,-0.3310546875,12.926829268292684,-2.5609756097560976,-1.8902439024390245,120,2
33,0.6279296875,-0.60400390625,-0.341796875,13.04878048780488,-2.3170731707317076,-0.24390243902439027,120,2
34,0.619140625,-0.59619140625,-0.35205078125,9.51219512195122,-15.54878048780488,1.5853658536585367,120,2
35,0.61328125,-0.58203125,-0.34619140625,5.853658536585367,2.7439024390243905,3.8414634146341466,120,2
36,0.603515625,-0.5859375,-0.3154296875,2.1341463414634148,5.365853658536586,5.853658536585367,120,2
37,0.60009765625,-0.58740234375,-0.32666015625,-0.9146341463414634,7.378048780487806,7.8048780487804885,120,2
38,0.60302734375,-0.58154296875,-0.3251953125,-2.1341463414634148,7.317073170731708,9.146341463414634,120,2
39,0.6220703125,-0.59423828125,-0.34716796875,-2.5609756097560976,6.829268292682928,10.426829268292684,120,2
40,0.61767578125,-0.50244140625,-0.35009765625,-3.231707317073171,6.219512195121951,10.975609756097562,120,2
41,0.6171875,-0.6298828125,-0.361328125,-2.3170731707317076,5.548780487804878,12.01219512195122,120,2
42,0.61474609375,-0.6318359375,-0.36181640625,-1.2195121951219514,4.329268292682928,12.80487804878049,120,2
43,0.6162109375,-0.62646484375,-0.35986328125,-0.30487804878048785,3.414634146341464,13.78048780487805,120,2
44,0.60888671875,-0.62353515625,-0.33935546875,0.24390243902439027,2.682926829268293,14.329268292682928,120,2
45,0.60595703125,-0.59912109375,-0.34130859375,2.0121951219512195,1.402439024390244,14.634146341463415,120,2
46,0.6044921875,-0.57470703125,-0.3056640625,3.780487804878049,0.5487804878048781,15.121951219512196,120,2
47,0.6083984375,-0.544921875,-0.28759765625,5.487804878048781,-0.30487804878048785,15.731707317073171,120,2
48,0.61376953125,-0.52099609375,-0.28271484375,6.585365853658537,0.12195121951219513,16.463414634146343,120,2
49,0.63232421875,-0.48388671875,-0.27978515625,7.560975609756098,0.1829268292682927,17.439024390243905,120,2
50,0.65673828125,-0.4599609375,-0.271484375,8.231707317073171,1.3414634146341464,18.04878048780488,120,2
51,0.666015625,-0.42041015625,-0.27685546875,8.963414634146343,2.439024390243903,17.5,120,2
52,0.7001953125,-0.380859375,-0.27490234375,9.51219512195122,3.1707317073170733,16.28048780487805,120,2
53,0.71728515625,-0.34521484375,-0.25830078125,8.719512195121952,4.939024390243903,14.390243902439027,120,2
54,0.74462890625,-0.31201171875,-0.26025390625,6.707317073170732,5.914634146341464,11.646341463414634,120,2
55,0.75537109375,-0.2998046875,-0.24267578125,5.548780487804878,6.890243902439025,8.719512195121952,120,2
56,0.77734375,-0.296875,-0.224609375,6.52439024390244,5.609756097560976,5.426829268292684,120,2
57,0.77294921875,-0.32373046875,-0.19384765625,9.878048780487806,4.329268292682928,2.5,120,2
58,0.779296875,-0.34375,-0.18359375,12.682926829268293,2.378048780487805,-1.0975609756097562,120,2
59,0.80322265625,-0.341796875,-0.220703125,14.085365853658537,1.2195121951219514,-4.146341463414634,120,2
60,0.80712890625,-0.35302734375,-0.23095703125,14.329268292682928,1.0365853658536586,-6.036585365853659,120,2
61,0.77685546875,-0.4072265625,-0.21728515625,12.378048780487806,2.0121951219512195,-7.01219512195122,120,2
62,0.7314453125,-0.4599609375,-0.1953125,10.914634146341465,2.5,-8.475609756097562,120,2
63,0.72021484375,-0.45751953125,-0.16943359375,12.865853658536587,2.1341463414634148,-10.121951219512196,120,2
64,0.7177734375,-0.44140625,-0.16455078125,0.12195121951219513,0.6707317073170732,-11.402439024390246,120,2
65,0.7275390625,-0.427734375,-0.1826171875,17.621951219512198,0.7926829268292683,-12.073170731707318,120,2
66,0.74462890625,-0.41455078125,-0.2080078125,16.402439024390244,3.2926829268292686,-12.80487804878049,120,2
67,0.75048828125,-0.4072265625,-0.232421875,11.28048780487805,6.585365853658537,-12.926829268292684,120,2
68,0.76220703125,-0.4228515625,-0.25048828125,6.52439024390244,9.451219512195122,-12.80487804878049,120,2
69,0.7666015625,-0.44970703125,-0.25439453125,2.8658536585365857,10.975609756097562,-12.682926829268293,120,2
70,0.7470703125,-0.5029296875,-0.2509765625,2.5609756097560976,11.036585365853659,-11.463414634146343,120,2
71,0.69775390625,-0.56103515625,-0.2490234375,3.8414634146341466,10.365853658536587,-9.939024390243903,120,2
72,0.66357421875,-0.60791015625,-0.24853515625,5.0,10.426829268292684,-7.926829268292684,120,2
73,0.65185546875,-0.630859375,-0.2626953125,4.75609756097561,11.097560975609756,-5.365853658536586,120,2
74,0.6416015625,-0.64111328125,-0.28857421875,3.9024390243902443,12.621951219512196,-2.7439024390243905,120,2
75,0.63330078125,-0.65185546875,-0.296875,1.1585365853658538,15.121951219512196,-0.1829268292682927,120,2
76,0.6083984375,-0.6796875,-0.283203125,-0.9146341463414634,17.31707317073171,2.1341463414634148,120,2
77,0.595703125,-0.70166015625,-0.2802734375,-1.8902439024390245,18.658536585365855,3.963414634146342,120,2
78,0.59765625,-0.708984375,-0.27587890625,-2.439024390243903,19.75609756097561,5.731707317073171,120,2
79,0.580078125,-0.72265625,-0.24462890625,-2.5,20.30487804878049,7.500000000000001,120,2
80,0.5595703125,-0.7275390625,-0.21923828125,-1.2195121951219514,20.853658536585368,7.987804878048781,120,2
81,0.57080078125,-0.68896484375,-0.20361328125,-0.9146341463414634,20.975609756097562,7.560975609756098,120,2
82,0.6142578125,-0.6181640625,-0.20263671875,0.6097560975609757,20.731707317073173,7.439024390243903,120,2
83,0.62109375,-0.619140625,-0.1845703125,0.3658536585365854,21.52439024390244,8.292682926829269,120,2
84,0.61767578125,-0.61865234375,-0.18896484375,-0.5487804878048781,22.073170731707318,9.634146341463415,120,2
85,0.6201171875,-0.63330078125,-0.1787109375,0.1829268292682927,21.82926829268293,10.426829268292684,120,2
86,0.63037109375,-0.74853515625,-0.16650390625,2.8658536585365857,21.219512195121954,11.402439024390246,120,2
87,0.63818359375,-0.623046875,-0.18017578125,4.329268292682928,20.853658536585368,12.682926829268293,120,2
88,0.6337890625,-0.58740234375,-0.1591796875,5.731707317073171,22.31707317073171,12.439024390243903,120,2
89,0.6494140625,-0.55908203125,-0.13671875,7.500000000000001,23.10975609756098,11.890243902439025,120,2
90,0.65771484375,-0.54345703125,-0.12451171875,10.365853658536587,23.04878048780488,11.585365853658537,120,2
91,0.64697265625,-0.53955078125,-0.10009765625,13.597560975609758,24.26829268292683,10.365853658536587,120,2
92,0.68701171875,-0.49853515625,-0.07861328125,15.000000000000002,26.89024390243903,9.085365853658537,120,2
93,0.7080078125,-0.47216796875,-0.0654296875,12.74390243902439,30.000000000000004,8.719512195121952,120,2
94,0.71142578125,-0.45068359375,-0.0732421875,10.853658536585368,33.963414634146346,8.536585365853659,120,2
95,0.7021484375,-0.46533203125,-0.04638671875,8.353658536585366,37.80487804878049,8.536585365853659,120,2
96,0.720703125,-0.48046875,-0.04345703125,8.78048780487805,39.57317073170732,8.475609756097562,120,2
97,0.724609375,-0.4892578125,-0.02783203125,10.365853658536587,42.07317073170732,8.597560975609756,120,2
98,0.72265625,-0.5263671875,-0.0029296875,11.097560975609756,43.65853658536586,9.451219512195122,120,2
99,0.701171875,-0.55224609375,0.00146484375,10.670731707317074,46.03658536585366,10.060975609756099,120,2
100,0.71435546875,-0.5322265625,-0.02197265625,11.463414634146343,46.15853658536586,10.0,120,2
101,0.74169921875,-0.49560546875,-0.03076171875,13.353658536585368,46.951219512195124,11.402439024390246,120,2
102,0.732421875,-0.5126953125,-0.01611328125,12.865853658536587,49.63414634146342,12.073170731707318,120,2
103,0.708984375,-0.5361328125,-0.0361328125,6.951219512195123,51.15853658536586,10.975609756097562,120,2
104,0.74169921875,-0.4697265625,-0.07568359375,3.780487804878049,53.23170731707317,9.451219512195122,120,2
105,0.77880859375,-0.40234375,-0.14111328125,-2.1341463414634148,55.243902439024396,7.8048780487804885,120,2
106,0.79052734375,-0.400390625,-0.16552734375,-10.121951219512196,61.463414634146346,7.682926829268293,120,2
107,0.76904296875,-0.412109375,-0.14697265625,-19.573170731707318,69.45121951219512,7.01219512195122,120,2
108,0.751953125,-0.45361328125,-0.1435546875,-31.219512195121954,77.8048780487805,6.7682926829268295,120,2
109,0.73876953125,-0.4423828125,-0.14013671875,-41.524390243902445,86.28048780487805,7.987804878048781,120,2
110,0.72119140625,-0.458984375,-0.0126953125,-31.280487804878053,93.23170731707317,9.02439024390244,120,2
111,0.708984375,-0.4609375,-0.24658203125,-48.53658536585366,108.90243902439025,11.585365853658537,120,2
112,0.68896484375,-0.4697265625,-0.15771484375,-46.34146341463415,90.3658536585366,12.256097560975611,120,2
113,0.69873046875,-0.447265625,-0.26513671875,-41.951219512195124,83.29268292682927,11.341463414634147,120,2
114,0.7373046875,-0.37548828125,-0.34912109375,-42.86585365853659,81.82926829268294,10.060975609756099,120,2
115,0.77490234375,-0.314453125,-0.49365234375,-49.146341463414636,81.76829268292684,7.926829268292684,120,2
116,0.798828125,-0.2861328125,-0.34619140625,-57.19512195121952,85.3658536585366,5.0,120,2
117,0.802734375,-0.28125,-0.3173828125,-67.98780487804879,88.84146341463415,0.9756097560975611,120,2
118,0.77099609375,-0.31298828125,-0.31298828125,-62.804878048780495,88.17073170731707,-2.378048780487805,120,2
119,0.7265625,-0.3505859375,-0.28466796875,-81.46341463414635,84.57317073170732,-4.51219512195122,120,2
120,0.69189453125,-0.39306640625,-0.37353515625,-76.09756097560977,77.37804878048782,-6.585365853658537,120,2
121,0.6572265625,-0.45751953125,-0.2421875,-66.28048780487805,67.8048780487805,-7.317073170731708,120,2
122,0.64306640625,-0.47705078125,-0.28759765625,-54.32926829268293,56.40243902439025,-8.841463414634147,120,2
123,0.673828125,-0.380859375,-0.31884765625,-62.43902439024391,48.04878048780488,-11.76829268292683,120,2
124,0.68115234375,-0.357421875,-0.3330078125,-44.451219512195124,42.987804878048784,-12.439024390243903,120,2
125,0.6591796875,-0.34326171875,-0.31982421875,-43.10975609756098,38.59756097560976,-16.097560975609756,120,2
126,0.728515625,-0.25146484375,-0.2548828125,-44.81707317073171,34.87804878048781,-18.597560975609756,120,2
127,0.73388671875,-0.21533203125,-0.39208984375,-49.268292682926834,32.926829268292686,-19.634146341463417,120,2
128,0.7177734375,-0.12548828125,-0.4189453125,-53.29268292682927,32.43902439024391,-20.731707317073173,120,2
129,0.724609375,-0.24267578125,-0.41943359375,-56.463414634146346,46.707317073170735,-21.463414634146343,120,2
130,0.75439453125,-0.20458984375,-0.43115234375,-60.60975609756098,30.975609756097565,-23.475609756097562,120,2
131,0.75341796875,-0.18115234375,-0.439453125,-66.58536585365854,30.54878048780488,-25.000000000000004,120,2
132,0.7587890625,-0.18115234375,-0.43603515625,-73.23170731707317,31.82926829268293,-26.09756097560976,120,2
133,0.732421875,-0.23486328125,-0.439453125,-78.53658536585367,31.463414634146343,-27.80487804878049,120,2
134,0.7421875,-0.22119140625,-0.45947265625,-81.64634146341464,31.707317073170735,-30.365853658536587,120,2
135,0.87255859375,-0.21875,-0.45654296875,-84.69512195121952,30.853658536585368,-32.5609756097561,120,2
136,0.63037109375,-0.19384765625,-0.44775390625,-89.02439024390245,29.02439024390244,-34.390243902439025,120,2
137,0.77294921875,-0.1630859375,-0.4326171875,-94.93902439024392,28.902439024390247,-37.31707317073171,120,2
138,0.77490234375,-0.14697265625,-0.41845703125,-102.07317073170732,28.475609756097562,-39.87804878048781,120,2
139,0.78173828125,-0.1376953125,-0.427734375,-93.71951219512196,29.573170731707318,-43.35365853658537,120,2
140,0.7939453125,-0.13427734375,-0.40478515625,-117.07317073170732,30.731707317073173,-45.73170731707317,120,2
141,0.79150390625,-0.162109375,-0.40185546875,-122.8048780487805,30.792682926829272,-47.6829268292683,120,2
142,0.78857421875,-0.177734375,-0.4150390625,-128.35365853658539,31.52439024390244,-50.91463414634147,120,2
143,0.79638671875,-0.15283203125,-0.39794921875,-134.20731707317074,31.707317073170735,-53.90243902439025,120,2
144,0.81884765625,-0.12890625,-0.38134765625,-139.9390243902439,32.07317073170732,-57.13414634146342,120,2
145,0.82861328125,-0.1611328125,-0.4091796875,-143.109756097561,31.76829268292683,-59.63414634146342,120,2
146,0.82177734375,-0.16455078125,-0.41845703125,-144.14634146341464,30.000000000000004,-47.13414634146342,120,2
147,0.85400390625,-0.111328125,-0.4345703125,-145.6707317073171,28.353658536585368,-65.79268292682927,120,2
148,0.900390625,-0.07958984375,-0.45751953125,-149.26829268292684,28.292682926829272,-69.26829268292684,120,2
149,0.92333984375,-0.07177734375,-0.48095703125,-157.9878048780488,31.82926829268293,-72.31707317073172,120,2
150,0.9287109375,-0.0634765625,-0.49267578125,-168.2926829268293,35.243902439024396,-76.03658536585367,120,2
151,0.9736328125,-0.03369140625,-0.47802734375,-177.31707317073173,39.146341463414636,-81.70731707317074,120,2
152,1.00390625,-0.04345703125,-0.4814453125,-186.82926829268294,42.31707317073171,-86.70731707317074,120,2
153,1.02734375,-0.06396484375,-0.478515625,-191.34146341463418,44.268292682926834,-91.76829268292684,120,2
154,1.05908203125,-0.07080078125,-0.45068359375,-193.78048780487808,44.390243902439025,-95.60975609756099,120,2
155,1.0673828125,-0.08056640625,-0.44677734375,-196.03658536585368,45.0609756097561,-99.45121951219512,120,2
156,1.0634765625,-0.0693359375,-0.4013671875,-198.71951219512198,46.40243902439025,-102.6829268292683,120,2
157,1.05517578125,-0.080078125,-0.3662109375,-198.84146341463418,45.79268292682927,-105.73170731707317,120,2
158,1.05322265625,-0.09716796875,-0.3671875,-197.8048780487805,45.487804878048784,-110.54878048780489,120,2
159,1.04150390625,-0.10986328125,-0.33154296875,-194.75609756097563,44.81707317073171,-114.26829268292684,120,2
160,1.08056640625,-0.11474609375,-0.33251953125,-202.43902439024393,41.82926829268293,-117.98780487804879,120,2
161,1.14306640625,-0.083984375,-0.34033203125,-180.3048780487805,39.024390243902445,-121.89024390243904,120,2
162,1.19091796875,-0.03369140625,-0.3974609375,-176.46341463414635,37.43902439024391,-126.03658536585367,120,2
163,1.24462890625,0.02001953125,-0.41357421875,-177.9268292682927,38.170731707317074,-131.76829268292684,120,2
164,1.287109375,0.0302734375,-0.4462890625,-180.97560975609758,40.79268292682927,-137.8658536585366,120,2
165,1.30810546875,0.04345703125,-0.40625,-181.64634146341464,42.07317073170732,-143.47560975609758,120,2
166,1.32861328125,0.0654296875,-0.41943359375,-182.50000000000003,43.963414634146346,-147.8658536585366,120,2
167,1.3330078125,0.060546875,-0.4111328125,-183.71951219512198,45.73170731707317,-150.2439024390244,120,2
168,1.3408203125,0.04638671875,-0.42138671875,-183.41463414634148,46.768292682926834,-153.96341463414635,120,2
169,1.365234375,0.0703125,-0.41162109375,-181.76829268292684,47.804878048780495,-159.32926829268294,120,2
170,1.3955078125,0.09375,-0.41943359375,-178.78048780487808,47.743902439024396,-163.35365853658539,120,2
171,1.4453125,0.08544921875,-0.46826171875,-177.5609756097561,48.65853658536586,-167.9268292682927,120,2
172,1.46435546875,0.0888671875,-0.4775390625,-177.37804878048783,49.32926829268293,-172.07317073170734,120,2
173,1.4560546875,0.0634765625,-0.48828125,-176.58536585365854,49.39024390243903,-175.00000000000003,120,2
174,1.47802734375,0.10107421875,-0.4501953125,-175.7926829268293,49.51219512195122,-179.63414634146343,120,2
175,1.50927734375,0.1484375,-0.4716796875,-175.4268292682927,49.207317073170735,-184.02439024390245,120,2
176,1.37744140625,0.16162109375,-0.474609375,-175.4268292682927,50.91463414634147,-188.47560975609758,120,2
177,1.54736328125,0.1708984375,-0.4677734375,-176.70731707317074,52.37804878048781,-192.56097560975613,120,2
178,1.5458984375,0.15478515625,-0.4443359375,-177.37804878048783,54.39024390243903,-196.70731707317074,120,2
179,1.55419921875,0.150390625,-0.40234375,-175.2439024390244,55.00000000000001,-199.39024390243904,120,2
180,1.5400390625,0.0009765625,-0.384765625,-170.3048780487805,53.53658536585366,-203.2317073170732,120,2
181,1.55322265625,0.15771484375,-0.3525390625,-164.08536585365854,52.5609756097561,-205.85365853658539,120,2
182,1.59521484375,0.18115234375,-0.3369140625,-160.1219512195122,52.987804878048784,-209.39024390243904,120,2
183,1.60009765625,0.17724609375,-0.33349609375,-159.87804878048783,54.085365853658544,-213.0487804878049,120,2
184,1.60107421875,0.1875,-0.2763671875,-160.1219512195122,56.951219512195124,-216.64634146341464,120,2
185,1.625,0.18701171875,-0.20458984375,-171.52439024390245,57.560975609756106,-220.2439024390244,120,2
186,1.65283203125,0.236328125,-0.1416015625,-150.4268292682927,57.19512195121952,-223.2317073170732,120,2
187,1.67041015625,0.26708984375,-0.15234375,-144.26829268292684,55.73170731707317,-226.64634146341464,120,2
188,1.68505859375,0.29150390625,-0.14013671875,-139.26829268292684,54.81707317073171,-230.3658536585366,120,2
189,1.70361328125,0.32470703125,-0.1064453125,-135.609756097561,57.07317073170732,-236.15853658536588,120,2
190,1.75927734375,0.37841796875,-0.12109375,-134.81707317073173,58.10975609756098,-241.21951219512198,120,2
191,1.7412109375,0.369140625,-0.15380859375,-137.19512195121953,61.28048780487806,-247.56097560975613,120,2
192,1.7099609375,0.341796875,-0.1044921875,-136.70731707317074,63.71951219512196,-252.01219512195124,120,2
193,1.6630859375,0.318359375,-0.0693359375,-133.109756097561,64.69512195121952,-255.12195121951223,120,2
194,1.6142578125,0.2939453125,-0.064453125,-129.63414634146343,65.97560975609757,-256.5853658536586,120,2
195,1.5458984375,0.228515625,-0.1220703125,-123.10975609756099,63.90243902439025,-255.85365853658539,120,2
196,1.478515625,0.20556640625,-0.11962890625,-113.53658536585367,63.17073170731708,-254.63414634146343,120,2
197,1.443359375,0.18115234375,-0.09375,-105.60975609756099,62.01219512195122,-253.0487804878049,120,2
198,1.38720703125,0.16748046875,-0.12158203125,-99.69512195121952,61.21951219512196,-253.2317073170732,120,2
199,1.33154296875,0.18896484375,-0.107421875,-97.31707317073172,62.926829268292686,-255.4878048780488,120,2
200,1.2841796875,0.2607421875,-0.080078125,-97.13414634146342,66.09756097560977,-256.219512195122,120,2
201,1.36572265625,0.228515625,0.00439453125,-97.98780487804879,68.29268292682927,-257.5,120,2
202,1.21630859375,0.20849609375,-0.01513671875,-98.90243902439025,69.87804878048782,-257.01219512195127,120,2
203,1.11376953125,0.14306640625,-0.12353515625,-98.29268292682927,71.03658536585367,-256.6463414634147,120,2
204,1.013671875,0.044921875,0.0849609375,-91.40243902439025,71.58536585365854,-255.609756097561,120,2
205,0.93701171875,-0.00830078125,0.1357421875,-84.87804878048782,70.3048780487805,-254.14634146341464,120,2
206,0.8974609375,-0.041015625,0.138671875,-78.53658536585367,69.81707317073172,-251.70731707317074,120,2
207,0.84619140625,-0.07421875,0.16162109375,-74.14634146341464,68.71951219512195,-247.68292682926833,120,2
208,0.75732421875,-0.17236328125,0.14892578125,-71.76829268292684,67.43902439024392,-242.8658536585366,120,2
209,0.6728515625,-0.26318359375,0.14501953125,-65.91463414634147,66.76829268292684,-239.08536585365854,120,2
210,0.63623046875,-0.26611328125,0.2470703125,-57.50000000000001,62.50000000000001,-232.01219512195124,120,2
211,0.552734375,-0.35498046875,0.29833984375,-50.0609756097561,59.146341463414636,-223.35365853658539,120,2
212,0.45849609375,-0.38916015625,0.30859375,-45.79268292682927,58.65853658536586,-216.46341463414635,120,2
213,0.46044921875,-0.36865234375,0.3349609375,-41.21951219512196,55.426829268292686,-206.40243902439028,120,2
214,0.36181640625,-0.431640625,0.28125,-38.35365853658537,52.5609756097561,-197.9878048780488,120,2
215,0.3271484375,-0.40625,0.33642578125,-31.951219512195124,49.024390243902445,-189.39024390243904,120,2
216,0.25341796875,-0.4638671875,0.34423828125,-27.987804878048784,45.304878048780495,-178.84146341463415,120,2
217,0.16796875,-0.50439453125,0.330078125,-24.146341463414636,41.951219512195124,-171.28048780487805,120,2
218,0.09765625,-0.53466796875,0.3095703125,-20.243902439024392,40.0,-164.75609756097563,120,2
219,0.07568359375,-0.552734375,0.32568359375,-14.939024390243905,36.707317073170735,-171.34146341463415,120,2
220,0.060546875,-0.646484375,0.3330078125,-10.30487804878049,34.451219512195124,-145.85365853658539,120,2
221,-0.072265625,-0.763671875,0.2646484375,-5.365853658536586,32.31707317073171,-131.34146341463415,120,2
222,-0.20458984375,-0.94189453125,0.298828125,2.9268292682926833,30.243902439024392,-115.60975609756099,120,2
223,-0.30712890625,-1.04541015625,0.29833984375,8.109756097560977,29.32926829268293,-96.82926829268294,120,2
224,-0.41552734375,-1.17529296875,0.3232421875,14.51219512195122,29.39024390243903,-93.23170731707317,120,2
225,-0.4580078125,-1.29443359375,0.3408203125,18.78048780487805,28.780487804878053,-56.524390243902445,120,2
226,-0.5439453125,-1.4287109375,0.35888671875,23.170731707317074,29.146341463414636,-36.707317073170735,120,2
227,-0.57421875,-1.5498046875,0.396484375,28.780487804878053,28.53658536585366,-16.219512195121954,120,2
228,-0.62451171875,-1.66015625,0.37548828125,35.30487804878049,28.475609756097562,1.6463414634146343,120,2
229,-0.6025390625,-1.6298828125,0.3720703125,42.07317073170732,29.32926829268293,18.84146341463415,120,2
230,-0.6259765625,-1.84130859375,0.34619140625,50.243902439024396,24.32926829268293,38.170731707317074,120,2
231,-0.63916015625,-1.96875,0.33447265625,60.1829268292683,19.634146341463417,59.63414634146342,120,2
232,-0.6064453125,-2.08984375,0.2900390625,70.0,15.000000000000002,84.69512195121952,120,2
233,-0.6025390625,-2.22802734375,0.24853515625,80.73170731707317,11.28048780487805,112.25609756097562,120,2
234,-0.54736328125,-2.30078125,0.29638671875,89.51219512195122,8.719512195121952,125.00000000000001,120,2
235,-0.39697265625,-2.3466796875,0.3359375,96.34146341463415,8.597560975609756,170.3048780487805,120,2
236,-0.2275390625,-2.46484375,0.322265625,100.97560975609757,8.597560975609756,202.31707317073173,120,2
237,-0.033203125,-2.60888671875,0.23876953125,105.91463414634147,9.451219512195122,218.84146341463418,120,2
238,0.05078125,-2.79931640625,0.18798828125,116.09756097560977,11.829268292682928,263.9024390243903,120,2
239,0.23046875,-2.89892578125,0.18896484375,127.37804878048782,12.195121951219512,291.82926829268297,120,2
240,0.4501953125,-3.01318359375,0.0693359375,139.57317073170734,8.658536585365855,322.8048780487805,120,2
241,0.65771484375,-3.20263671875,-0.08447265625,152.7439024390244,6.829268292682928,357.25609756097566,120,2
242,0.87255859375,-3.27978515625,-0.18505859375,156.21951219512198,4.939024390243903,376.0365853658537,120,2
243,1.19580078125,-3.5048828125,-0.30517578125,197.7439024390244,-1.1585365853658538,426.4634146341464,120,2
244,1.6181640625,-3.83740234375,-0.5234375,232.19512195121953,-14.390243902439027,459.63414634146346,120,2
245,2.119140625,-4.06298828125,-0.67529296875,269.0243902439025,-23.59756097560976,490.42682926829275,120,2
246,2.63818359375,-4.29052734375,-1.03271484375,312.6829268292683,-27.012195121951223,518.2926829268293,120,2
247,3.42626953125,-4.4423828125,-1.359375,361.4024390243903,-17.804878048780488,538.5365853658537,120,2
248,3.96142578125,-4.69775390625,-1.4140625,384.63414634146346,3.1707317073170733,556.5853658536586,120,2
249,4.77392578125,-5.0029296875,-1.42626953125,385.9756097560976,45.243902439024396,564.329268292683,120,2
250,5.5458984375,-5.0478515625,-1.61572265625,381.76829268292687,78.17073170731707,630.8536585365854,120,2
251,6.27685546875,-4.8251953125,-1.9189453125,391.70731707317077,134.75609756097563,683.1707317073171,120,2
252,6.79931640625,-4.2880859375,-2.50146484375,418.5365853658537,160.2439024390244,729.939024390244,120,2
253,7.74853515625,-3.591796875,-2.92041015625,430.4878048780488,162.9268292682927,768.1707317073171,120,2
254,8.5654296875,-3.287109375,-3.17919921875,437.86585365853665,132.5609756097561,837.3780487804879,120,2
255,9.03564453125,-3.21484375,-3.8486328125,473.1707317073171,97.6829268292683,866.0975609756098,120,2
256,9.55078125,-2.26611328125,-4.32568359375,528.4756097560976,57.01219512195122,872.1951219512196,120,2
257,9.9189453125,-1.5361328125,-5.02783203125,581.2804878048781,-8.841463414634147,862.0731707317074,120,2
258,9.638671875,-1.38232421875,-5.56689453125,662.1951219512196,-90.97560975609757,847.8048780487806,120,2
259,8.625,-1.72216796875,-5.58642578125,739.7560975609757,-189.69512195121953,805.1829268292684,120,2
260,7.84326171875,-2.54150390625,-5.5966796875,889.2682926829269,-342.8048780487805,778.048780487805,120,2
261,6.63525390625,-3.6552734375,-6.173828125,1021.9512195121952,-519.0243902439025,671.7073170731708,120,2
262,5.65380859375,-4.24951171875,-8.3486328125,1240.7317073170732,-667.7439024390244,598.048780487805,120,2
263,11.896484375,-13.875,0.39453125,1854.1463414634147,-829.2073170731708,-286.89024390243907,120,2
264,-8.02880859375,8.24951171875,-0.4609375,812.8658536585367,-161.95121951219514,-84.51219512195122,120,2
265,9.0625,5.98486328125,-4.35986328125,740.1219512195123,-362.13414634146346,-15.487804878048783,120,2
266,1.35693359375,-14.435546875,-3.0400390625,1223.8414634146343,-154.93902439024393,-84.14634146341464,120,2
267,14.17626953125,8.70654296875,4.22216796875,1022.0121951219513,-2.25609756097561,-7.378048780487806,120,2
268,1.4013671875,-3.28125,-5.7705078125,1169.329268292683,-215.7926829268293,-221.95121951219514,120,2
269,5.45703125,-0.0830078125,-3.146484375,823.5365853658537,-167.5609756097561,-260.0,120,2
270,4.6015625,0.5703125,-1.58447265625,889.4512195121952,-146.89024390243904,-340.1219512195122,120,2
271,3.5693359375,-1.8037109375,-2.931640625,857.3780487804879,-158.1707317073171,-439.32926829268297,120,2
272,3.71533203125,-1.88330078125,-2.64306640625,704.6341463414635,-244.93902439024393,-556.6463414634147,120,2
273,2.84228515625,-1.0,-3.1201171875,610.4878048780488,-196.40243902439025,-591.2804878048781,120,2
274,2.30615234375,-1.20849609375,-2.4755859375,535.0609756097562,-140.4268292682927,-610.7926829268293,120,2
275,1.982421875,-1.828125,-1.80712890625,438.2926829268293,-116.15853658536587,-652.3780487804879,120,2
276,1.30859375,-1.6357421875,-1.57763671875,367.9878048780488,-61.95121951219513,-662.3780487804879,120,2
277,1.06396484375,-1.77490234375,-1.08984375,290.5487804878049,30.975609756097565,-667.6829268292684,120,2
278,0.8046875,-1.7275390625,-0.64013671875,209.32926829268294,92.8048780487805,-660.7317073170732,120,2
279,0.71435546875,-1.14501953125,-0.5078125,181.15853658536588,145.4268292682927,-651.2804878048781,120,2
280,0.90478515625,-0.74462890625,-0.36767578125,171.89024390243904,171.58536585365854,-646.9512195121952,120,2
281,1.7216796875,-0.49072265625,-0.44482421875,155.4878048780488,190.4878048780488,-651.4634146341464,120,2
282,2.22021484375,-0.20849609375,-0.64013671875,82.01219512195122,222.01219512195124,-654.5121951219513,120,2
283,2.02001953125,-0.599609375,-0.30810546875,26.34146341463415,234.69512195121953,-620.609756097561,120,2
284,2.03662109375,-0.84375,-0.0576171875,-20.182926829268293,271.4634146341464,-601.4634146341464,120,2
285,2.00048828125,-0.67236328125,-0.12890625,-47.19512195121952,287.13414634146346,-580.1219512195122,120,2
286,2.1689453125,-0.5966796875,-0.49560546875,-104.02439024390245,281.0365853658537,-557.1341463414634,120,2
287,2.16455078125,-0.521484375,-0.61767578125,-137.6829268292683,309.57317073170736,-535.7317073170732,120,2
288,1.9375,-0.7041015625,-0.25439453125,-167.37804878048783,322.8048780487805,-507.86585365853665,120,2
289,1.5009765625,-1.11376953125,-0.1611328125,-188.0487804878049,324.0243902439025,-485.36585365853665,120,2
290,1.25390625,-1.0224609375,-0.15234375,-185.97560975609758,320.4268292682927,-461.0975609756098,120,2
291,1.22265625,-0.88427734375,-0.3515625,-180.00000000000003,309.81707317073176,-439.32926829268297,120,2
292,1.2568359375,-0.77099609375,-0.69970703125,-166.58536585365854,298.5975609756098,-413.7804878048781,120,2
293,1.47216796875,-0.5576171875,-0.8603515625,-174.75609756097563,290.4268292682927,-397.56097560975616,120,2
294,1.43115234375,-0.5009765625,-0.9501953125,-200.7317073170732,297.31707317073176,-381.1585365853659,120,2
295,1.326171875,-0.56103515625,-0.998046875,-233.71951219512198,307.9268292682927,-363.719512195122,120,2
296,1.13818359375,-0.46630859375,-0.8466796875,-251.15853658536588,312.7439024390244,-346.0365853658537,120,2
297,0.90625,-0.39453125,-0.84619140625,-257.8048780487805,338.5975609756098,-331.2804878048781,120,2
298,0.765625,-0.27392578125,-0.9384765625,-251.21951219512198,329.39024390243907,-315.3658536585366,120,2
299,0.71630859375,-0.16552734375,-1.0849609375,-231.28048780487808,309.32926829268297,-299.87804878048786,120,2
300,0.6494140625,-0.01171875,-1.10986328125,-218.65853658536588,293.5975609756098,-277.8658536585366,120,2
301,0.48486328125,-0.09228515625,-1.04638671875,-223.71951219512198,295.6707317073171,-258.3536585365854,120,2
302,0.0693359375,-0.18310546875,-1.17333984375,-220.4268292682927,279.1463414634147,-238.84146341463418,120,2
303,-0.236328125,-0.33056640625,-1.20556640625,-242.01219512195124,258.9024390243903,-213.65853658536588,120,2
304,-0.16162109375,-0.6005859375,-1.0673828125,-226.82926829268294,247.13414634146343,-190.609756097561,120,2
305,-0.359375,-0.3564453125,-0.9287109375,-231.64634146341464,226.46341463414637,-186.58536585365854,120,2
306,-0.658203125,-0.32080078125,-0.865234375,-220.85365853658539,213.90243902439028,-157.9878048780488,120,2
307,-0.65087890625,-0.111328125,-0.6884765625,-230.91463414634148,197.62195121951223,-144.14634146341464,120,2
308,-0.71142578125,-0.0390625,-0.70947265625,-225.18292682926833,181.15853658536588,-131.03658536585368,120,2
309,-0.68798828125,-0.02490234375,-0.7021484375,-228.78048780487808,165.85365853658539,-120.67073170731709,120,2
310,-0.69384765625,-0.0693359375,-0.74267578125,-223.0487804878049,151.15853658536588,-109.39024390243904,120,2
311,-0.63525390625,-0.11279296875,-0.62646484375,-216.70731707317074,138.78048780487805,-99.32926829268294,120,2
312,-0.7548828125,-0.236328125,-0.5888671875,-213.47560975609758,126.03658536585367,-90.67073170731707,120,2
313,-0.9033203125,-0.2822265625,-0.65771484375,-205.4268292682927,113.90243902439025,-83.84146341463415,120,2
314,-0.80810546875,-0.1474609375,-0.52880859375,-201.95121951219514,106.15853658536587,-75.91463414634147,120,2
315,-0.7939453125,-0.115234375,-0.421875,-186.95121951219514,98.96341463414635,-67.6219512195122,120,2
316,-0.7880859375,-0.06005859375,-0.40087890625,-157.9878048780488,95.3658536585366,-62.987804878048784,120,2
317,-0.79736328125,0.0078125,-0.44091796875,-153.84146341463415,90.54878048780489,-59.085365853658544,120,2
318,-0.78759765625,0.05126953125,-0.55419921875,-142.6219512195122,85.54878048780489,-52.5609756097561,120,2
319,-0.84912109375,-0.01513671875,-0.5244140625,-132.31707317073173,93.10975609756099,-43.29268292682927,120,2
320,-1.01220703125,-0.07568359375,-0.4658203125,-124.93902439024392,71.82926829268294,-34.69512195121951,120,2
321,-1.16796875,-0.22216796875,-0.52685546875,-121.70731707317074,64.9390243902439,-27.743902439024392,120,2
322,-1.2412109375,-0.3291015625,-0.5009765625,-111.46341463414635,55.73170731707317,-20.975609756097562,120,2
323,-1.20458984375,-0.3017578125,-0.46630859375,-96.76829268292684,45.91463414634147,-11.76829268292683,120,2
324,-1.2119140625,-0.28759765625,-0.41015625,-84.45121951219512,38.41463414634147,-2.804878048780488,120,2
325,-1.21142578125,-0.22607421875,-0.38623046875,-75.60975609756098,46.646341463414636,4.390243902439025,120,2
326,-1.189453125,-0.16845703125,-0.40576171875,-66.64634146341464,23.04878048780488,11.28048780487805,120,2
327,-1.19580078125,-0.1484375,-0.4453125,-57.19512195121952,12.134146341463415,16.76829268292683,120,2
328,-1.17822265625,-0.16357421875,-0.40478515625,-47.86585365853659,5.731707317073171,21.890243902439025,120,2
329,-1.1767578125,-0.1455078125,-0.3427734375,-42.25609756097561,0.3658536585365854,25.731707317073173,120,2
330,-1.17333984375,-0.107421875,-0.31494140625,-41.58536585365854,-4.817073170731708,30.000000000000004,120,2
331,-1.16796875,-0.10498046875,-0.37109375,-41.890243902439025,-12.80487804878049,32.5609756097561,120,2
332,-1.1318359375,-0.08447265625,-0.39013671875,-37.37804878048781,-22.012195121951223,36.09756097560976,120,2
333,-1.13818359375,-0.10009765625,-0.4931640625,-29.75609756097561,-16.158536585365855,39.57317073170732,120,2
334,-1.14453125,-0.11474609375,-0.318359375,-24.02439024390244,-38.90243902439025,41.890243902439025,120,2
335,-1.1513671875,-0.10595703125,-0.27392578125,-20.121951219512198,-43.90243902439025,44.81707317073171,120,2
336,-1.12744140625,-0.05712890625,-0.2431640625,-16.646341463414636,-50.79268292682927,47.5609756097561,120,2
337,-1.24658203125,-0.02294921875,-0.26904296875,-13.231707317073171,-58.29268292682927,50.0609756097561,120,2
338,-1.10888671875,-0.01171875,-0.37451171875,-8.048780487804878,-64.57317073170732,51.89024390243903,120,2
339,-1.10986328125,0.00537109375,-0.21435546875,-4.085365853658537,-70.91463414634147,53.90243902439025,120,2
340,-1.09814453125,0.01953125,-0.19482421875,-1.2804878048780488,-75.3658536585366,55.365853658536594,120,2
341,-1.08544921875,0.05224609375,-0.16552734375,0.1829268292682927,-78.04878048780489,56.524390243902445,120,2
342,-1.08056640625,0.0654296875,-0.14306640625,1.4634146341463417,-82.98780487804879,57.6219512195122,120,2
343,-1.0654296875,0.07080078125,-0.14453125,5.365853658536586,-89.69512195121952,57.743902439024396,120,2
344,-1.05810546875,0.08349609375,-0.13916015625,10.060975609756099,-94.93902439024392,56.89024390243903,120,2
345,-1.03076171875,0.11279296875,-0.0830078125,14.634146341463415,-100.00000000000001,56.82926829268293,120,2
346,-1.01220703125,0.13330078125,-0.02099609375,16.585365853658537,-101.34146341463415,57.25609756097561,120,2
347,-0.986328125,0.1748046875,0.03369140625,16.28048780487805,-101.52439024390245,57.865853658536594,120,2
348,-0.97119140625,0.20556640625,0.029296875,16.03658536585366,-102.37804878048782,58.78048780487806,120,2
349,-0.939453125,0.22900390625,0.00830078125,19.02439024390244,-106.28048780487806,59.268292682926834,120,2
350,-0.93017578125,0.24462890625,0.0224609375,23.10975609756098,-110.97560975609757,58.963414634146346,120,2
351,-0.9189453125,0.37060546875,0.0625,27.621951219512198,-115.06097560975611,58.47560975609757,120,2
352,-0.89599609375,0.26025390625,0.095703125,15.731707317073171,-117.7439024390244,57.804878048780495,120,2
353,-0.873046875,0.267578125,0.12158203125,32.31707317073171,-120.42682926829269,57.19512195121952,120,2
354,-0.84130859375,0.2783203125,0.13623046875,34.268292682926834,-123.90243902439026,57.31707317073171,120,2
355,-0.81689453125,0.2861328125,0.14599609375,36.768292682926834,-127.98780487804879,58.29268292682927,120,2
356,-0.80712890625,0.28369140625,0.19091796875,39.63414634146342,-131.34146341463415,59.69512195121952,120,2
357,-0.794921875,0.27685546875,0.22119140625,42.31707317073171,-133.47560975609758,60.1219512195122,120,2
358,-0.775390625,0.27490234375,0.25390625,43.90243902439025,-133.35365853658539,59.57317073170732,120,2
359,-0.86865234375,0.28173828125,0.30078125,45.1829268292683,-133.90243902439025,59.146341463414636,120,2
360,-0.71826171875,0.29345703125,0.33349609375,48.04878048780488,-135.91463414634148,58.963414634146346,120,2
361,-0.68115234375,0.29052734375,0.34521484375,50.60975609756098,-137.6219512195122,57.6219512195122,120,2
362,-0.6435546875,0.3115234375,0.36181640625,54.57317073170732,-140.97560975609758,57.6829268292683,120,2
363,-0.63720703125,0.2890625,0.37744140625,57.6829268292683,-143.53658536585368,57.743902439024396,120,2
364,-0.61474609375,0.30859375,0.39208984375,60.060975609756106,-145.4268292682927,57.25609756097561,120,2
365,-0.59814453125,0.29296875,0.408203125,59.57317073170732,-144.81707317073173,56.646341463414636,120,2
366,-0.5625,0.302734375,0.4560546875,57.37804878048781,-143.47560975609758,57.31707317073171,120,2
367,-0.53076171875,0.318359375,0.47021484375,55.1829268292683,-142.5,58.71951219512196,120,2
368,-0.62255859375,0.33349609375,0.4658203125,52.6219512195122,-142.5,60.487804878048784,120,2
369,-0.47216796875,0.34326171875,0.45361328125,51.463414634146346,-143.41463414634148,62.07317073170732,120,2
370,-0.47021484375,0.3349609375,0.46435546875,52.50000000000001,-145.5487804878049,63.29268292682927,120,2
371,-0.46875,0.31396484375,0.51611328125,55.54878048780488,-148.0487804878049,64.75609756097562,120,2
372,-0.46484375,0.3076171875,0.54638671875,59.63414634146342,-150.6707317073171,65.67073170731707,120,2
373,-0.44921875,0.3095703125,0.57568359375,62.743902439024396,-149.93902439024393,65.91463414634147,120,2
374,-0.4228515625,0.3232421875,0.60302734375,64.69512195121952,-149.14634146341464,67.25609756097562,120,2
375,-0.38525390625,0.35498046875,0.603515625,65.97560975609757,-147.5,68.41463414634147,120,2
376,-0.3544921875,0.36962890625,0.59912109375,65.73170731707317,-144.69512195121953,69.45121951219512,120,2
377,-0.34375,0.373046875,0.578125,65.79268292682927,-143.71951219512195,71.28048780487805,120,2
378,-0.3212890625,0.498046875,0.5537109375,65.54878048780489,-142.5609756097561,72.01219512195122,120,2
379,-0.29150390625,0.4091796875,0.54541015625,65.1829268292683,-142.37804878048783,72.5609756097561,120,2
380,-0.26171875,0.43798828125,0.54736328125,63.84146341463415,-142.07317073170734,74.02439024390245,120,2
381,-0.23828125,0.44873046875,0.60107421875,62.07317073170732,-142.5,76.03658536585367,120,2
382,-0.23828125,0.4169921875,0.62744140625,58.963414634146346,-141.34146341463415,78.17073170731707,120,2
383,-0.23779296875,0.3935546875,0.64111328125,55.85365853658537,-139.32926829268294,79.08536585365854,120,2
384,-0.23583984375,0.41845703125,0.64453125,55.00000000000001,-138.96341463414635,79.93902439024392,120,2
385,-0.2080078125,0.44384765625,0.6552734375,55.73170731707317,-124.93902439024392,80.97560975609757,120,2
386,-0.16064453125,0.46826171875,0.67529296875,57.50000000000001,-142.13414634146343,81.89024390243902,120,2
387,-0.1484375,0.45068359375,0.6689453125,57.37804878048781,-141.15853658536588,82.31707317073172,120,2
388,-0.14453125,0.44189453125,0.66748046875,55.426829268292686,-137.9268292682927,81.95121951219512,120,2
389,-0.10107421875,0.46435546875,0.6474609375,53.35365853658537,-135.2439024390244,81.64634146341464,120,2
390,-0.05126953125,0.4892578125,0.64111328125,52.43902439024391,-133.96341463414635,82.50000000000001,120,2
391,-0.02783203125,0.4873046875,0.62060546875,51.40243902439025,-133.65853658536585,83.47560975609757,120,2
392,-0.0234375,0.46484375,0.61328125,50.85365853658537,-134.20731707317074,83.90243902439025,120,2
393,-0.0244140625,0.47314453125,0.6181640625,50.1829268292683,-133.90243902439025,84.20731707317074,120,2
394,-0.00830078125,0.4736328125,0.63427734375,48.65853658536586,-133.53658536585368,84.93902439024392,120,2
395,-0.11865234375,0.5029296875,0.6640625,48.29268292682927,-133.59756097560978,86.64634146341464,120,2
396,0.0185546875,0.515625,0.6728515625,49.024390243902445,-133.78048780487805,88.41463414634147,120,2
397,0.04541015625,0.52587890625,0.6650390625,47.43902439024391,-133.1707317073171,88.90243902439025,120,2
398,0.08251953125,0.5302734375,0.64453125,45.487804878048784,-132.37804878048783,89.32926829268294,120,2
399,0.11376953125,0.53271484375,0.74560546875,43.90243902439025,-132.6829268292683,89.14634146341464,120,2
400,0.169921875,0.56982421875,0.6201171875,44.51219512195122,-134.02439024390245,88.84146341463415,120,2
401,0.1796875,0.57861328125,0.619140625,47.6829268292683,-136.58536585365854,89.63414634146342,120,2
402,0.18115234375,0.548828125,0.6220703125,50.73170731707317,-136.52439024390245,89.14634146341464,120,2
403,0.2001953125,0.5322265625,0.61962890625,49.51219512195122,-133.47560975609758,87.92682926829269,120,2
404,0.23876953125,0.5283203125,0.59619140625,47.37804878048781,-131.21951219512195,86.70731707317074,120,2
405,0.3076171875,0.58642578125,0.595703125,43.963414634146346,-128.35365853658539,85.54878048780489,120,2
406,0.33837890625,0.611328125,0.57666015625,40.79268292682927,-126.21951219512196,85.2439024390244,120,2
407,0.36083984375,0.50048828125,0.58837890625,38.23170731707317,-125.67073170731709,85.3658536585366,120,2
408,0.25048828125,0.62158203125,0.59619140625,36.890243902439025,-125.73170731707319,85.0609756097561,120,2
409,0.35986328125,0.61279296875,0.5966796875,37.743902439024396,-126.28048780487806,84.69512195121952,120,2
410,0.3330078125,0.6083984375,0.62109375,38.90243902439025,-127.50000000000001,85.3658536585366,120,2
411,0.318359375,0.6103515625,0.625,42.31707317073171,-129.02439024390245,86.21951219512196,120,2
412,0.306640625,0.60693359375,0.62060546875,47.5609756097561,-129.81707317073173,85.97560975609757,120,2
413,0.337890625,0.6259765625,0.587890625,51.34146341463415,-131.46341463414635,88.17073170731707,120,2
414,0.25244140625,0.62841796875,0.5537109375,49.63414634146342,-127.62195121951221,85.2439024390244,120,2
415,0.40625,0.63232421875,0.51708984375,40.85365853658537,-122.37804878048782,84.45121951219512,120,2
416,0.458984375,0.68408203125,0.47119140625,46.09756097560976,-117.31707317073172,84.20731707317074,120,2
417,0.47802734375,0.70849609375,0.474609375,22.80487804878049,-114.51219512195122,84.32926829268294,120,2
418,0.4697265625,0.68359375,0.4638671875,19.32926829268293,-113.96341463414635,84.87804878048782,120,2
419,0.4638671875,0.64697265625,0.5068359375,18.78048780487805,-114.14634146341464,86.34146341463415,120,2
420,0.44140625,0.599609375,0.54443359375,22.5609756097561,-115.06097560975611,88.35365853658537,120,2
421,0.4404296875,0.5712890625,0.54443359375,28.475609756097562,-115.54878048780489,88.90243902439025,120,2
422,0.46044921875,0.56103515625,0.51953125,35.426829268292686,-117.50000000000001,89.75609756097562,120,2
423,0.48046875,0.52734375,0.4462890625,40.670731707317074,-120.12195121951221,89.75609756097562,120,2
424,0.51123046875,0.49755859375,0.4033203125,37.43902439024391,-118.04878048780489,87.07317073170732,120,2
425,0.53662109375,0.52734375,0.41015625,46.58536585365854,-114.81707317073172,84.81707317073172,120,2
426,0.5986328125,0.5849609375,0.443359375,24.512195121951223,-111.15853658536587,85.00000000000001,120,2
427,0.58642578125,0.5966796875,0.4501953125,17.98780487804878,-106.58536585365854,86.09756097560977,120,2
428,0.548828125,0.564453125,0.447265625,10.975609756097562,-101.03658536585367,86.89024390243904,120,2
429,0.5537109375,0.57177734375,0.396484375,7.621951219512196,-97.92682926829269,87.6219512195122,120,2
430,0.58056640625,0.58837890625,0.3974609375,7.926829268292684,-97.13414634146342,87.92682926829269,120,2
431,0.63037109375,0.59375,0.3828125,9.085365853658537,-97.6219512195122,88.53658536585367,120,2
432,0.6318359375,0.564453125,0.345703125,11.036585365853659,-99.39024390243904,89.45121951219512,120,2
433,0.63037109375,0.564453125,0.3310546875,0.12195121951219513,-102.19512195121952,88.59756097560977,120,2
434,0.6455078125,0.544921875,0.35107421875,18.902439024390244,-102.92682926829269,87.31707317073172,120,2
435,0.67236328125,0.541015625,0.34716796875,17.439024390243905,-101.09756097560977,86.03658536585367,120,2
436,0.697265625,0.52587890625,0.328125,13.231707317073171,-99.20731707317074,84.93902439024392,120,2
437,0.6953125,0.52734375,0.37060546875,10.487804878048781,-97.37804878048782,84.87804878048782,120,2
438,0.67724609375,0.5,0.4990234375,7.073170731707318,-92.6829268292683,84.51219512195122,120,2
439,0.68359375,0.4794921875,0.37060546875,2.7439024390243905,-87.43902439024392,84.81707317073172,120,2
440,0.67626953125,0.45166015625,0.322265625,-0.24390243902439027,-85.91463414634147,86.46341463414635,120,2
441,0.68212890625,0.4267578125,0.27734375,0.426829268292683,-87.07317073170732,87.43902439024392,120,2
442,0.68115234375,0.3837890625,0.2529296875,2.073170731707317,-88.65853658536587,87.92682926829269,120,2
443,0.6689453125,0.353515625,0.236328125,3.1707317073170733,-89.87804878048782,87.43902439024392,120,2
444,0.69677734375,0.3759765625,0.26904296875,4.695121951219512,-87.98780487804879,86.52439024390245,120,2
445,0.72998046875,0.40380859375,0.2958984375,3.5975609756097566,-85.97560975609757,86.82926829268294,120,2
446,0.73828125,0.42578125,0.2890625,2.5609756097560976,-83.65853658536587,87.31707317073172,120,2
447,0.71923828125,0.39501953125,0.2744140625,2.5609756097560976,-80.91463414634147,86.82926829268294,120,2
448,0.73876953125,0.3896484375,0.2529296875,4.695121951219512,-80.42682926829269,86.46341463414635,120,2
449,0.63232421875,0.3828125,0.21533203125,8.109756097560977,-83.10975609756099,86.58536585365854,120,2
450,0.72705078125,0.33642578125,0.16259765625,11.219512195121952,-85.97560975609757,86.40243902439025,120,2
451,0.7099609375,0.3017578125,0.14306640625,12.378048780487806,-85.97560975609757,84.08536585365854,120,2
452,0.72265625,0.32421875,0.1591796875,11.52439024390244,-82.98780487804879,82.6219512195122,120,2
453,0.763671875,0.255859375,0.1689453125,4.573170731707317,-76.76829268292684,80.3048780487805,120,2
454,0.8095703125,0.3994140625,0.1611328125,-4.085365853658537,-69.81707317073172,78.78048780487805,120,2
455,0.8291015625,0.39794921875,0.1640625,-10.426829268292684,-64.39024390243902,76.64634146341464,120,2
456,0.83447265625,0.40380859375,0.2177734375,-12.682926829268293,-59.87804878048781,74.51219512195122,120,2
457,0.845703125,0.41455078125,0.2265625,-12.01219512195122,-58.84146341463415,71.89024390243902,120,2
458,0.8388671875,0.376953125,0.17822265625,-10.365853658536587,-58.35365853658537,68.78048780487805,120,2
459,0.80322265625,0.3486328125,0.14794921875,-7.01219512195122,-57.43902439024391,64.81707317073172,120,2
460,0.83154296875,0.37841796875,0.15966796875,-5.0,-55.304878048780495,59.451219512195124,120,2
461,0.8828125,0.4267578125,0.16064453125,-6.2804878048780495,-52.01219512195122,56.89024390243903,120,2
462,0.85986328125,0.412109375,0.158203125,-9.695121951219512,-62.43902439024391,52.926829268292686,120,2
463,0.8525390625,0.43896484375,0.18701171875,-12.134146341463415,-40.91463414634147,48.84146341463415,120,2
464,0.884765625,0.49365234375,0.2509765625,-13.841463414634148,-34.81707317073171,45.54878048780488,120,2
465,0.888671875,0.50634765625,0.240234375,-14.695121951219514,-30.30487804878049,42.50000000000001,120,2
466,0.86328125,0.4609375,0.16357421875,-14.207317073170733,-29.146341463414636,37.926829268292686,120,2
467,0.828125,0.42529296875,0.13330078125,-12.621951219512196,-28.04878048780488,32.19512195121951,120,2
468,0.8662109375,0.47998046875,0.1611328125,-11.341463414634147,-26.58536585365854,27.682926829268297,120,2
469,0.90234375,0.48876953125,0.18701171875,-12.865853658536587,-23.353658536585368,24.512195121951223,120,2
470,0.8583984375,0.4462890625,0.158203125,-15.182926829268293,-19.634146341463417,20.670731707317074,120,2
471,0.8447265625,0.421875,0.1513671875,-16.097560975609756,-31.09756097560976,16.34146341463415,120,2
472,0.88232421875,0.45556640625,0.1708984375,-17.865853658536587,-10.670731707317074,12.865853658536587,120,2
473,0.8896484375,0.44775390625,0.16455078125,-20.182926829268293,-5.365853658536586,9.146341463414634,120,2
474,0.8662109375,0.40283203125,0.173828125,-20.670731707317074,-1.524390243902439,5.0,120,2
475,0.84375,0.36767578125,0.15380859375,-18.04878048780488,-0.48780487804878053,1.2804878048780488,120,2
476,0.84521484375,0.3505859375,0.1357421875,-15.30487804878049,1.1585365853658538,-1.9512195121951221,120,2
477,0.8515625,0.33984375,0.1298828125,-14.634146341463415,2.682926829268293,-4.207317073170732,120,2
478,0.84375,0.32373046875,0.099609375,-14.878048780487806,4.75609756097561,-6.707317073170732,120,2
479,0.84814453125,0.29443359375,0.12109375,-15.609756097560977,6.707317073170732,-9.207317073170733,120,2
480,0.83837890625,0.2763671875,0.1181640625,-16.402439024390244,8.292682926829269,-8.353658536585366,120,2
481,0.77978515625,0.3662109375,0.11962890625,-17.682926829268293,11.097560975609756,-12.500000000000002,120,2
482,0.78515625,0.2177734375,0.12890625,-18.84146341463415,13.597560975609758,-12.865853658536587,120,2
483,0.75927734375,0.2041015625,0.14013671875,-19.695121951219512,16.03658536585366,-10.426829268292684,120,2
484,0.62548828125,0.20263671875,0.1455078125,-19.207317073170735,18.10975609756098,-13.475609756097562,120,2
485,0.87353515625,0.1826171875,0.150390625,-19.26829268292683,19.085365853658537,-14.207317073170733,120,2
486,0.7392578125,0.14794921875,0.11767578125,-21.76829268292683,17.682926829268293,-13.231707317073171,120,2
487,0.84228515625,0.12744140625,0.08642578125,-22.5609756097561,20.0,-14.817073170731708,120,2
488,0.7294921875,0.1279296875,0.07763671875,-23.414634146341466,19.634146341463417,-14.085365853658537,120,2
489,0.6357421875,0.24169921875,0.0712890625,-23.902439024390247,19.146341463414636,-14.695121951219514,120,2
490,0.7333984375,0.0966796875,0.04296875,-25.975609756097562,19.02439024390244,-13.597560975609758,120,2
491,0.70166015625,0.0859375,0.00732421875,-27.80487804878049,18.414634146341466,-13.597560975609758,120,2
492,0.71337890625,0.08544921875,0.0009765625,-29.02439024390244,17.621951219512198,-13.78048780487805,120,2
493,0.7177734375,0.0810546875,-0.009765625,-31.03658536585366,17.865853658536587,-12.926829268292684,120,2
494,0.70947265625,0.07177734375,-0.00341796875,-34.51219512195122,18.963414634146343,-12.134146341463415,120,2
495,0.69921875,0.0634765625,0.01611328125,-38.10975609756098,20.365853658536587,-11.463414634146343,120,2
496,0.69091796875,0.06640625,0.0458984375,-38.71951219512196,20.182926829268293,-11.036585365853659,120,2
497,0.693359375,0.05908203125,0.07470703125,-36.34146341463415,18.10975609756098,-10.365853658536587,120,2
498,0.69287109375,0.0244140625,0.04638671875,-32.37804878048781,10.853658536585368,-8.658536585365855,120,2
499,0.66064453125,-0.02978515625,-0.0087890625,-27.5609756097561,8.597560975609756,-10.914634146341465,120,2
