,Ax,Ay,Az,Gx,Gy,Gz
0,-0.68408203125,0.492919921875,0.57568359375,-11.694656488549619,7.633587786259542,4.641221374045801
1,-0.684326171875,0.488525390625,0.582275390625,-9.755725190839694,8.381679389312977,5.3893129770992365
2,-0.68408203125,0.48193359375,0.589599609375,-6.99236641221374,9.816793893129772,7.694656488549619
3,-0.68212890625,0.4873046875,0.592041015625,-2.6717557251908395,10.183206106870228,2.3206106870229006
4,-0.626953125,0.490966796875,0.576416015625,2.8702290076335877,8.16793893129771,0.549618320610687
5,-0.6875,0.48193359375,0.580810546875,3.954198473282443,4.519083969465649,-0.9465648854961832
6,-0.69287109375,0.48974609375,0.569091796875,12.564885496183207,1.633587786259542,-0.32061068702290074
7,-0.692138671875,0.48779296875,0.567626953125,14.595419847328245,0.3816793893129771,1.5419847328244274
8,-0.687744140625,0.494140625,0.555908203125,15.557251908396946,0.15267175572519084,1.9083969465648856
9,-0.6806640625,0.503662109375,0.5517578125,5.267175572519084,0.4580152671755725,2.122137404580153
10,-0.681884765625,0.513671875,0.538818359375,-1.7709923664122138,1.2671755725190839,1.4809160305343512
11,-0.68408203125,0.5048828125,0.546630859375,-8.320610687022901,0.549618320610687,0.1984732824427481
12,-0.689453125,0.50341796875,0.547119140625,-12.076335877862595,-1.2213740458015268,-0.9618320610687023
13,-0.688232421875,0.50390625,0.55908203125,-11.740458015267176,-0.7480916030534351,-1.984732824427481
14,-0.69482421875,0.50634765625,0.592529296875,-6.244274809160306,0.549618320610687,-2.4732824427480917
15,-0.688232421875,0.49609375,0.584228515625,1.7709923664122138,0.366412213740458,-3.2519083969465647
16,-0.706787109375,0.514892578125,0.57568359375,8.458015267175572,0.061068702290076333,-3.7557251908396947
17,-0.707763671875,0.5126953125,0.57666015625,12.732824427480915,0.24427480916030533,-7.770992366412214
18,-0.70654296875,0.50048828125,0.558837890625,15.282442748091603,3.877862595419847,-3.7404580152671754
19,-0.70361328125,0.498291015625,0.550537109375,15.038167938931299,-1.4809160305343512,-2.8244274809160306
20,-0.69580078125,0.505126953125,0.553955078125,11.34351145038168,-1.0534351145038168,-1.251908396946565
21,-0.70556640625,0.5048828125,0.54443359375,7.847328244274809,0.5648854961832062,0.5954198473282443
22,-0.6943359375,0.515869140625,0.54052734375,1.7404580152671756,1.465648854961832,0.4580152671755725
23,-0.688232421875,0.525634765625,0.53857421875,-4.854961832061068,1.450381679389313,-1.6793893129770991
24,-0.68115234375,0.529541015625,0.546875,-11.389312977099237,2.595419847328244,-5.3893129770992365
25,-0.748291015625,0.5234375,0.5751953125,-13.236641221374045,3.66412213740458,-7.603053435114504
26,-0.6953125,0.513427734375,0.58740234375,-9.34351145038168,3.480916030534351,-8.13740458015267
27,-0.701416015625,0.4375,0.59033203125,-7.099236641221374,2.687022900763359,-7.435114503816794
28,-0.703369140625,0.493408203125,0.60107421875,3.435114503816794,2.381679389312977,-5.6183206106870225
29,-0.69970703125,0.49462890625,0.594970703125,3.954198473282443,2.1068702290076335,-4.213740458015267
30,-0.702880859375,0.506591796875,0.595703125,7.938931297709924,1.2213740458015268,-1.5725190839694656
31,-0.710693359375,0.500732421875,0.579833984375,13.740458015267176,3.83206106870229,-3.7557251908396947
32,-0.702392578125,0.50341796875,0.57958984375,13.465648854961833,-1.450381679389313,2.3053435114503817
33,-0.70263671875,0.505859375,0.500244140625,11.358778625954198,-2.3053435114503817,3.099236641221374
34,-0.690185546875,0.5185546875,0.568603515625,7.465648854961832,-2.1374045801526718,2.4122137404580153
35,-0.75,0.510986328125,0.565185546875,7.633587786259542,-0.9465648854961832,1.8015267175572518
36,-0.691162109375,0.514892578125,0.623046875,0.8396946564885496,0.15267175572519084,1.4351145038167938
37,-0.626953125,0.50390625,0.570068359375,-2.030534351145038,0.7938931297709924,0.5954198473282443
38,-0.6845703125,0.489013671875,0.583740234375,-2.3206106870229006,1.7251908396946565,0.4580152671755725
39,-0.68408203125,0.47900390625,0.5859375,-0.5801526717557252,1.7404580152671756,-0.2595419847328244
40,-0.74951171875,0.48291015625,0.583984375,1.282442748091603,1.816793893129771,-0.7938931297709924
41,-0.696044921875,0.498046875,0.59375,5.129770992366412,2.6259541984732824,-0.8702290076335878
42,-0.708251953125,0.496337890625,0.594482421875,9.32824427480916,2.900763358778626,-0.9465648854961832
43,-0.716796875,0.49853515625,0.586669921875,11.32824427480916,2.366412213740458,-0.48854961832061067
44,-0.720703125,0.48388671875,0.56396484375,10.65648854961832,1.5267175572519085,-0.015267175572519083
45,-0.718505859375,0.4755859375,0.5068359375,8.091603053435115,0.9465648854961832,-3.786259541984733
46,-0.70703125,0.481201171875,0.564697265625,5.984732824427481,1.2366412213740459,1.786259541984733
47,-0.713623046875,0.464599609375,0.5556640625,7.6183206106870225,1.450381679389313,3.435114503816794
48,-0.70458984375,0.471923828125,0.55859375,1.9083969465648856,2.4580152671755724,4.305343511450381
49,-0.69287109375,0.46630859375,0.624755859375,1.6488549618320612,0.0,4.122137404580153
50,-0.68505859375,0.4658203125,0.55712890625,3.5114503816793894,4.412213740458015,2.4885496183206106
51,-0.677978515625,0.473876953125,0.549560546875,4.854961832061068,2.9160305343511452,-1.3282442748091603
52,-0.680908203125,0.490234375,0.5576171875,5.541984732824427,2.2290076335877864,-4.305343511450381
53,-0.671630859375,0.47314453125,0.554931640625,8.763358778625955,1.5877862595419847,-6.076335877862595
54,-0.677734375,0.47705078125,0.55615234375,11.251908396946565,1.1450381679389312,-6.732824427480916
55,-0.667236328125,0.482421875,0.564697265625,13.19083969465649,1.9083969465648856,-6.534351145038168
56,-0.674072265625,0.48974609375,0.556396484375,13.664122137404581,2.5801526717557253,-5.816793893129771
57,-0.674560546875,0.489501953125,0.537841796875,12.15267175572519,1.7557251908396947,-5.709923664122138
58,-0.67919921875,0.505615234375,0.5478515625,8.80916030534351,0.8244274809160306,-5.00763358778626
59,-0.6826171875,0.505126953125,0.534912109375,6.244274809160306,0.07633587786259542,-3.6793893129770994
60,-0.74853515625,0.505615234375,0.5419921875,4.183206106870229,0.4580152671755725,-3.404580152671756
61,-0.689453125,0.510498046875,0.528076171875,2.4732824427480917,1.3282442748091603,-1.9541984732824427
62,-0.687255859375,0.506591796875,0.532958984375,2.2900763358778624,1.5877862595419847,-1.633587786259542
63,-0.6923828125,0.51025390625,0.534912109375,4.9465648854961835,3.0229007633587788,-1.2366412213740459
64,-0.69580078125,0.515625,0.52587890625,9.16030534351145,3.877862595419847,-0.8702290076335878
65,-0.697021484375,0.5263671875,0.53857421875,10.229007633587786,5.1603053435114505,-0.8244274809160306
66,-0.703369140625,0.5283203125,0.532470703125,9.84732824427481,6.885496183206107,0.4580152671755725
67,-0.7021484375,0.5390625,0.515625,9.34351145038168,9.038167938931299,0.916030534351145
68,-0.715087890625,0.546630859375,0.52685546875,4.916030534351145,9.923664122137405,3.1755725190839694
69,-0.692626953125,0.54931640625,0.544189453125,-2.5343511450381677,13.267175572519085,2.0763358778625953
70,-0.6806640625,0.547607421875,0.55615234375,-5.786259541984733,15.404580152671755,3.068702290076336
71,-0.701904296875,0.550048828125,0.570068359375,-5.511450381679389,11.740458015267176,4.427480916030534
72,-0.716064453125,0.548095703125,0.5693359375,-7.984732824427481,15.19083969465649,6.763358778625954
73,-0.709228515625,0.5361328125,0.587890625,-9.038167938931299,14.259541984732824,7.9541984732824424
74,-0.69140625,0.53125,0.61181640625,-11.572519083969466,13.297709923664122,8.259541984732824
75,-0.693603515625,0.529541015625,0.613037109375,-2.0916030534351147,11.969465648854962,8.992366412213741
76,-0.699462890625,0.505615234375,0.608154296875,3.267175572519084,9.770992366412214,10.0
77,-0.70458984375,0.506591796875,0.6103515625,8.65648854961832,11.603053435114504,10.50381679389313
78,-0.693115234375,0.501953125,0.6044921875,14.65648854961832,5.404580152671755,10.854961832061068
79,-0.687744140625,0.50048828125,0.597900390625,18.50381679389313,3.7251908396946565,10.534351145038167
80,-0.689208984375,0.49560546875,0.594482421875,19.572519083969464,2.9618320610687023,10.412213740458014
81,-0.7490234375,0.49951171875,0.577880859375,19.389312977099237,2.8702290076335877,8.534351145038167
82,-0.6806640625,0.498779296875,0.57177734375,10.732824427480915,2.6717557251908395,6.0
83,-0.688720703125,0.49755859375,0.570556640625,6.396946564885496,2.183206106870229,3.2977099236641223
84,-0.696044921875,0.488525390625,0.5625,4.1679389312977095,0.6870229007633588,1.6641221374045803
85,-0.6982421875,0.469970703125,0.56787109375,5.465648854961832,-0.8396946564885496,1.2061068702290076
86,-0.707763671875,0.460205078125,0.573486328125,8.213740458015268,-2.427480916030534,1.099236641221374
87,-0.7041015625,0.461669921875,0.575439453125,14.106870229007633,-3.282442748091603,1.4961832061068703
88,-0.703125,0.46923828125,0.57373046875,20.47328244274809,-0.030534351145038167,1.1145038167938932
89,-0.706298828125,0.4833984375,0.56201171875,23.954198473282442,-4.1679389312977095,-0.24427480916030533
90,-0.7001953125,0.499267578125,0.54931640625,25.206106870229007,-3.435114503816794,-2.16793893129771
91,-0.712646484375,0.490234375,0.5390625,27.236641221374047,-2.9618320610687023,-4.442748091603053
92,-0.727294921875,0.496337890625,0.524658203125,17.053435114503817,-3.3282442748091605,-5.312977099236641
93,-0.728271484375,0.490234375,0.528076171875,11.022900763358779,-3.4656488549618323,-5.068702290076335
94,-0.729736328125,0.479248046875,0.5283203125,5.679389312977099,-2.0610687022900764,-4.0458015267175576
95,-0.72314453125,0.475341796875,0.544189453125,4.137404580152672,0.2900763358778626,-1.8778625954198473
96,-0.729248046875,0.47119140625,0.53857421875,5.633587786259542,2.6259541984732824,0.8244274809160306
97,-0.73681640625,0.479248046875,0.531005859375,7.557251908396947,3.83206106870229,2.183206106870229
98,-0.726806640625,0.482666015625,0.53076171875,8.381679389312977,4.1679389312977095,1.6793893129770991
99,-0.718017578125,0.48095703125,0.532958984375,7.633587786259542,4.106870229007634,-0.32061068702290074
100,-0.70166015625,0.492431640625,0.52978515625,6.99236641221374,5.083969465648855,-2.9160305343511452
101,-0.697509765625,0.487060546875,0.5234375,7.267175572519084,5.908396946564886,-4.305343511450381
102,-0.696044921875,0.492919921875,0.532958984375,6.99236641221374,6.0,-4.748091603053435
103,-0.7001953125,0.495849609375,0.535400390625,7.786259541984733,5.847328244274809,-4.473282442748092
104,-0.699951171875,0.51025390625,0.542724609375,8.076335877862595,6.030534351145038,-4.778625954198473
105,-0.697509765625,0.505126953125,0.539306640625,8.458015267175572,4.9465648854961835,-3.4656488549618323
106,-0.699951171875,0.506591796875,0.529541015625,6.641221374045801,4.0458015267175576,-2.2442748091603053
107,-0.69677734375,0.50830078125,0.537841796875,4.030534351145038,3.969465648854962,-0.9618320610687023
108,-0.685546875,0.50634765625,0.521728515625,3.7404580152671754,5.435114503816794,0.6870229007633588
109,-0.67822265625,0.50341796875,0.53076171875,4.870229007633588,6.5038167938931295,1.3587786259541985
110,-0.6630859375,0.529296875,0.531982421875,5.938931297709924,7.816793893129771,0.5343511450381679
111,-0.659423828125,0.546630859375,0.5283203125,5.6183206106870225,10.15267175572519,-2.732824427480916
112,-0.655029296875,0.5693359375,0.5283203125,4.076335877862595,11.374045801526718,-7.587786259541985
113,-0.657470703125,0.575927734375,0.53125,2.6717557251908395,10.717557251908397,-7.847328244274809
114,-0.67626953125,0.58349609375,0.54296875,1.1297709923664123,9.664122137404581,-14.961832061068701
115,-0.692626953125,0.578857421875,0.56103515625,0.6412213740458015,9.740458015267176,-15.435114503816793
116,-0.7041015625,0.57373046875,0.569091796875,0.9007633587786259,9.679389312977099,-13.114503816793894
117,-0.72802734375,0.56591796875,0.571044921875,0.9923664122137404,7.923664122137405,-11.358778625954198
118,-0.7412109375,0.548828125,0.57421875,1.984732824427481,6.458015267175573,-0.48854961832061067
119,-0.73388671875,0.545654296875,0.574951171875,3.49618320610687,8.198473282442748,3.83206106870229
120,-0.727294921875,0.549072265625,0.576904296875,5.1603053435114505,9.129770992366412,5.587786259541985
121,-0.719970703125,0.547607421875,0.56591796875,6.396946564885496,7.511450381679389,7.00763358778626
122,-0.72021484375,0.55078125,0.5439453125,11.679389312977099,5.175572519083969,7.7251908396946565
123,-0.709228515625,0.5576171875,0.54443359375,18.48854961832061,3.633587786259542,6.0458015267175576
124,-0.701904296875,0.57470703125,0.53564453125,23.938931297709924,3.2519083969465647,3.114503816793893
125,-0.69482421875,0.57958984375,0.540283203125,28.80916030534351,3.49618320610687,2.50381679389313
126,-0.693603515625,0.5830078125,0.52001953125,31.557251908396946,3.267175572519084,2.7938931297709924
127,-0.704345703125,0.59375,0.512451171875,27.541984732824428,5.4961832061068705,1.8473282442748091
128,-0.631103515625,0.599365234375,0.440673828125,24.213740458015266,8.961832061068701,1.0381679389312977
129,-0.70166015625,0.602783203125,0.4931640625,17.938931297709924,9.526717557251908,-2.1068702290076335
130,-0.71826171875,0.613525390625,0.491455078125,10.687022900763358,8.305343511450381,-3.3740458015267176
131,-0.7412109375,0.5908203125,0.510498046875,4.564885496183206,8.244274809160306,-1.4961832061068703
132,-0.76025390625,0.573974609375,0.520751953125,2.427480916030534,9.251908396946565,1.3893129770992367
133,-0.760009765625,0.567626953125,0.5419921875,0.07633587786259542,10.305343511450381,4.961832061068702
134,-0.761474609375,0.578125,0.5576171875,6.702290076335878,12.900763358778626,8.320610687022901
135,-0.775390625,0.5625,0.54931640625,10.076335877862595,15.022900763358779,11.694656488549619
136,-0.777099609375,0.543701171875,0.53759765625,13.908396946564885,15.129770992366412,14.51908396946565
137,-0.7763671875,0.53662109375,0.54150390625,16.35114503816794,14.381679389312977,14.916030534351146
138,-0.768310546875,0.538818359375,0.53662109375,17.83206106870229,14.595419847328245,12.549618320610687
139,-0.7646484375,0.54150390625,0.52880859375,21.740458015267176,15.312977099236642,10.13740458015267
140,-0.781982421875,0.551513671875,0.53271484375,25.34351145038168,14.396946564885496,8.687022900763358
141,-0.801025390625,0.580810546875,0.541015625,23.96946564885496,14.83969465648855,7.0534351145038165
142,-0.811279296875,0.581787109375,0.536376953125,21.862595419847327,16.793893129770993,6.396946564885496
143,-0.75341796875,0.57421875,0.5263671875,18.137404580152673,17.31297709923664,5.709923664122138
144,-0.80419921875,0.552978515625,0.527587890625,16.47328244274809,16.244274809160306,6.198473282442748
145,-0.7509765625,0.536376953125,0.52734375,19.17557251908397,15.053435114503817,7.770992366412214
146,-0.8203125,0.523193359375,0.52294921875,26.793893129770993,13.007633587786259,8.381679389312977
147,-0.826416015625,0.518798828125,0.528076171875,32.045801526717554,11.86259541984733,18.885496183206108
148,-0.825927734375,0.517333984375,0.517333984375,37.038167938931295,13.007633587786259,24.244274809160306
149,-0.7509765625,0.539306640625,0.56201171875,35.786259541984734,16.595419847328245,23.61832061068702
150,-0.800048828125,0.621826171875,0.49267578125,30.33587786259542,20.27480916030534,21.068702290076335
151,-0.80712890625,0.542724609375,0.4697265625,21.404580152671755,20.38167938931298,17.480916030534353
152,-0.8115234375,0.555419921875,0.481201171875,12.900763358778626,19.31297709923664,11.251908396946565
153,-0.813232421875,0.54833984375,0.503662109375,7.877862595419847,15.770992366412214,8.793893129770993
154,-0.754638671875,0.543212890625,0.52734375,8.534351145038167,23.267175572519083,9.541984732824428
155,-0.832275390625,0.512939453125,0.517578125,20.641221374045802,24.47328244274809,11.908396946564885
156,-0.842041015625,0.513427734375,0.50732421875,25.389312977099237,22.076335877862597,14.030534351145038
157,-0.850341796875,0.507568359375,0.50244140625,29.541984732824428,18.12213740458015,18.213740458015266
158,-0.8447265625,0.507568359375,0.4931640625,31.923664122137403,14.213740458015268,22.045801526717558
159,-0.828125,0.517578125,0.489501953125,35.11450381679389,13.725190839694656,25.572519083969464
160,-0.80712890625,0.532958984375,0.478759765625,34.458015267175576,15.557251908396946,31.114503816793892
161,-0.79931640625,0.531982421875,0.447265625,31.862595419847327,16.106870229007633,33.603053435114504
162,-0.779052734375,0.558349609375,0.439208984375,24.610687022900763,16.671755725190838,31.83206106870229
163,-0.741943359375,0.5576171875,0.4267578125,23.236641221374047,15.786259541984732,26.290076335877863
164,-0.74365234375,0.574951171875,0.4228515625,14.381679389312977,22.0,19.908396946564885
165,-0.759765625,0.615234375,0.40966796875,13.954198473282442,21.053435114503817,16.885496183206108
166,-0.770263671875,0.53955078125,0.4150390625,19.129770992366414,18.778625954198475,15.557251908396946
167,-0.76318359375,0.508056640625,0.3916015625,29.450381679389313,18.549618320610687,16.702290076335878
168,-0.76416015625,0.511962890625,0.39990234375,31.31297709923664,19.14503816793893,15.267175572519085
169,-0.76611328125,0.5478515625,0.39404296875,40.70229007633588,18.213740458015266,16.33587786259542
170,-0.7802734375,0.568359375,0.384521484375,42.961832061068705,17.068702290076335,17.374045801526716
171,-0.80029296875,0.618408203125,0.436767578125,36.48854961832061,18.366412213740457,18.106870229007633
172,-0.820556640625,0.63916015625,0.36572265625,21.938931297709924,21.297709923664122,19.17557251908397
173,-0.825927734375,0.640869140625,0.364013671875,0.5190839694656488,22.610687022900763,19.19083969465649
174,-0.824462890625,0.615234375,0.380615234375,-15.908396946564885,19.572519083969464,19.053435114503817
175,-0.873046875,0.60791015625,0.419677734375,-33.038167938931295,28.65648854961832,18.015267175572518
176,-0.798828125,0.578125,0.430419921875,-32.412213740458014,29.435114503816795,17.709923664122137
177,-0.75048828125,0.546142578125,0.44775390625,-21.72519083969466,25.49618320610687,19.374045801526716
178,-0.825927734375,0.538818359375,0.467529296875,2.6259541984732824,22.717557251908396,14.01526717557252
179,-0.8447265625,0.54541015625,0.4658203125,23.66412213740458,12.091603053435115,14.580152671755725
180,-0.858154296875,0.56982421875,0.460205078125,49.05343511450382,8.335877862595419,13.877862595419847
181,-0.8671875,0.58837890625,0.447265625,64.7175572519084,5.358778625954199,17.66412213740458
182,-0.88037109375,0.58349609375,0.416015625,70.7175572519084,2.7480916030534353,20.27480916030534
183,-0.877685546875,0.588623046875,0.37890625,68.51908396946565,5.7251908396946565,30.442748091603054
184,-0.846923828125,0.57666015625,0.352294921875,63.465648854961835,13.404580152671755,36.213740458015266
185,-0.8251953125,0.593505859375,0.33154296875,46.93129770992366,18.076335877862597,37.770992366412216
186,-0.796875,0.598876953125,0.30810546875,29.297709923664122,21.17557251908397,33.14503816793893
187,-0.789306640625,0.62109375,0.34375,11.267175572519085,26.793893129770993,28.671755725190838
188,-0.797607421875,0.61376953125,0.341552734375,9.435114503816793,28.442748091603054,27.267175572519083
189,-0.821533203125,0.61279296875,0.359375,11.648854961832061,25.541984732824428,19.17557251908397
190,-0.82275390625,0.613037109375,0.380859375,20.732824427480917,24.519083969465647,17.450381679389313
191,-0.803955078125,0.594482421875,0.3896484375,32.229007633587784,23.954198473282442,17.267175572519083
192,-0.790283203125,0.589111328125,0.435546875,44.01526717557252,27.328244274809162,20.549618320610687
193,-0.778076171875,0.574462890625,0.353271484375,60.38167938931298,24.0,25.404580152671755
194,-0.760009765625,0.572021484375,0.328857421875,60.85496183206107,23.66412213740458,30.427480916030536
195,-0.740234375,0.582763671875,0.30224609375,53.81679389312977,22.610687022900763,33.37404580152672
196,-0.72021484375,0.576171875,0.262939453125,49.66412213740458,20.442748091603054,36.717557251908396
197,-0.699951171875,0.5830078125,0.282470703125,38.76335877862596,22.091603053435115,38.42748091603053
198,-0.731201171875,0.600830078125,0.2626953125,35.69465648854962,21.374045801526716,38.35114503816794
199,-0.737060546875,0.6162109375,0.25830078125,21.87786259541985,19.022900763358777,39.83206106870229
200,-0.702880859375,0.599609375,0.280517578125,6.67175572519084,18.595419847328245,38.58015267175573
201,-0.671630859375,0.5849609375,0.3115234375,1.099236641221374,21.267175572519083,37.41984732824427
202,-0.66259765625,0.601806640625,0.321044921875,0.1984732824427481,26.564885496183205,37.31297709923664
203,-0.659912109375,0.599853515625,0.313720703125,12.946564885496183,28.30534351145038,35.86259541984733
204,-0.662353515625,0.60302734375,0.25390625,16.458015267175572,25.6793893129771,33.282442748091604
205,-0.634765625,0.56396484375,0.3291015625,25.61832061068702,23.022900763358777,25.541984732824428
206,-0.63037109375,0.634765625,0.308349609375,40.778625954198475,19.908396946564885,21.374045801526716
207,-0.63623046875,0.685791015625,0.286376953125,46.97709923664122,17.267175572519083,24.595419847328245
208,-0.6572265625,0.634765625,0.189208984375,55.45038167938932,12.045801526717558,24.12213740458015
209,-0.63818359375,0.644287109375,0.239501953125,44.74809160305343,7.480916030534351,24.68702290076336
210,-0.650390625,0.68408203125,0.234375,33.14503816793893,4.99236641221374,24.82442748091603
211,-0.65478515625,0.67529296875,0.225830078125,20.35114503816794,1.1603053435114503,29.053435114503817
212,-0.66748046875,0.68408203125,0.22021484375,6.656488549618321,-1.2061068702290076,34.12213740458015
213,-0.650146484375,0.667236328125,0.2333984375,1.2061068702290076,-1.5725190839694656,39.98473282442748
214,-0.61083984375,0.658935546875,0.237060546875,0.0916030534351145,-1.0534351145038168,43.908396946564885
215,-0.619384765625,0.645263671875,0.218017578125,-0.183206106870229,0.5648854961832062,47.16030534351145
216,-0.510009765625,0.6318359375,0.203857421875,1.1755725190839694,1.9389312977099236,47.51145038167939
217,-0.472900390625,0.63525390625,0.186279296875,7.221374045801527,1.4809160305343512,42.68702290076336
218,-0.482177734375,0.669921875,0.127197265625,-0.8702290076335878,6.33587786259542,24.076335877862597
219,-0.681396484375,-0.0830078125,-0.61376953125,-196.21374045801528,-30.83969465648855,51.63358778625954
220,-1.765380859375,1.14794921875,0.1669921875,-233.00763358778627,52.76335877862596,80.54961832061069
221,-0.009521484375,1.201904296875,0.25390625,-143.12977099236642,7.648854961832061,99.66412213740458
222,-0.439697265625,0.699951171875,0.39794921875,-145.4198473282443,6.0,38.0
223,-0.294677734375,0.794921875,0.359130859375,-157.206106870229,77.02290076335878,61.770992366412216
224,-0.420654296875,0.7685546875,0.304931640625,-166.45801526717557,52.61068702290076,43.786259541984734
225,-0.3232421875,0.73876953125,0.326416015625,-175.9236641221374,24.12213740458015,31.954198473282442
226,-0.311279296875,0.71044921875,0.318603515625,-208.01526717557252,26.12213740458015,4.916030534351145
227,-0.370849609375,0.683349609375,0.4365234375,-250.1679389312977,22.625954198473284,-14.549618320610687
228,-0.38818359375,0.6337890625,0.3857421875,-288.3358778625954,17.099236641221374,-42.48854961832061
229,-0.421142578125,0.6318359375,0.487548828125,-312.59541984732823,-6.244274809160306,-103.45038167938931
230,-1.40478515625,0.5546875,0.203369140625,-272.12213740458014,-59.57251908396947,-125.06870229007633
231,-0.64453125,0.3212890625,0.40283203125,-343.46564885496184,-74.01526717557252,-170.06106870229007
232,-0.565673828125,0.36767578125,0.479248046875,-374.9770992366412,-67.46564885496183,-110.41221374045801
233,-0.3720703125,0.2470703125,0.773193359375,-379.4351145038168,-53.81679389312977,-83.98473282442748
234,-0.404541015625,0.243408203125,0.78759765625,-364.8702290076336,-26.870229007633586,-52.961832061068705
235,-0.48046875,0.12744140625,0.471923828125,-341.9083969465649,-68.91603053435115,-24.65648854961832
236,-0.462646484375,0.31787109375,0.62548828125,-323.08396946564886,-133.6793893129771,-19.938931297709924
237,-0.1005859375,0.34033203125,0.71533203125,-314.7480916030534,-130.6259541984733,-26.778625954198475
238,-0.542236328125,0.35986328125,0.645751953125,-338.9312977099237,-198.3206106870229,-15.221374045801527
239,-0.418212890625,0.190673828125,0.920654296875,-356.0458015267176,-189.06870229007635,-19.81679389312977
240,-0.381103515625,0.122314453125,0.84326171875,-320.5038167938931,-185.3587786259542,50.091603053435115
241,-0.432373046875,0.35107421875,0.95703125,-313.17557251908397,-156.06106870229007,130.67175572519085
242,-0.47265625,0.2490234375,0.8896484375,-330.44274809160305,-126.18320610687023,173.66412213740458
243,-0.0234375,0.397216796875,1.50634765625,-500.2748091603053,-88.29007633587786,196.85496183206106
244,-0.509765625,-0.1181640625,0.70068359375,-500.2748091603053,-163.0381679389313,182.51908396946564
245,-0.102783203125,-0.31884765625,1.011962890625,-499.0687022900763,-156.3206106870229,213.98473282442748
246,-0.486328125,0.049560546875,1.15576171875,-367.57251908396944,-87.54198473282443,130.1679389312977
247,-0.244140625,0.073486328125,1.081298828125,-294.6564885496183,-42.030534351145036,51.49618320610687
248,-0.003662109375,-0.167724609375,0.970947265625,-196.45801526717557,-17.72519083969466,38.030534351145036
249,-0.05810546875,-0.26953125,0.99462890625,-131.22137404580153,-8.870229007633588,21.893129770992367
250,-0.05419921875,-0.32568359375,0.961181640625,-84.01526717557252,-2.8091603053435112,19.557251908396946
251,-0.0380859375,-0.4970703125,0.98095703125,-31.984732824427482,0.22900763358778625,35.17557251908397
252,-0.022216796875,-0.351806640625,1.009765625,-14.427480916030534,10.412213740458014,36.18320610687023
253,-0.060302734375,-0.390869140625,0.983154296875,5.740458015267175,8.580152671755725,42.12213740458015
254,-0.0849609375,-0.37939453125,0.98193359375,12.80916030534351,7.877862595419847,57.93893129770992
255,-0.144287109375,-0.477294921875,0.934814453125,8.778625954198473,-23.587786259541986,161.74045801526717
256,0.465576171875,-0.21875,1.051025390625,-207.3740458015267,14.717557251908397,218.41221374045801
257,-0.25244140625,-0.1806640625,0.922607421875,-176.6412213740458,15.145038167938932,198.61068702290078
258,-0.369140625,-0.562744140625,0.84326171875,-112.97709923664122,-3.786259541984733,190.68702290076337
259,-0.331298828125,-0.43359375,0.898681640625,-69.2824427480916,-1.9694656488549618,163.8320610687023
260,-0.3017578125,-0.3388671875,0.9521484375,-48.0763358778626,-2.3053435114503817,123.00763358778626
261,-0.170654296875,-0.310546875,0.98486328125,-61.19083969465649,1.618320610687023,81.46564885496183
262,-0.201904296875,-0.34521484375,0.966552734375,-65.7557251908397,0.33587786259541985,58.045801526717554
263,-0.23876953125,-0.3271484375,0.93115234375,-43.908396946564885,-5.893129770992366,53.14503816793893
264,-0.2822265625,-0.520751953125,0.90966796875,-24.885496183206108,-6.473282442748092,51.98473282442748
265,-0.306640625,-0.624267578125,0.907470703125,-13.450381679389313,-4.229007633587786,57.25190839694657
266,-0.277099609375,-0.510498046875,0.940673828125,5.404580152671755,-5.206106870229007,56.01526717557252
267,-0.269775390625,-0.45068359375,0.95166015625,17.297709923664122,4.427480916030534,70.93129770992367
268,-0.3095703125,-0.443603515625,0.999755859375,45.81679389312977,-5.32824427480916,112.73282442748092
269,-0.350830078125,-0.546875,0.95654296875,47.83206106870229,-6.442748091603053,131.23664122137404
270,-0.36669921875,-0.57568359375,0.9814453125,47.80152671755725,0.4122137404580153,145.45038167938932
271,-0.3671875,-0.4580078125,0.963134765625,65.66412213740458,-1.099236641221374,156.18320610687022
272,-0.248046875,-0.3115234375,1.017578125,79.93893129770993,-1.0229007633587786,167.63358778625954
273,-0.301513671875,-0.3134765625,1.041259765625,113.2824427480916,8.473282442748092,170.1679389312977
274,-0.2138671875,-0.190673828125,1.00830078125,117.57251908396947,30.33587786259542,114.16793893129771
275,-0.11083984375,0.0322265625,1.14453125,109.46564885496183,79.61832061068702,-33.83206106870229
276,1.279296875,1.868896484375,1.466552734375,33.69465648854962,138.45801526717557,-202.4732824427481
277,-3.603515625,-2.5712890625,0.984619140625,-112.62595419847328,124.2442748091603,90.50381679389314
278,-0.551025390625,-0.467529296875,0.986572265625,-24.18320610687023,95.96946564885496,64.77862595419847
279,-0.132568359375,-0.46875,0.67626953125,-2.16793893129771,51.9236641221374,87.92366412213741
280,-0.67724609375,-0.40234375,0.650634765625,-40.152671755725194,23.770992366412212,120.73282442748092
281,-0.41259765625,-0.442138671875,0.7421875,-78.74809160305344,1.6030534351145038,76.04580152671755
282,-0.37158203125,-0.404541015625,0.91455078125,-76.97709923664122,5.267175572519084,69.69465648854961
283,-0.37548828125,-0.425048828125,0.958740234375,-42.94656488549618,10.412213740458014,60.19847328244275
284,-0.37353515625,-0.4130859375,0.923095703125,-27.557251908396946,15.48091603053435,60.3206106870229
285,-0.372314453125,-0.351318359375,0.916015625,-26.732824427480917,21.083969465648856,88.9618320610687
286,-0.35205078125,-0.347900390625,0.880126953125,-27.786259541984734,24.412213740458014,98.18320610687023
287,-0.399658203125,-0.313232421875,0.889892578125,-37.969465648854964,28.763358778625953,96.6412213740458
288,-0.45068359375,-0.38525390625,0.970458984375,-42.80916030534351,35.63358778625954,97.64885496183206
289,-0.460693359375,-0.355224609375,1.0439453125,-38.38167938931298,57.02290076335878,95.69465648854961
290,-0.403076171875,-0.231689453125,0.989013671875,-56.56488549618321,68.50381679389314,67.43511450381679
291,-0.3515625,-0.254638671875,0.8515625,-64.4885496183206,61.465648854961835,53.83206106870229
292,-0.28662109375,-0.21484375,0.78955078125,-65.52671755725191,55.00763358778626,57.69465648854962
293,-0.304931640625,-0.65234375,0.24853515625,-46.93129770992366,-11.664122137404581,53.80152671755725
294,-0.54345703125,-0.607666015625,0.724609375,-12.213740458015268,-0.48854961832061067,52.717557251908396
295,-0.435791015625,-0.34765625,0.83837890625,-15.007633587786259,2.4885496183206106,61.83206106870229
296,-0.4609375,-0.366943359375,0.81103515625,-36.30534351145038,-3.7099236641221376,76.50381679389314
297,-0.402099609375,-0.41259765625,0.768310546875,-52.30534351145038,-8.16793893129771,101.06870229007633
298,-0.495849609375,-0.533935546875,0.7099609375,-68.30534351145039,-8.15267175572519,104.53435114503817
299,-0.518310546875,-0.59033203125,0.85302734375,-86.3969465648855,-2.1374045801526718,106.50381679389314
300,-0.55419921875,-0.59765625,0.923828125,-67.00763358778626,-2.0,118.35114503816794
301,-0.448486328125,-0.520751953125,0.930908203125,-46.13740458015267,16.580152671755727,140.53435114503816
302,-0.4482421875,-0.553466796875,0.89453125,-54.29007633587786,30.778625954198475,117.96946564885496
303,-0.453857421875,-0.4072265625,0.864013671875,-54.83969465648855,38.70229007633588,109.7557251908397
304,-0.5009765625,-0.416015625,0.93408203125,-43.61832061068702,27.83206106870229,111.64885496183206
305,-0.525634765625,-0.41015625,0.805419921875,-42.412213740458014,28.16793893129771,87.7557251908397
306,-0.523193359375,-0.458740234375,0.688720703125,-39.25190839694657,16.580152671755727,70.2442748091603
307,-0.609375,-0.5439453125,0.7421875,-24.27480916030534,-0.5038167938931297,67.69465648854961
308,-0.596923828125,-0.503662109375,0.76318359375,-16.33587786259542,-4.320610687022901,63.19083969465649
309,-0.579833984375,-0.456787109375,0.8046875,-13.297709923664122,-0.366412213740458,72.21374045801527
310,-0.59033203125,-0.415283203125,0.633544921875,-46.79389312977099,-41.038167938931295,48.74809160305343
311,-0.400634765625,-0.44140625,0.921630859375,-47.32824427480916,-30.83969465648855,24.793893129770993
312,-0.472412109375,-0.317626953125,0.742431640625,-69.40458015267176,-42.3206106870229,-32.85496183206107
313,-0.57080078125,-0.432373046875,0.689697265625,-57.64885496183206,8.80916030534351,-53.57251908396947
314,-0.695068359375,-0.570068359375,0.90087890625,-25.908396946564885,-9.618320610687023,7.7251908396946565
315,-0.98046875,-0.5439453125,0.8212890625,-25.786259541984734,-14.473282442748092,46.717557251908396
316,-0.656494140625,-0.406005859375,0.763427734375,-15.312977099236642,-23.206106870229007,32.30534351145038
317,-0.580078125,-0.373779296875,0.767333984375,-12.778625954198473,-13.297709923664122,27.740458015267176
318,-0.63330078125,-0.386962890625,0.779052734375,-4.366412213740458,-12.259541984732824,25.52671755725191
319,-0.5634765625,-0.388671875,0.75146484375,-2.4885496183206106,-18.763358778625953,18.80916030534351
320,-0.63232421875,-0.51904296875,0.84423828125,-0.0916030534351145,-8.549618320610687,5.526717557251908
321,-0.774658203125,-0.525390625,0.846435546875,-10.198473282442748,-5.770992366412214,38.56488549618321
322,-0.71875,-0.55859375,0.798828125,-2.4885496183206106,-5.893129770992366,37.3587786259542
323,-0.72509765625,-0.519287109375,0.732666015625,-29.84732824427481,22.946564885496183,28.9618320610687
324,-0.8447265625,-0.56640625,0.74072265625,-33.06870229007634,20.68702290076336,43.29770992366412
325,-0.853515625,-0.3447265625,0.770263671875,-0.6564885496183206,3.2977099236641223,43.17557251908397
326,-0.713134765625,-0.27685546875,0.785888671875,-3.5267175572519083,7.801526717557252,35.908396946564885
327,-0.6220703125,-0.257568359375,0.79541015625,-24.580152671755727,12.442748091603054,40.83969465648855
328,-0.676513671875,-0.33544921875,0.783935546875,-41.86259541984733,11.801526717557252,38.70229007633588
329,-0.715087890625,-0.3310546875,0.76953125,-39.16030534351145,18.65648854961832,0.16793893129770993
330,-0.843017578125,-0.26611328125,0.7763671875,-48.396946564885496,15.34351145038168,24.82442748091603
331,-0.80419921875,-0.316650390625,0.7861328125,-52.213740458015266,24.366412213740457,27.83206106870229
332,-0.6953125,-0.411865234375,0.765380859375,-61.267175572519086,18.015267175572518,20.38167938931298
333,-0.806884765625,-0.39208984375,0.729736328125,-59.17557251908397,14.80916030534351,17.17557251908397
334,-0.75048828125,-0.378173828125,0.74169921875,-56.6412213740458,15.19083969465649,10.580152671755725
335,-0.84375,-0.318603515625,0.7685546875,-49.63358778625954,17.87786259541985,-15.98473282442748
336,-0.661865234375,-0.35693359375,0.698974609375,-56.2442748091603,24.27480916030534,-55.00763358778626
337,-0.543212890625,-0.496826171875,0.717041015625,-53.25190839694657,13.435114503816793,-13.572519083969466
338,-0.702392578125,-0.4501953125,0.689208984375,-40.229007633587784,22.244274809160306,-25.206106870229007
339,-0.62890625,-0.50830078125,0.776611328125,-68.33587786259542,7.297709923664122,44.36641221374046
340,-0.6865234375,-0.53564453125,0.756591796875,-99.3587786259542,10.549618320610687,80.76335877862596
341,-0.771728515625,-0.615966796875,0.58154296875,-104.29007633587786,6.977099236641221,88.79389312977099
342,-0.91748046875,-0.640869140625,0.6513671875,-78.79389312977099,3.7709923664122136,71.7557251908397
343,-0.93505859375,-0.5380859375,0.68310546875,-68.6412213740458,-1.1603053435114503,58.732824427480914
344,-0.790771484375,-0.45068359375,0.687744140625,-59.969465648854964,-3.6946564885496183,33.11450381679389
345,-0.89306640625,-0.513671875,0.70166015625,-56.82442748091603,5.221374045801527,-3.1908396946564888
346,-0.8203125,-0.387451171875,0.80322265625,-68.73282442748092,6.900763358778626,-36.13740458015267
347,-0.677734375,-0.27978515625,0.775146484375,-72.54961832061069,5.984732824427481,-70.67175572519083
348,-0.5458984375,-0.436767578125,0.61083984375,26.38167938931298,-34.6412213740458,93.20610687022901
349,-0.364501953125,-0.376953125,0.8095703125,104.99236641221374,-7.129770992366412,107.98473282442748
350,-0.8984375,-0.400146484375,0.902099609375,81.5114503816794,-17.221374045801525,52.61068702290076
351,-0.93212890625,-0.602783203125,0.887939453125,1.4809160305343512,-13.679389312977099,61.86259541984733
352,-0.79541015625,-0.7685546875,0.7626953125,15.694656488549619,-20.38167938931298,87.96946564885496
353,-0.853759765625,-0.572998046875,0.7880859375,20.85496183206107,-27.236641221374047,87.92366412213741
354,-0.8349609375,-0.415771484375,0.80810546875,9.038167938931299,-21.083969465648856,81.87786259541984
355,-0.7900390625,-0.41064453125,0.77197265625,17.801526717557252,-29.541984732824428,85.40458015267176
356,-0.84912109375,-0.434326171875,0.770751953125,27.923664122137403,-34.0,82.74809160305344
357,-0.8896484375,-0.524658203125,0.800048828125,22.50381679389313,-33.06870229007634,75.00763358778626
358,-0.848876953125,-0.4873046875,0.848388671875,6.656488549618321,-34.778625954198475,83.74045801526718
359,-0.703369140625,-0.3564453125,0.7939453125,14.931297709923664,-40.091603053435115,78.30534351145039
360,-0.741943359375,-0.31591796875,0.842041015625,11.16030534351145,-38.458015267175576,73.57251908396947
361,-0.745849609375,-0.367431640625,0.8486328125,-9.099236641221374,-31.64885496183206,61.74045801526717
362,-0.6318359375,-0.282470703125,0.7041015625,27.374045801526716,-34.0,95.32824427480917
363,-0.324462890625,-0.2216796875,0.8671875,-1.3740458015267176,-30.946564885496183,74.80916030534351
364,-0.61474609375,-0.383544921875,0.819091796875,-28.763358778625953,-20.717557251908396,69.83206106870229
365,-0.763427734375,-0.423828125,0.805908203125,-41.6793893129771,-19.267175572519083,59.25190839694657
366,-0.744140625,-0.35546875,0.78759765625,-37.343511450381676,-13.557251908396946,54.13740458015267
367,-0.775146484375,-0.386962890625,0.739013671875,-25.282442748091604,-17.984732824427482,60.88549618320611
368,-0.83056640625,-0.4326171875,0.738525390625,-9.389312977099237,-23.31297709923664,68.7175572519084
369,-0.775146484375,-0.42919921875,0.761962890625,-7.526717557251908,-24.564885496183205,67.95419847328245
370,-0.7177734375,-0.309326171875,0.78173828125,-15.251908396946565,-25.801526717557252,64.42748091603053
371,-0.693115234375,-0.284423828125,0.78955078125,-24.763358778625953,-24.12213740458015,61.52671755725191
372,-0.693115234375,-0.30029296875,0.701904296875,-13.801526717557252,-33.083969465648856,66.91603053435115
373,-0.734130859375,-0.31640625,0.747314453125,18.35114503816794,-37.00763358778626,71.26717557251908
374,-0.688232421875,-0.291748046875,0.750244140625,15.786259541984732,-35.969465648854964,75.96946564885496
375,-0.761474609375,-0.266845703125,0.7509765625,-6.656488549618321,-31.893129770992367,63.587786259541986
376,-0.854736328125,-0.2490234375,0.734619140625,-34.458015267175576,-47.343511450381676,53.63358778625954
377,-0.607177734375,-0.47998046875,0.779052734375,-42.12213740458015,-28.27480916030534,23.709923664122137
378,-0.74609375,-0.38134765625,0.784912109375,-46.091603053435115,-25.938931297709924,22.412213740458014
379,-0.77197265625,-0.35595703125,0.7783203125,-54.18320610687023,-27.083969465648856,25.755725190839694
380,-0.77880859375,-0.36767578125,0.774658203125,-55.98473282442748,-23.633587786259543,31.96946564885496
381,-0.755859375,-0.431396484375,0.758056640625,-53.7557251908397,-24.366412213740457,38.030534351145036
382,-0.731689453125,-0.37109375,0.74169921875,-49.23664122137404,-26.85496183206107,42.50381679389313
383,-0.690673828125,-0.369384765625,0.769287109375,-44.030534351145036,-26.442748091603054,40.30534351145038
384,-0.74951171875,-0.359375,0.763427734375,-40.76335877862596,-26.213740458015266,38.229007633587784
385,-0.664306640625,-0.3623046875,0.78515625,-52.18320610687023,-24.076335877862597,34.80916030534351
386,-0.70068359375,-0.32080078125,0.779052734375,-66.93129770992367,-22.748091603053435,26.519083969465647
387,-0.747802734375,-0.42138671875,0.81103515625,-59.725190839694655,-25.328244274809162,28.18320610687023
388,-0.768798828125,-0.423095703125,0.760986328125,-41.099236641221374,-29.49618320610687,33.786259541984734
389,-0.72705078125,-0.4208984375,0.782470703125,-30.916030534351144,-31.770992366412212,34.274809160305345
390,-0.72607421875,-0.42431640625,0.780029296875,-26.53435114503817,-28.671755725190838,36.99236641221374
391,-0.726318359375,-0.4638671875,0.796630859375,-22.33587786259542,-10.534351145038167,40.10687022900763
392,-0.7001953125,-0.3974609375,0.744384765625,10.732824427480915,-33.038167938931295,54.79389312977099
393,-0.77685546875,-0.54150390625,0.8154296875,0.5648854961832062,-32.58015267175573,52.732824427480914
394,-0.625732421875,-0.537109375,0.8173828125,-10.83969465648855,-29.00763358778626,43.83206106870229
395,-0.673828125,-0.485595703125,0.804931640625,-9.84732824427481,-28.38167938931298,41.63358778625954
396,-0.667724609375,-0.431640625,0.753173828125,-8.732824427480915,-29.557251908396946,42.16793893129771
397,-0.67236328125,-0.396484375,0.8095703125,-8.076335877862595,-30.3206106870229,41.64885496183206
398,-0.66455078125,-0.400146484375,0.824951171875,-9.236641221374045,-31.572519083969464,40.58015267175573
399,-0.67236328125,-0.428466796875,0.8115234375,-10.305343511450381,-33.83206106870229,39.20610687022901
400,-0.69140625,-0.44921875,0.82373046875,-7.877862595419847,-34.44274809160305,38.80916030534351
401,-0.718017578125,-0.456787109375,0.81689453125,-10.854961832061068,-36.83969465648855,37.9236641221374
402,-0.724365234375,-0.46142578125,0.825439453125,-12.870229007633588,-41.57251908396947,35.14503816793893
403,-0.7255859375,-0.4599609375,0.84423828125,-21.206106870229007,-41.83206106870229,34.961832061068705
404,-0.698486328125,-0.482421875,0.863037109375,-18.549618320610687,-43.05343511450382,18.870229007633586
405,-0.6708984375,-0.450439453125,0.8134765625,-19.770992366412212,-42.01526717557252,12.900763358778626
406,-0.658203125,-0.472900390625,0.869384765625,-18.458015267175572,-42.80916030534351,12.717557251908397
407,-0.691650390625,-0.46630859375,0.880859375,-11.740458015267176,-43.267175572519086,0.48854961832061067
408,-0.79931640625,-0.311279296875,0.888427734375,-15.16030534351145,-47.786259541984734,-125.81679389312977
409,-0.896728515625,-0.773681640625,0.874755859375,-18.80916030534351,-52.51908396946565,-37.02290076335878
410,-0.97021484375,-0.623046875,0.814208984375,-13.770992366412214,-48.396946564885496,9.603053435114504
411,-0.82666015625,-0.24853515625,0.995361328125,-3.9389312977099236,-43.969465648854964,36.79389312977099
412,-0.469970703125,-0.677001953125,1.083251953125,-31.61832061068702,-48.656488549618324,12.580152671755725
413,-0.3212890625,-0.723876953125,1.010498046875,-20.045801526717558,-44.045801526717554,2.351145038167939
414,-1.0888671875,-0.355224609375,0.94091796875,11.145038167938932,-57.48091603053435,-77.66412213740458
415,-0.656982421875,-0.782958984375,0.977294921875,10.580152671755725,-56.47328244274809,-24.244274809160306
416,-0.5400390625,-0.786865234375,1.024658203125,7.694656488549619,-47.64885496183206,-4.656488549618321
417,-0.56689453125,-0.5380859375,0.997314453125,-11.251908396946565,-35.80152671755725,-8.595419847328245
418,-0.4794921875,-0.69580078125,1.005615234375,5.251908396946565,-28.977099236641223,0.030534351145038167
419,-0.47412109375,-0.81396484375,0.985595703125,8.748091603053435,-21.34351145038168,20.412213740458014
420,-0.51708984375,-0.733642578125,0.988037109375,25.0381679389313,-14.427480916030534,32.13740458015267
421,-0.489501953125,-0.749755859375,0.94091796875,33.32824427480916,-10.717557251908397,34.0
422,-0.438720703125,-0.701416015625,0.95361328125,35.32824427480916,-4.702290076335878,31.6793893129771
423,-0.52197265625,-0.594482421875,0.949462890625,36.58015267175573,-5.32824427480916,30.916030534351144
424,-0.5830078125,-0.60400390625,0.933837890625,37.32824427480916,-6.824427480916031,31.374045801526716
425,-0.581787109375,-0.56640625,0.9052734375,36.229007633587784,-10.381679389312977,22.870229007633586
426,-0.563232421875,-0.58056640625,0.891357421875,34.36641221374046,-13.32824427480916,27.17557251908397
427,-0.56396484375,-0.572021484375,0.9306640625,32.595419847328245,-15.526717557251908,30.580152671755727
428,-0.54833984375,-0.625,0.880859375,35.16030534351145,-18.595419847328245,30.85496183206107
429,-0.55322265625,-0.561767578125,0.85595703125,29.786259541984734,-21.17557251908397,30.748091603053435
430,-0.533935546875,-0.514404296875,0.837646484375,25.755725190839694,-23.709923664122137,25.87786259541985
431,-0.492431640625,-0.536865234375,0.842041015625,24.625954198473284,-25.0381679389313,22.3206106870229
432,-0.4580078125,-0.49853515625,0.8173828125,19.587786259541986,-25.358778625954198,16.99236641221374
433,-0.44091796875,-0.43994140625,0.836669921875,8.030534351145038,-27.16030534351145,15.923664122137405
434,-0.342041015625,-0.38232421875,0.793212890625,-1.6488549618320612,-26.885496183206108,8.793893129770993
435,-0.2333984375,-0.7919921875,0.841064453125,-134.29007633587787,-13.526717557251908,18.778625954198475
436,-0.58544921875,-0.6474609375,0.720947265625,-27.206106870229007,-13.19083969465649,64.06106870229007
437,-0.0068359375,-0.364990234375,0.814697265625,6.6106870229007635,-22.610687022900763,28.015267175572518
438,-0.214111328125,-0.327880859375,0.886474609375,-6.198473282442748,-8.458015267175572,13.083969465648854
439,-0.487548828125,-0.5302734375,0.783447265625,-38.93129770992366,-9.801526717557252,34.94656488549618
440,-0.509033203125,-0.561279296875,0.870849609375,-29.938931297709924,-16.763358778625953,33.83206106870229
441,-0.464599609375,-0.5361328125,0.762451171875,3.404580152671756,-21.14503816793893,37.267175572519086
442,-0.423583984375,-0.45703125,0.727294921875,12.854961832061068,-21.52671755725191,26.061068702290076
443,-0.44384765625,-1.090087890625,0.6640625,62.94656488549618,-39.603053435114504,28.53435114503817
444,-0.335693359375,-0.112548828125,0.79736328125,85.43511450381679,-20.16793893129771,30.549618320610687
445,-0.202880859375,-0.415771484375,0.781494140625,49.41984732824427,-15.053435114503817,18.3206106870229
446,-0.455810546875,-0.553466796875,0.7900390625,16.885496183206108,-16.916030534351144,16.85496183206107
447,-0.326171875,-0.595703125,0.735595703125,41.98473282442748,-23.099236641221374,12.351145038167939
448,-0.40673828125,-0.531982421875,0.8125,41.43511450381679,-17.206106870229007,9.221374045801527
449,-0.421630859375,-0.52392578125,0.82373046875,37.41984732824427,-17.46564885496183,10.13740458015267
450,-0.411865234375,-0.554931640625,0.8056640625,36.213740458015266,-14.229007633587786,13.49618320610687
451,-0.37353515625,-0.5068359375,0.834716796875,26.12213740458015,-8.51908396946565,20.625954198473284
452,-0.432373046875,-0.5517578125,0.833740234375,16.396946564885496,-10.992366412213741,24.870229007633586
453,-0.42138671875,-0.536376953125,0.84423828125,-1.450381679389313,-4.854961832061068,34.030534351145036
454,-0.42041015625,-0.601318359375,0.866943359375,14.916030534351146,-10.900763358778626,39.12977099236641
455,-0.406005859375,-0.583740234375,0.873291015625,4.183206106870229,-10.977099236641221,33.37404580152672
456,-0.414306640625,-0.566162109375,0.914794921875,-21.022900763358777,-19.480916030534353,19.862595419847327
457,-0.531005859375,-0.379638671875,1.197265625,-104.35114503816794,7.206106870229007,-23.69465648854962
458,-0.47314453125,-0.64990234375,0.63427734375,-25.206106870229007,-16.18320610687023,-12.320610687022901
459,-0.408935546875,-0.67138671875,0.677734375,63.55725190839695,-28.870229007633586,1.2671755725190839
460,-0.48095703125,-0.4833984375,0.868408203125,71.23664122137404,-26.213740458015266,-26.366412213740457
461,-0.46337890625,-0.412109375,0.777587890625,104.91603053435115,-30.793893129770993,-42.6412213740458
462,-0.375244140625,-0.411865234375,0.9111328125,101.22137404580153,-23.053435114503817,-40.534351145038165
463,-0.29296875,-0.423095703125,0.85302734375,128.04580152671755,-21.61832061068702,-67.72519083969466
464,-0.273193359375,-0.4287109375,0.98388671875,146.5648854961832,-11.267175572519085,-103.87786259541984
465,-0.25244140625,-0.326904296875,0.997314453125,188.10687022900763,-4.793893129770993,-85.19083969465649
466,-0.4189453125,-0.259521484375,1.1494140625,311.9389312977099,27.770992366412212,-88.01526717557252
467,-0.466796875,-0.126708984375,1.256103515625,470.9465648854962,51.541984732824424,-145.72519083969465
468,0.020263671875,-0.06982421875,1.001708984375,500.25954198473283,-9.816793893129772,-252.4732824427481
469,0.342529296875,-0.271484375,0.705322265625,500.25954198473283,-93.32824427480917,-285.8320610687023
470,0.20263671875,-0.296630859375,0.72216796875,428.42748091603056,-93.45038167938931,-252.793893129771
471,-0.098876953125,-0.23486328125,0.918701171875,258.58015267175574,-72.82442748091603,-236.06106870229007
472,-0.3720703125,-0.33251953125,0.97265625,148.85496183206106,-51.9236641221374,-215.78625954198472
473,-0.94921875,-0.435302734375,1.004150390625,130.36641221374046,-60.80916030534351,-91.54198473282443
474,-0.874267578125,-0.462890625,0.965576171875,158.1679389312977,-52.3206106870229,-28.717557251908396
475,-0.921630859375,-0.36328125,0.902587890625,128.7175572519084,-3.83206106870229,37.038167938931295
476,-0.880615234375,-0.3994140625,0.7890625,96.36641221374046,16.045801526717558,103.20610687022901
477,-0.671630859375,-0.307373046875,0.7138671875,42.70229007633588,35.05343511450382,125.22137404580153
478,-0.349853515625,-0.097900390625,0.7314453125,-26.717557251908396,34.44274809160305,98.54961832061069
479,-0.178466796875,0.13525390625,0.755615234375,-80.13740458015268,27.786259541984734,56.900763358778626
480,-0.087158203125,0.3095703125,0.92578125,-97.93893129770993,16.9618320610687,19.19083969465649
481,-0.070556640625,0.116455078125,0.94287109375,-76.22900763358778,7.236641221374046,-10.183206106870228
482,-0.265869140625,-0.082275390625,1.040283203125,-29.709923664122137,0.44274809160305345,-10.091603053435115
483,-0.31787109375,-0.180908203125,1.079345703125,16.99236641221374,2.030534351145038,0.7633587786259542
484,-0.423828125,-0.1748046875,1.052734375,64.41221374045801,10.213740458015268,22.33587786259542
485,-0.3916015625,-0.126708984375,1.0166015625,91.41984732824427,15.664122137404581,34.900763358778626
486,-0.321533203125,-0.04736328125,0.9453125,101.2824427480916,23.740458015267176,33.11450381679389
487,-0.2705078125,0.036865234375,0.9033203125,92.87022900763358,23.450381679389313,23.938931297709924
488,-0.267822265625,0.0927734375,0.8740234375,70.04580152671755,23.52671755725191,14.030534351145038
489,-0.295654296875,0.096923828125,0.813232421875,45.038167938931295,24.900763358778626,7.251908396946565
490,-0.33544921875,0.06640625,0.8935546875,23.801526717557252,27.96946564885496,4.030534351145038
491,-0.359130859375,0.02880859375,0.92822265625,18.671755725190838,31.87786259541985,13.572519083969466
492,-0.367431640625,0.034423828125,0.937255859375,24.80916030534351,35.603053435114504,17.236641221374047
493,-0.349853515625,0.062255859375,0.952392578125,31.786259541984734,36.38167938931298,19.419847328244273
494,-0.34326171875,0.087646484375,0.9990234375,44.229007633587784,36.56488549618321,16.137404580152673
495,-0.349853515625,0.091796875,0.913330078125,48.2442748091603,34.38167938931298,11.954198473282442
496,-0.364013671875,0.096435546875,0.903076171875,46.93129770992366,29.740458015267176,9.465648854961833
497,-0.381103515625,0.114013671875,0.903076171875,42.152671755725194,28.580152671755727,7.816793893129771
498,-0.402099609375,0.14208984375,0.902099609375,25.83206106870229,31.34351145038168,6.320610687022901
499,-0.456787109375,0.146240234375,0.909423828125,15.038167938931299,32.33587786259542,6.748091603053435
500,-0.443359375,0.1220703125,0.896484375,0.3511450381679389,30.870229007633586,10.732824427480915
501,-0.54248046875,0.092041015625,0.8974609375,-6.320610687022901,29.022900763358777,15.435114503816793
502,-0.544921875,0.059326171875,0.878173828125,-6.763358778625954,27.435114503816795,19.954198473282442
503,-0.529296875,0.042724609375,0.933837890625,1.5877862595419847,23.862595419847327,23.083969465648856
504,-0.50048828125,0.039306640625,0.87158203125,8.854961832061068,18.65648854961832,23.66412213740458
505,-0.470947265625,0.04052734375,0.849609375,16.366412213740457,12.748091603053435,23.00763358778626
506,-0.452392578125,0.0537109375,0.845703125,23.66412213740458,10.778625954198473,22.0
507,-0.4482421875,0.068115234375,0.825927734375,30.748091603053435,8.854961832061068,23.435114503816795
508,-0.44921875,0.082763671875,0.869384765625,29.770992366412212,6.290076335877862,17.938931297709924
509,-0.445068359375,0.105224609375,0.7509765625,26.900763358778626,3.9236641221374047,16.931297709923665
510,-0.42919921875,0.119873046875,0.872802734375,22.610687022900763,0.13740458015267176,15.389312977099237
511,-0.423095703125,0.142822265625,0.81884765625,18.946564885496183,5.786259541984733,14.290076335877863
512,-0.427734375,0.165771484375,0.83154296875,5.129770992366412,9.145038167938932,12.106870229007633
513,-0.43701171875,0.171875,0.8203125,-2.6717557251908395,12.244274809160306,9.404580152671755
514,-0.45166015625,0.15087890625,0.82958984375,-10.091603053435115,13.969465648854962,7.526717557251908
515,-0.47607421875,0.11572265625,0.83251953125,-15.297709923664122,14.061068702290076,5.374045801526718
516,-0.4873046875,0.090087890625,0.847412109375,-19.083969465648856,15.282442748091603,3.7251908396946565
517,-0.493408203125,0.073486328125,0.85888671875,-13.877862595419847,15.83206106870229,3.480916030534351
518,-0.5185546875,0.0517578125,0.85791015625,-5.404580152671755,14.030534351145038,4.977099236641221
519,-0.5166015625,0.028564453125,0.865234375,0.8854961832061069,12.916030534351146,7.740458015267175
520,-0.50390625,0.01904296875,0.873779296875,2.7480916030534353,14.442748091603054,9.541984732824428
521,-0.505615234375,0.0205078125,0.8740234375,3.66412213740458,19.52671755725191,11.435114503816793
522,-0.5146484375,0.033935546875,0.865234375,5.129770992366412,14.534351145038167,11.206106870229007
523,-0.506103515625,0.045166015625,0.869873046875,5.801526717557252,12.274809160305344,10.65648854961832
524,-0.509765625,0.0498046875,0.881103515625,3.099236641221374,11.32824427480916,9.679389312977099
525,-0.526611328125,0.06689453125,0.817138671875,1.7709923664122138,11.17557251908397,10.610687022900763
526,-0.536865234375,0.0849609375,0.87109375,6.5038167938931295,11.236641221374045,11.358778625954198
527,-0.521728515625,0.092529296875,0.85546875,12.366412213740459,10.259541984732824,11.038167938931299
528,-0.517578125,0.0771484375,0.836669921875,16.198473282442748,7.419847328244275,10.778625954198473
529,-0.56201171875,0.087646484375,0.81494140625,17.83206106870229,4.3816793893129775,10.16793893129771
530,-0.491455078125,0.0703125,0.808349609375,13.633587786259541,3.0839694656488548,9.572519083969466
531,-0.4814453125,0.077880859375,0.812255859375,5.480916030534351,3.114503816793893,8.183206106870228
532,-0.488525390625,0.083740234375,0.823974609375,-5.435114503816794,6.396946564885496,7.969465648854962
533,-0.500244140625,0.0771484375,0.8408203125,-10.67175572519084,8.488549618320612,9.312977099236642
534,-0.519775390625,0.070068359375,0.83984375,-10.687022900763358,9.435114503816793,11.19083969465649
535,-0.526611328125,0.075439453125,0.83837890625,-4.488549618320611,10.13740458015267,12.15267175572519
536,-0.519287109375,0.081298828125,0.84228515625,0.5190839694656488,11.145038167938932,10.793893129770993
537,-0.51611328125,0.091552734375,0.831298828125,12.305343511450381,10.198473282442748,6.473282442748092
538,-0.510986328125,0.09716796875,0.81982421875,16.427480916030536,11.465648854961833,1.099236641221374
539,-0.515869140625,0.11767578125,0.8212890625,20.259541984732824,7.374045801526718,-2.900763358778626
540,-0.523681640625,0.134765625,0.81640625,23.893129770992367,-0.3053435114503817,-5.938931297709924
541,-0.55029296875,0.141357421875,0.794677734375,26.18320610687023,-2.732824427480916,-5.862595419847328
542,-0.560546875,0.134521484375,0.781494140625,27.221374045801525,-4.183206106870229,-4.183206106870229
543,-0.560546875,0.1337890625,0.7734375,26.916030534351144,-5.709923664122138,-0.8854961832061069
544,-0.5439453125,0.12744140625,0.768310546875,24.396946564885496,-7.099236641221374,2.8091603053435112
545,-0.521484375,0.115478515625,0.76708984375,22.9618320610687,-5.648854961832061,5.6183206106870225
546,-0.522216796875,0.131591796875,0.764404296875,15.022900763358779,-1.5114503816793894,6.99236641221374
547,-0.515380859375,0.156494140625,0.810302734375,8.320610687022901,2.1068702290076335,8.183206106870228
548,-0.5205078125,0.161865234375,0.747314453125,7.297709923664122,3.66412213740458,6.977099236641221
549,-0.5166015625,0.16748046875,0.739013671875,7.450381679389313,2.9923664122137406,3.969465648854962
550,-0.51171875,0.16943359375,0.764404296875,-2.366412213740458,3.66412213740458,0.0
551,-0.511962890625,0.177978515625,0.7802734375,-5.267175572519084,5.633587786259542,-3.5419847328244276
552,-0.530029296875,0.181396484375,0.791748046875,-4.519083969465649,7.694656488549619,-6.061068702290076
553,-0.5478515625,0.1767578125,0.80322265625,-2.9923664122137406,6.488549618320611,-7.633587786259542
554,-0.55810546875,0.17529296875,0.807861328125,-0.8854961832061069,7.190839694656488,-8.687022900763358
555,-0.56884765625,0.247314453125,0.80029296875,3.053435114503817,6.213740458015267,-8.259541984732824
556,-0.569580078125,0.179443359375,0.8046875,6.351145038167939,3.954198473282443,-8.351145038167939
557,-0.561767578125,0.161865234375,0.796630859375,5.221374045801527,1.083969465648855,-9.038167938931299
558,-0.555908203125,0.1552734375,0.800537109375,0.366412213740458,-2.6259541984732824,-8.458015267175572
559,-0.550537109375,0.164306640625,0.8134765625,-6.977099236641221,-4.793893129770993,-6.717557251908397
560,-0.55419921875,0.156005859375,0.82666015625,-12.045801526717558,-4.916030534351145,-4.122137404580153
561,-0.559326171875,0.160888671875,0.833984375,-22.38167938931298,-3.5267175572519083,-1.4809160305343512
562,-0.55859375,0.15966796875,0.857421875,-26.80916030534351,-1.099236641221374,1.1755725190839694
563,-0.539306640625,0.154296875,0.874755859375,-29.557251908396946,1.5877862595419847,1.251908396946565
564,-0.52587890625,0.15478515625,0.89111328125,-25.709923664122137,4.732824427480916,-1.8625954198473282
565,-0.52490234375,0.16845703125,0.896484375,-15.954198473282442,8.16793893129771,-6.763358778625954
566,-0.53857421875,0.1611328125,0.9130859375,-6.106870229007634,8.381679389312977,-7.893129770992366
567,-0.547119140625,0.153564453125,0.91748046875,4.977099236641221,8.458015267175572,-15.34351145038168
568,-0.559326171875,0.15576171875,0.927001953125,13.511450381679388,9.083969465648854,-17.87786259541985
569,-0.571533203125,0.15771484375,0.9306640625,18.35114503816794,10.778625954198473,-19.801526717557252
570,-0.583251953125,0.1806640625,0.911376953125,24.549618320610687,10.595419847328245,-18.27480916030534
571,-0.604736328125,0.175537109375,0.9052734375,27.801526717557252,7.038167938931298,-15.16030534351145
572,-0.59716796875,0.167724609375,0.89306640625,35.603053435114504,3.5877862595419847,-10.80916030534351
573,-0.587890625,0.1494140625,0.886962890625,35.83206106870229,2.5343511450381677,-7.0534351145038165
574,-0.56787109375,0.144775390625,0.934326171875,26.15267175572519,18.48854961832061,8.625954198473282
575,-0.86181640625,-0.21044921875,0.574951171875,-101.14503816793894,53.51145038167939,78.09160305343511
576,-1.02197265625,0.01953125,0.5947265625,-191.05343511450383,-39.786259541984734,83.6793893129771
577,-0.24853515625,0.45263671875,0.93896484375,-236.51908396946564,-2.045801526717557,88.16793893129771
578,-0.525390625,0.09130859375,0.989990234375,-216.15267175572518,-7.251908396946565,118.94656488549619
579,-0.6337890625,-0.26318359375,0.55615234375,-296.03053435114504,-83.6030534351145,119.14503816793894
580,-0.555419921875,0.164794921875,1.20556640625,-350.1679389312977,-34.19847328244275,92.74809160305344
581,-0.592529296875,-0.0390625,0.913818359375,-363.48091603053433,-37.81679389312977,69.52671755725191
582,-0.563720703125,-0.0263671875,0.974609375,-371.14503816793894,-78.97709923664122,30.778625954198475
583,-0.575439453125,-0.233642578125,1.07421875,-370.9770992366412,-90.65648854961832,5.801526717557252
584,-0.596923828125,-0.44970703125,1.007080078125,-324.67175572519085,-68.10687022900764,11.84732824427481
585,-0.566162109375,-0.408203125,1.125732421875,-290.8854961832061,-73.58778625954199,9.603053435114504
586,-0.556884765625,-0.484130859375,1.10400390625,-261.9389312977099,-68.73282442748092,5.175572519083969
587,-0.393798828125,-0.526611328125,1.046875,-236.06106870229007,-53.16030534351145,5.480916030534351
588,-0.419921875,-0.5458984375,1.0283203125,-216.15267175572518,-46.30534351145038,9.511450381679388
589,-0.45458984375,-0.525390625,1.00146484375,-172.5801526717557,-35.83206106870229,12.717557251908397
590,-0.432861328125,-0.519775390625,0.95947265625,-116.22900763358778,-26.702290076335878,16.595419847328245
591,-0.492431640625,-0.582763671875,0.94873046875,-89.90839694656489,-5.267175572519084,19.282442748091604
592,-0.36376953125,-0.666259765625,0.966796875,-95.20610687022901,1.0229007633587786,7.6183206106870225
593,-0.34326171875,-0.548583984375,0.9912109375,-97.22137404580153,-2.3206106870229006,8.274809160305344
594,-0.34326171875,-0.61376953125,0.99658203125,-78.3969465648855,2.687022900763359,22.30534351145038
595,-0.43798828125,-0.596435546875,0.9755859375,-62.732824427480914,14.351145038167939,21.755725190839694
596,-0.394287109375,-0.555908203125,0.878173828125,-62.534351145038165,12.290076335877863,29.480916030534353
597,-0.400634765625,-0.50244140625,0.931396484375,-64.3206106870229,9.938931297709924,29.862595419847327
598,-0.423583984375,-0.513671875,0.92919921875,-60.2442748091603,9.648854961832061,82.30534351145039
599,-0.15185546875,-0.48095703125,0.84228515625,-51.41984732824427,4.1679389312977095,55.31297709923664
600,-0.415283203125,-0.50244140625,0.870849609375,-43.89312977099237,5.465648854961832,49.98473282442748
601,-0.31298828125,-0.50341796875,0.862060546875,-46.56488549618321,5.893129770992366,52.82442748091603
602,-0.322509765625,-0.466552734375,0.843994140625,-57.20610687022901,1.3282442748091603,58.35114503816794
603,-0.3251953125,-0.488525390625,0.858642578125,-62.01526717557252,3.5267175572519083,61.587786259541986
604,-0.253173828125,-0.4560546875,0.800537109375,-65.63358778625954,-1.5267175572519085,67.2824427480916
605,-0.339111328125,-0.60498046875,0.7529296875,-57.221374045801525,7.9541984732824424,70.82442748091603
606,-0.4375,-0.616455078125,0.830078125,-43.19083969465649,14.946564885496183,68.47328244274809
607,-0.422607421875,-0.58642578125,0.822998046875,-31.19083969465649,8.213740458015268,73.96946564885496
608,-0.36279296875,-0.613037109375,0.83447265625,-10.16793893129771,19.83206106870229,69.19083969465649
609,-0.36962890625,-0.683349609375,0.817626953125,-5.251908396946565,25.282442748091604,72.80916030534351
610,-0.325439453125,-0.656982421875,0.82080078125,1.099236641221374,27.83206106870229,65.19083969465649
611,-0.379638671875,-0.62109375,0.81689453125,3.9236641221374047,28.671755725190838,58.67175572519084
612,-0.364990234375,-0.5546875,0.822998046875,6.229007633587786,31.236641221374047,69.8473282442748
613,-0.266845703125,-0.507568359375,0.806396484375,12.992366412213741,33.05343511450382,73.37404580152672
614,-0.3720703125,-0.572509765625,0.76123046875,23.49618320610687,40.47328244274809,67.90839694656489
615,-0.4140625,-0.593994140625,0.699951171875,32.900763358778626,43.786259541984734,62.74809160305343
616,-0.48095703125,-0.579345703125,0.78955078125,32.3206106870229,51.86259541984733,49.908396946564885
617,-0.301513671875,-0.437744140625,0.868408203125,38.732824427480914,54.458015267175576,45.954198473282446
618,-0.406982421875,-0.446044921875,0.807373046875,32.656488549618324,84.04580152671755,54.50381679389313
619,-0.258056640625,-0.4619140625,0.78369140625,4.244274809160306,61.25190839694657,111.3587786259542
620,-0.608154296875,-0.667236328125,0.695556640625,-17.6793893129771,56.76335877862596,124.47328244274809
621,-0.671630859375,-0.664794921875,0.83154296875,-44.74809160305343,67.89312977099236,122.41221374045801
622,-0.4638671875,-0.66455078125,0.8203125,-38.091603053435115,55.43511450381679,120.19847328244275
623,-0.504638671875,-0.746826171875,0.8369140625,-25.267175572519083,56.18320610687023,99.54198473282443
624,-0.644287109375,-0.70849609375,0.876220703125,-53.05343511450382,59.87786259541985,79.72519083969466
625,-0.582275390625,-0.556396484375,0.870361328125,-76.59541984732824,59.770992366412216,75.1145038167939
626,-0.4873046875,-0.486328125,0.766845703125,-67.54198473282443,56.3206106870229,74.07633587786259
627,-0.52734375,-0.52197265625,0.755859375,-50.61068702290076,53.29770992366412,64.0
628,-0.453857421875,-0.475341796875,0.796875,-45.31297709923664,54.458015267175576,61.11450381679389
629,-0.43603515625,-0.408203125,0.780029296875,-47.66412213740458,55.282442748091604,75.58778625954199
630,-0.548095703125,-0.496337890625,0.736083984375,-63.786259541984734,56.396946564885496,75.64885496183206
631,-0.65185546875,-0.54296875,0.76708984375,-81.74045801526718,62.79389312977099,75.93893129770993
632,-0.605224609375,-0.546630859375,0.75146484375,-90.90076335877863,68.07633587786259,77.54198473282443
633,-0.668212890625,-0.58935546875,0.692626953125,-108.12213740458016,70.8854961832061,60.2442748091603
634,-0.710693359375,-0.525146484375,0.76904296875,-108.22900763358778,70.36641221374046,54.091603053435115
635,-0.655517578125,-0.4912109375,0.725341796875,-112.87022900763358,62.67175572519084,39.343511450381676
636,-0.678955078125,-0.509521484375,0.648681640625,-116.01526717557252,53.221374045801525,29.221374045801525
637,-0.7236328125,-0.533203125,0.667236328125,-111.98473282442748,47.969465648854964,20.946564885496183
638,-0.7158203125,-0.538330078125,0.653564453125,-113.14503816793894,38.51908396946565,15.389312977099237
639,-0.702880859375,-0.514404296875,0.626708984375,-101.09923664122137,21.740458015267176,5.419847328244275
640,-0.75,-0.498291015625,0.575439453125,-85.48091603053435,15.587786259541986,0.5801526717557252
641,-0.6533203125,-0.453369140625,0.676025390625,-67.6793893129771,9.893129770992367,8.427480916030534
642,-0.60693359375,-0.50048828125,0.722900390625,-74.10687022900764,4.198473282442748,9.740458015267176
643,-0.66259765625,-0.54345703125,0.6357421875,-62.80916030534351,5.282442748091603,9.633587786259541
644,-0.7373046875,-0.4892578125,0.66748046875,-76.12213740458016,2.946564885496183,11.022900763358779
645,-0.633056640625,-0.5859375,0.677978515625,-76.56488549618321,-1.1603053435114503,4.198473282442748
646,-0.5517578125,-0.400634765625,0.664306640625,-56.38167938931298,11.145038167938932,-12.488549618320612
647,-0.6826171875,-0.468505859375,0.739013671875,-62.70229007633588,-17.00763358778626,-4.305343511450381
648,-0.629150390625,-0.511962890625,0.716796875,-67.34351145038168,-24.85496183206107,0.32061068702290074
649,-0.717041015625,-0.618408203125,0.6357421875,-63.89312977099237,-27.61832061068702,0.6259541984732825
650,-0.800048828125,-0.65478515625,0.573486328125,-64.9618320610687,-24.977099236641223,-4.473282442748092
651,-0.84716796875,-0.686767578125,0.584716796875,-61.14503816793893,-48.87022900763359,1.0229007633587786
652,-0.865478515625,-0.684814453125,0.596435546875,-34.25954198473283,-61.52671755725191,3.068702290076336
653,-0.6865234375,-0.621826171875,0.728759765625,-46.3206106870229,-70.59541984732824,66.4885496183206
654,-0.34912109375,-0.508056640625,0.7138671875,-97.06870229007633,-114.13740458015268,154.3053435114504
655,-0.6708984375,-0.678955078125,0.4951171875,-115.83206106870229,-172.83969465648855,220.59541984732823
656,-1.06982421875,-0.797119140625,0.637451171875,-44.412213740458014,-120.54961832061069,218.6412213740458
657,-0.901123046875,-0.78173828125,0.760009765625,-86.07633587786259,-59.66412213740458,187.31297709923663
658,-0.748291015625,-0.794921875,0.677978515625,-127.16030534351145,-39.51145038167939,150.77862595419847
659,-0.71240234375,-0.83251953125,0.677734375,-124.9618320610687,-48.30534351145038,117.7557251908397
660,-0.778076171875,-0.81689453125,0.607421875,-118.2442748091603,-50.045801526717554,85.66412213740458
661,-0.762939453125,-0.76318359375,0.63818359375,-118.9618320610687,-40.961832061068705,60.274809160305345
662,-0.728759765625,-0.727294921875,0.643798828125,-119.52671755725191,-33.541984732824424,36.79389312977099
663,-0.6279296875,-0.7275390625,0.634765625,-119.32824427480917,-21.66412213740458,12.717557251908397
664,-0.6455078125,-0.667236328125,0.640625,-124.61068702290076,-19.19083969465649,4.549618320610687
665,-0.66357421875,-0.66943359375,0.64453125,-128.25954198473283,-9.129770992366412,0.48854961832061067
666,-0.688720703125,-0.653564453125,0.61767578125,-136.53435114503816,-20.778625954198475,43.954198473282446
667,-0.49365234375,-0.8115234375,0.573974609375,-124.3969465648855,-51.89312977099237,93.6030534351145
668,-0.72412109375,-0.83642578125,0.50244140625,-115.57251908396947,-54.83969465648855,92.79389312977099
669,-0.806396484375,-0.832763671875,0.545166015625,-117.89312977099236,-52.19847328244275,83.17557251908397
670,-0.7294921875,-0.76708984375,0.558349609375,-125.09923664122137,-45.770992366412216,73.78625954198473
671,-0.7099609375,-0.68896484375,0.54248046875,-125.48091603053435,-45.06870229007634,64.44274809160305
672,-0.616943359375,-0.7861328125,0.48486328125,-132.65648854961833,-59.83206106870229,87.86259541984732
673,-0.571044921875,-0.89208984375,0.473876953125,-138.6259541984733,-54.091603053435115,92.33587786259542
674,-0.713134765625,-0.86962890625,0.474853515625,-155.206106870229,-44.67175572519084,80.18320610687023
675,-0.701171875,-0.730224609375,0.42626953125,-161.49618320610688,-35.343511450381676,63.786259541984734
676,-0.624755859375,-0.8212890625,0.483642578125,-171.5267175572519,-12.534351145038167,48.48854961832061
677,-0.6689453125,-0.73681640625,0.526611328125,-181.78625954198472,0.3816793893129771,18.106870229007633
678,-0.722412109375,-0.856689453125,0.42724609375,-180.41221374045801,13.419847328244275,-4.122137404580153
679,-0.8388671875,-0.8330078125,0.322021484375,-177.40458015267177,17.206106870229007,-20.916030534351144
680,-0.87353515625,-0.94140625,0.279052734375,-172.9618320610687,20.65648854961832,-32.76335877862596
681,-0.861328125,-0.921142578125,0.338134765625,-169.26717557251908,24.519083969465647,-46.717557251908396
682,-0.85107421875,-0.913330078125,0.259033203125,-186.12213740458014,27.34351145038168,-54.87022900763359
683,-0.947998046875,-0.9521484375,0.17236328125,-178.54961832061068,26.916030534351144,-81.05343511450381
684,-1.003173828125,-0.96142578125,-0.0244140625,-83.02290076335878,11.022900763358779,-105.09923664122137
685,-1.028564453125,-1.007568359375,-0.205078125,107.19083969465649,-58.99236641221374,-79.61832061068702
686,-0.8857421875,-1.36279296875,0.199462890625,63.25190839694657,-115.06870229007633,-39.465648854961835
687,-0.61865234375,-0.99072265625,0.437744140625,-153.84732824427482,-10.549618320610687,-18.641221374045802
688,-0.72021484375,-1.02197265625,0.186767578125,-161.9236641221374,-0.9465648854961832,-20.412213740458014
689,-0.7509765625,-1.050537109375,0.11865234375,-135.06870229007635,-21.053435114503817,-20.03053435114504
690,-0.871337890625,-1.07275390625,0.1484375,-136.9618320610687,-29.14503816793893,-18.27480916030534
691,-0.861083984375,-1.1796875,0.068115234375,-129.3740458015267,-43.465648854961835,-14.259541984732824
692,-0.88330078125,-1.0966796875,0.069091796875,-110.01526717557252,-65.14503816793894,-14.702290076335878
693,-0.851318359375,-1.058837890625,0.171630859375,-115.38931297709924,-65.95419847328245,-6.396946564885496
694,-0.763427734375,-0.970703125,0.169677734375,-117.96946564885496,-64.22900763358778,2.6412213740458017
695,-0.792724609375,-0.9619140625,0.1923828125,-97.74045801526718,-89.14503816793894,-2.885496183206107
696,-0.768310546875,-0.929931640625,0.195068359375,-88.3206106870229,-104.47328244274809,-18.885496183206108
697,-0.824462890625,-0.77197265625,0.1435546875,-75.29770992366412,-128.83969465648855,-34.396946564885496
698,-0.788818359375,-0.814208984375,0.149169921875,-67.64885496183206,-141.5267175572519,-44.18320610687023
699,-0.772705078125,-0.8134765625,0.12060546875,-79.7557251908397,-139.74045801526717,-47.221374045801525
700,-0.861083984375,-0.8955078125,0.092529296875,-99.40458015267176,-131.3587786259542,-41.66412213740458
701,-0.8642578125,-0.96044921875,0.04833984375,-119.48091603053435,-98.25954198473282,-29.480916030534353
702,-0.907958984375,-1.029541015625,0.026123046875,-134.87022900763358,-69.49618320610686,-22.85496183206107
703,-0.88134765625,-1.016845703125,0.01708984375,-158.42748091603053,-34.152671755725194,-12.580152671755725
704,-0.833740234375,-0.9794921875,0.02001953125,-160.3053435114504,-21.84732824427481,-1.3740458015267176
705,-0.757080078125,-0.984619140625,0.012939453125,-163.46564885496184,-16.137404580152673,11.679389312977099
706,-0.83447265625,-1.01171875,0.010986328125,-162.3053435114504,-25.572519083969464,24.213740458015266
707,-0.83544921875,-0.965576171875,-0.06201171875,-161.6030534351145,-21.068702290076335,32.56488549618321
708,-0.797119140625,-0.93896484375,-0.009765625,-166.15267175572518,-15.267175572519085,36.12213740458015
709,-0.75634765625,-0.88720703125,-0.001953125,-167.12977099236642,-22.045801526717558,31.557251908396946
710,-0.7705078125,-0.873779296875,-0.011474609375,-162.65648854961833,-27.633587786259543,28.458015267175572
711,-0.71875,-0.902587890625,-0.011962890625,-162.36641221374046,-28.83969465648855,23.480916030534353
712,-0.677001953125,-0.962158203125,-0.0244140625,-170.54961832061068,-22.458015267175572,13.526717557251908
713,-0.679931640625,-0.963134765625,-0.04052734375,-168.4732824427481,-20.900763358778626,4.625954198473282
714,-0.673583984375,-0.953125,-0.046630859375,-161.12977099236642,-30.091603053435115,-0.3816793893129771
715,-0.739501953125,-0.929443359375,-0.06494140625,-157.4198473282443,-34.25954198473283,-8.244274809160306
716,-0.693115234375,-0.91162109375,-0.08544921875,-158.4885496183206,-28.717557251908396,-13.389312977099237
717,-0.675537109375,-0.92138671875,-0.10400390625,-165.1908396946565,-27.14503816793893,-21.46564885496183
718,-0.71875,-0.989501953125,-0.13671875,-170.793893129771,-14.67175572519084,-27.603053435114504
719,-0.74169921875,-1.007080078125,-0.137939453125,-178.793893129771,-15.312977099236642,-29.374045801526716
720,-0.698974609375,-1.04443359375,-0.069580078125,-170.93129770992365,-18.778625954198475,-29.435114503816795
721,-0.66748046875,-1.02587890625,-0.204345703125,-138.6259541984733,-33.3587786259542,-15.312977099236642
722,-0.613037109375,-1.03369140625,-0.214599609375,-112.3206106870229,-33.404580152671755,1.6488549618320612
723,-0.638671875,-1.00830078125,-0.132568359375,-120.85496183206106,-27.6793893129771,8.763358778625955
724,-0.599609375,-1.0107421875,-0.17529296875,-116.38167938931298,-34.06106870229008,4.916030534351145
725,-0.60205078125,-1.00390625,-0.167236328125,-110.85496183206106,-36.12213740458015,2.6412213740458017
726,-0.630126953125,-1.01611328125,-0.155029296875,-120.38167938931298,-29.389312977099237,0.5038167938931297
727,-0.6767578125,-1.029296875,-0.1650390625,-140.38167938931298,-8.870229007633588,5.709923664122138
728,-0.69970703125,-1.0146484375,-0.239501953125,-169.70992366412213,19.572519083969464,13.648854961832061
729,-0.69873046875,-1.005126953125,-0.163330078125,-186.50381679389312,21.862595419847327,9.022900763358779
730,-0.670654296875,-1.113037109375,-0.19384765625,-181.6030534351145,9.770992366412214,7.068702290076335
731,-0.632080078125,-1.029296875,-0.212890625,-164.3969465648855,0.9770992366412213,2.3053435114503817
732,-0.633544921875,-0.922119140625,-0.236572265625,-155.78625954198472,-0.32061068702290074,-8.351145038167939
733,-0.61865234375,-0.91943359375,-0.24462890625,-155.57251908396947,5.175572519083969,-21.17557251908397
734,-0.514404296875,-0.968505859375,-0.203369140625,-153.08396946564886,6.259541984732825,-22.625954198473284
735,-0.57421875,-1.052734375,-0.3095703125,-127.57251908396947,-10.229007633587786,-22.763358778625953
736,-0.6953125,-1.0751953125,-0.332275390625,-90.62595419847328,-22.53435114503817,-14.412213740458014
737,-0.708984375,-1.099853515625,-0.29345703125,-71.69465648854961,-27.923664122137403,-8.50381679389313
738,-0.705322265625,-1.115966796875,-0.290771484375,-65.8473282442748,-28.778625954198475,-0.9770992366412213
739,-0.708251953125,-1.078125,-0.2802734375,-80.29007633587786,-9.022900763358779,1.2061068702290076
740,-0.672119140625,-1.117919921875,-0.3427734375,-108.18320610687023,5.541984732824427,0.5954198473282443
741,-0.612548828125,-0.9951171875,-0.5283203125,-72.59541984732824,0.5648854961832062,-20.68702290076336
742,-0.619873046875,-1.087890625,-0.3154296875,-79.46564885496183,11.251908396946565,-5.984732824427481
743,-0.68359375,-1.1025390625,-0.35302734375,-59.83206106870229,7.374045801526718,-3.984732824427481
744,-0.600341796875,-1.0732421875,-0.37890625,-50.56488549618321,-2.6412213740458017,-12.946564885496183
745,-0.589111328125,-1.030029296875,-0.39404296875,-49.847328244274806,-3.816793893129771,-21.16030534351145
746,-0.604736328125,-0.993896484375,-0.42041015625,-54.274809160305345,-2.7786259541984735,-29.328244274809162
747,-0.626953125,-0.989990234375,-0.4638671875,-60.54961832061068,-4.732824427480916,-35.29770992366412
748,-0.663330078125,-1.003662109375,-0.505859375,-66.79389312977099,-18.595419847328245,-40.274809160305345
749,-0.635986328125,-1.060546875,-0.539794921875,-70.73282442748092,-19.389312977099237,-41.80152671755725
750,-0.71728515625,-0.947509765625,-0.616943359375,-64.06106870229007,-13.114503816793894,-41.267175572519086
751,-0.8076171875,-1.148681640625,-0.568359375,-53.908396946564885,-18.717557251908396,-41.02290076335878
752,-0.673828125,-1.13037109375,-0.6201171875,-37.80152671755725,-23.435114503816795,-44.42748091603053
753,-0.603271484375,-1.06396484375,-0.57080078125,-32.87022900763359,-31.068702290076335,-51.587786259541986
754,-0.51904296875,-1.099853515625,-1.124755859375,115.61832061068702,-100.54961832061069,-84.80916030534351
755,-0.462646484375,-1.01171875,-0.5166015625,66.09160305343511,-60.01526717557252,-78.93129770992367
756,-0.5830078125,-1.3037109375,-0.553466796875,-10.702290076335878,-31.954198473282442,-81.66412213740458
757,-0.643310546875,-1.17529296875,-0.66796875,11.099236641221374,-36.900763358778626,-92.01526717557252
758,-0.703125,-1.1279296875,-0.653076171875,18.427480916030536,-41.847328244274806,-96.50381679389314
759,-0.72802734375,-1.168212890625,-0.6376953125,14.412213740458014,-27.954198473282442,-96.99236641221374
760,-0.749267578125,-1.05224609375,-0.64306640625,26.595419847328245,-41.29770992366412,-102.62595419847328
761,-0.77392578125,-1.085205078125,-0.679443359375,20.80916030534351,-40.229007633587784,-104.97709923664122
762,-0.7060546875,-1.019775390625,-0.598388671875,-6.809160305343512,-51.29770992366412,-86.41221374045801
763,-0.628173828125,-0.925537109375,-0.540771484375,7.251908396946565,-40.06106870229008,-103.09923664122137
764,-0.62939453125,-0.999755859375,-0.599609375,-26.885496183206108,-65.63358778625954,-103.40458015267176
765,-0.632568359375,-0.910400390625,-0.504150390625,-18.778625954198475,-70.99236641221374,-113.45038167938931
766,-0.6396484375,-0.8701171875,-0.4560546875,6.702290076335878,-71.23664122137404,-124.12213740458016
767,-0.602783203125,-0.935302734375,-0.461181640625,30.47328244274809,-99.19083969465649,-131.57251908396947
768,-0.418701171875,-0.847900390625,-0.34619140625,87.6030534351145,-100.91603053435115,-146.77862595419847
769,-0.512939453125,-0.95556640625,-0.467529296875,46.74809160305343,-90.73282442748092,-148.5801526717557
770,-0.5166015625,-1.17578125,-0.56005859375,165.74045801526717,-50.93129770992366,-140.44274809160305
771,-0.46337890625,-1.05810546875,-0.427490234375,210.59541984732823,-51.38931297709924,-157.17557251908397
772,-0.51416015625,-1.171875,-0.62353515625,198.4885496183206,-91.90839694656489,-144.35114503816794
773,-0.5927734375,-1.160888671875,-0.52001953125,152.6412213740458,-103.89312977099236,-114.06106870229007
774,-0.745849609375,-1.17333984375,-0.453125,113.66412213740458,-95.58778625954199,-92.33587786259542
775,-0.54443359375,-1.102294921875,-0.9990234375,46.6412213740458,-43.93893129770992,-66.01526717557252
776,-0.451171875,-1.123046875,-1.27197265625,-238.2290076335878,7.740458015267175,-84.76335877862596
777,-0.616455078125,-1.39501953125,-0.14404296875,-269.08396946564886,-71.77099236641222,-85.69465648854961
778,-0.521728515625,-1.2275390625,0.22607421875,-32.36641221374046,-41.61832061068702,-38.091603053435115
779,-0.453125,-1.164306640625,-0.103759765625,90.38167938931298,-16.396946564885496,-4.244274809160306
780,-0.498046875,-1.085693359375,-0.457275390625,85.09923664122137,-12.091603053435115,-4.259541984732825
781,-0.43505859375,-1.038330078125,-0.420166015625,53.41984732824427,-13.877862595419847,-4.519083969465649
782,-0.465576171875,-1.050537109375,-0.327392578125,38.916030534351144,-6.183206106870229,6.2748091603053435
783,-0.518798828125,-1.055908203125,-0.287109375,65.96946564885496,20.778625954198475,19.419847328244273
784,-0.472412109375,-1.04052734375,-0.560546875,15.877862595419847,33.19083969465649,23.34351145038168
785,-0.4658203125,-0.970703125,-0.400390625,-1.5267175572519085,20.564885496183205,26.366412213740457
786,-0.47119140625,-0.980224609375,-0.362548828125,30.595419847328245,13.099236641221374,21.16030534351145
787,-0.42529296875,-0.96875,-0.889892578125,-166.10687022900763,-9.221374045801527,0.732824427480916
788,-0.484130859375,-0.8935546875,-0.401611328125,-152.0,-14.412213740458014,-2.8702290076335877
789,-0.376220703125,-0.991943359375,-0.4072265625,-124.42748091603053,-6.8396946564885495,1.5114503816793894
790,-0.424072265625,-0.969482421875,-0.456787109375,-118.44274809160305,-11.297709923664122,-9.572519083969466
791,-0.413818359375,-0.954833984375,-0.51318359375,-108.3969465648855,-8.045801526717558,-17.923664122137403
792,-0.41845703125,-0.994384765625,-0.47119140625,-101.74045801526718,-13.16030534351145,-25.374045801526716
793,-0.42626953125,-1.042236328125,-0.55126953125,-94.51908396946565,-10.458015267175572,-27.541984732824428
794,-0.449951171875,-1.042236328125,-0.51611328125,-96.30534351145039,-9.358778625954198,-30.885496183206108
795,-0.5087890625,-1.110107421875,-0.527099609375,-63.74045801526717,-8.732824427480915,-28.885496183206108
796,-0.44189453125,-1.0810546875,-0.531005859375,-46.534351145038165,-13.404580152671755,-35.603053435114504
797,-0.419921875,-1.0625,-0.59619140625,-43.786259541984734,-9.16030534351145,-39.49618320610687
798,-0.463623046875,-1.066162109375,-0.593017578125,-48.70229007633588,-11.404580152671755,-38.778625954198475
799,-0.45263671875,-1.04345703125,-0.585693359375,-54.229007633587784,-9.32824427480916,-44.36641221374046
800,-0.378662109375,-1.01123046875,-0.571533203125,-42.54961832061068,-12.778625954198473,-46.85496183206107
801,-0.451416015625,-1.0595703125,-0.613037109375,-6.198473282442748,-14.061068702290076,-41.725190839694655
802,-0.448486328125,-1.041259765625,-0.591552734375,24.717557251908396,-13.84732824427481,-36.42748091603053
803,-0.38232421875,-1.0703125,-0.6005859375,47.083969465648856,5.847328244274809,-34.36641221374046
804,-0.349853515625,-1.12890625,-0.59228515625,34.732824427480914,26.259541984732824,-33.05343511450382
805,-0.324951171875,-1.1142578125,-0.59130859375,34.61068702290076,36.33587786259542,-33.69465648854962
806,-0.27294921875,-1.099609375,-0.61865234375,68.10687022900764,36.19847328244275,-43.541984732824424
807,-0.248779296875,-1.05029296875,-0.5849609375,83.00763358778626,28.778625954198475,-66.1526717557252
808,-0.217529296875,-1.03173828125,-0.555419921875,91.72519083969466,27.129770992366414,-65.93893129770993
809,-0.1845703125,-1.024169921875,-0.52783203125,117.00763358778626,39.038167938931295,-69.16030534351145
810,-0.138671875,-0.97607421875,-0.48388671875,125.54198473282443,25.81679389312977,-61.25190839694657
811,-0.15576171875,-0.9404296875,-0.465087890625,147.3587786259542,13.083969465648854,-53.3587786259542
812,-0.232177734375,-1.00732421875,-0.45703125,154.3969465648855,9.145038167938932,-65.2824427480916
813,-0.27197265625,-1.111083984375,-0.461669921875,137.0381679389313,15.755725190839694,-95.96946564885496
814,-0.27734375,-1.04541015625,-0.399169921875,109.87786259541984,32.030534351145036,-111.09923664122137
815,-0.15673828125,-0.98828125,-0.4189453125,122.74809160305344,21.17557251908397,-75.8473282442748
816,-0.147216796875,-1.046875,-0.388916015625,146.4732824427481,16.9618320610687,-74.93129770992367
817,-0.207763671875,-1.09423828125,-0.33056640625,131.54198473282443,20.47328244274809,-54.274809160305345
818,-0.067138671875,-1.006103515625,-0.338623046875,134.4732824427481,12.748091603053435,-41.45038167938932
819,-0.107177734375,-0.943359375,-0.34716796875,130.8854961832061,9.526717557251908,-40.58015267175573
820,-0.11474609375,-1.037353515625,-0.29638671875,128.61068702290078,6.1679389312977095,-54.82442748091603
821,-0.022705078125,-0.9853515625,-0.290771484375,106.91603053435115,0.3511450381679389,-37.52671755725191
822,-0.1396484375,-1.0537109375,-0.283935546875,90.74809160305344,-11.435114503816793,-27.81679389312977
823,-0.24072265625,-1.157958984375,-0.31982421875,70.30534351145039,-13.038167938931299,-44.900763358778626
824,-0.163818359375,-1.247802734375,-0.3134765625,41.98473282442748,-10.83969465648855,-61.63358778625954
825,-0.146484375,-1.1669921875,-0.278076171875,54.62595419847328,-2.3053435114503817,-66.70229007633588
826,-0.143798828125,-1.189697265625,-0.2919921875,89.14503816793894,-9.251908396946565,-60.030534351145036
827,-0.03662109375,-1.176025390625,-0.27001953125,112.12213740458016,-6.977099236641221,-50.47328244274809
828,-0.0224609375,-1.16064453125,-0.266357421875,123.26717557251908,-7.068702290076335,-58.13740458015267
829,-0.083251953125,-1.0986328125,-0.28857421875,140.5648854961832,-3.648854961832061,-62.030534351145036
830,-0.122314453125,-1.078125,-0.22412109375,161.6793893129771,-3.66412213740458,-68.18320610687023
831,-0.129150390625,-1.137939453125,-0.128662109375,174.54961832061068,5.801526717557252,-67.06870229007633
832,-0.125,-1.1298828125,-0.176513671875,180.85496183206106,16.213740458015266,-0.8702290076335878
833,-0.527587890625,-1.28857421875,-0.082763671875,166.93129770992365,45.70992366412214,-7.66412213740458
834,-0.128662109375,-1.21826171875,-0.128173828125,164.0,45.43511450381679,-37.404580152671755
835,-0.208984375,-1.130126953125,0.062255859375,160.76335877862596,19.435114503816795,-78.38167938931298
836,-0.137451171875,-0.979248046875,0.311279296875,96.91603053435115,-4.015267175572519,-130.94656488549617
837,-0.248779296875,-0.998291015625,-0.12109375,18.610687022900763,-26.80916030534351,-159.14503816793894
838,-0.16162109375,-1.19873046875,-0.21044921875,46.16793893129771,-10.931297709923664,-175.6793893129771
839,-0.1806640625,-1.320556640625,-0.237060546875,67.78625954198473,15.465648854961833,-114.74809160305344
840,-0.380859375,-1.414794921875,-0.28564453125,29.87786259541985,0.9923664122137404,-65.5114503816794
841,-0.102783203125,-1.419921875,-0.072509765625,39.6793893129771,-7.709923664122138,-47.587786259541986
842,0.160888671875,-0.9716796875,-0.1787109375,43.37404580152672,-13.801526717557252,-68.0
843,0.297119140625,-1.00244140625,-0.09912109375,74.54961832061069,-24.3206106870229,-90.3206106870229
844,0.2568359375,-0.91943359375,-0.028564453125,90.79389312977099,-38.6412213740458,-125.81679389312977
845,0.03466796875,-1.015380859375,-0.049072265625,95.46564885496183,-41.603053435114504,-112.10687022900764
846,-0.01953125,-1.12353515625,-0.03564453125,80.07633587786259,-41.12977099236641,-77.32824427480917
847,-0.03466796875,-1.041015625,-0.05517578125,54.85496183206107,-46.656488549618324,-74.73282442748092
848,0.008544921875,-1.1123046875,0.003173828125,28.045801526717558,-52.44274809160305,-139.6793893129771
849,0.161865234375,-1.014892578125,-0.02734375,-8.0,-55.66412213740458,-227.08396946564886
850,0.033447265625,-1.089599609375,0.01806640625,-33.02290076335878,-115.66412213740458,16.290076335877863
851,-1.34033203125,-1.775146484375,0.199462890625,-86.91603053435115,-26.793893129770993,234.42748091603053
852,-0.1318359375,-1.111083984375,-0.142333984375,-83.38931297709924,-81.38931297709924,97.31297709923665
853,0.62890625,-0.598388671875,0.060546875,-85.29770992366412,-50.67175572519084,-78.6412213740458
854,0.458740234375,-0.7939453125,-0.029052734375,-60.62595419847328,-38.94656488549618,-66.77862595419847
855,0.008056640625,-0.88818359375,-0.840087890625,-90.09160305343511,-235.12977099236642,-105.80152671755725
856,0.083984375,-1.202880859375,-0.14501953125,-111.6030534351145,-239.66412213740458,-73.80152671755725
857,-0.123779296875,-1.3349609375,-0.172607421875,-98.2442748091603,-190.5648854961832,-2.2442748091603053
858,-0.115966796875,-1.246337890625,-0.377685546875,-139.57251908396947,-246.04580152671755,37.05343511450382
859,-0.06005859375,-1.328857421875,-0.501953125,-228.38167938931298,-237.64885496183206,50.67175572519084
860,0.01513671875,-1.2998046875,-0.345703125,-200.42748091603053,-290.21374045801525,19.709923664122137
861,0.25927734375,-0.957275390625,-0.253173828125,231.00763358778627,-79.22137404580153,181.12977099236642
862,1.1357421875,-2.55517578125,-1.772705078125,500.25954198473283,434.6106870229008,462.3358778625954
863,-1.408935546875,1.65380859375,0.671875,-351.69465648854964,-82.87022900763358,37.770992366412216
864,-0.07861328125,-0.7900390625,-0.034912109375,-24.30534351145038,-66.44274809160305,27.541984732824428
865,0.101806640625,-1.2041015625,0.028076171875,-41.14503816793893,-72.70229007633588,13.083969465648854
866,-0.130126953125,-1.31689453125,-0.057373046875,-25.603053435114504,-70.2442748091603,30.442748091603054
867,-0.21142578125,-1.216064453125,-0.1865234375,-22.946564885496183,-80.36641221374046,28.610687022900763
868,-0.56103515625,-1.180419921875,-0.162353515625,-21.083969465648856,-85.81679389312977,25.221374045801525
869,-0.53466796875,-1.2841796875,-0.14404296875,-14.992366412213741,-88.13740458015268,38.97709923664122
870,-0.3115234375,-1.18896484375,-0.11083984375,-1.816793893129771,-90.8854961832061,46.534351145038165
871,-0.233642578125,-1.22802734375,-0.11083984375,7.465648854961832,-86.4885496183206,47.23664122137404
872,-0.20458984375,-1.146484375,-0.068603515625,0.0916030534351145,-84.53435114503817,46.80916030534351
873,-0.265869140625,-1.12744140625,-0.028564453125,6.641221374045801,-63.66412213740458,46.97709923664122
874,-0.143798828125,-1.163818359375,0.029052734375,14.442748091603054,-55.786259541984734,54.48854961832061
875,-0.02734375,-0.9619140625,0.01708984375,16.198473282442748,-48.54961832061068,37.55725190839695
876,-0.01171875,-0.922607421875,0.006103515625,15.893129770992367,-45.20610687022901,32.030534351145036
877,0.054931640625,-0.9912109375,0.037353515625,19.603053435114504,-40.656488549618324,34.12213740458015
878,-0.024658203125,-1.095947265625,-0.0107421875,28.3206106870229,-37.267175572519086,37.49618320610687
879,-0.154052734375,-1.1904296875,-0.037109375,14.091603053435115,-40.152671755725194,39.725190839694655
880,-0.129638671875,-1.152099609375,0.020751953125,10.549618320610687,-42.35114503816794,41.23664122137404
881,-0.10595703125,-1.1171875,0.05517578125,10.427480916030534,-43.66412213740458,0.549618320610687
882,0.145751953125,-1.37841796875,-0.39306640625,-265.8320610687023,-162.5801526717557,-6.824427480916031
883,-0.302978515625,-0.777587890625,0.2890625,-75.6793893129771,-73.96946564885496,5.908396946564886
884,0.032958984375,-0.87548828125,-0.03466796875,-39.29770992366412,-71.37404580152672,5.770992366412214
885,-0.068603515625,-1.122802734375,-0.10546875,-73.55725190839695,-93.43511450381679,0.5038167938931297
886,-0.067626953125,-1.087158203125,-0.0126953125,-84.25954198473282,-99.83206106870229,-5.206106870229007
887,-0.07958984375,-1.06494140625,-0.03759765625,-70.38167938931298,-96.8854961832061,-6.290076335877862
888,-0.09423828125,-1.256591796875,-0.0380859375,-52.99236641221374,-90.4885496183206,2.5801526717557253
889,-0.110595703125,-1.250244140625,-0.03857421875,-42.01526717557252,-72.53435114503817,-4.519083969465649
890,0.006103515625,-1.225830078125,-0.0087890625,-18.458015267175572,-54.25954198473283,-7.847328244274809
891,-0.0498046875,-1.24853515625,-0.084716796875,26.12213740458015,-31.099236641221374,-6.458015267175573
892,-0.055419921875,-1.276123046875,-0.079345703125,85.32824427480917,27.221374045801525,49.31297709923664
893,-0.260498046875,-1.286376953125,-0.080078125,89.96946564885496,23.52671755725191,47.465648854961835
894,0.065185546875,-1.140380859375,-0.028564453125,79.43511450381679,10.305343511450381,40.0
895,0.121826171875,-1.032470703125,-0.087158203125,37.51145038167939,4.015267175572519,8.076335877862595
896,-0.210693359375,-1.320556640625,-0.016845703125,37.465648854961835,11.633587786259541,-21.31297709923664
897,0.081298828125,-1.12109375,-0.073486328125,-24.442748091603054,-4.076335877862595,-10.305343511450381
898,0.094970703125,-1.122314453125,0.014892578125,-71.38931297709924,-18.18320610687023,40.01526717557252
899,0.199951171875,-1.365478515625,-0.239013671875,-77.54198473282443,-14.305343511450381,99.5114503816794
900,-0.06298828125,-1.47802734375,-0.177001953125,-61.954198473282446,-9.358778625954198,87.74045801526718
901,-0.302001953125,-1.082275390625,-0.174072265625,-7.343511450381679,-7.190839694656488,26.793893129770993
902,-0.228515625,-0.98388671875,-0.244873046875,48.16793893129771,-4.717557251908397,9.541984732824428
903,-0.150634765625,-1.041259765625,-0.1259765625,56.97709923664122,-0.6717557251908397,0.7175572519083969
904,-0.148193359375,-1.07763671875,-0.0966796875,52.030534351145036,-3.5419847328244276,-6.305343511450381
905,-0.1318359375,-1.09912109375,-0.10546875,56.30534351145038,-3.2213740458015265,-3.1755725190839694
906,-0.16259765625,-1.085205078125,-0.0966796875,51.267175572519086,-6.198473282442748,-2.6412213740458017
907,-0.168701171875,-1.095947265625,-0.0830078125,77.58778625954199,-4.793893129770993,4.152671755725191
908,-0.1044921875,-1.091796875,-0.0244140625,102.18320610687023,2.9160305343511452,10.213740458015268
909,-0.135498046875,-1.04736328125,-0.00537109375,114.35114503816794,6.152671755725191,4.473282442748092
910,-0.00048828125,-1.114013671875,-0.146240234375,117.66412213740458,6.748091603053435,-5.557251908396947
911,-0.322509765625,-1.12890625,-0.12451171875,118.97709923664122,-6.6106870229007635,-8.198473282442748
912,-0.366943359375,-1.128173828125,-0.072998046875,100.65648854961832,-10.793893129770993,5.740458015267175
913,-0.270263671875,-1.03662109375,-0.0185546875,57.603053435114504,-18.82442748091603,-18.83969465648855
914,-0.130859375,-1.086181640625,-0.043212890625,41.587786259541986,-23.328244274809162,-20.198473282442748
915,-0.271484375,-1.197509765625,0.000244140625,28.48854961832061,-20.946564885496183,-15.923664122137405
916,-0.2392578125,-1.154296875,0.030029296875,34.76335877862596,-17.893129770992367,-11.114503816793894
917,-0.24072265625,-1.07373046875,0.06787109375,51.19083969465649,-12.0,-10.595419847328245
918,-0.260986328125,-1.032470703125,0.07470703125,89.8473282442748,-0.9312977099236641,-16.442748091603054
919,-0.14013671875,-0.96240234375,-0.020263671875,22.580152671755727,-6.687022900763359,-28.458015267175572
920,-0.130859375,-1.03564453125,0.072509765625,27.801526717557252,-5.816793893129771,-19.96946564885496
921,-0.19677734375,-1.2216796875,0.12451171875,60.2442748091603,7.526717557251908,-4.0458015267175576
922,-0.096923828125,-1.1015625,-0.027099609375,54.50381679389313,-6.061068702290076,-8.045801526717558
923,-0.16455078125,-0.938720703125,-0.056396484375,12.488549618320612,-24.50381679389313,-26.3206106870229
924,-0.25244140625,-1.01904296875,-0.102294921875,-1.1145038167938932,-50.10687022900763,-20.427480916030536
925,-0.28564453125,-1.245849609375,-0.040283203125,-14.946564885496183,-53.969465648854964,-12.259541984732824
926,-0.22607421875,-1.1611328125,0.01904296875,2.198473282442748,-40.97709923664122,-8.549618320610687
927,-0.16015625,-1.115234375,-0.018310546875,0.16793893129770993,-41.63358778625954,-13.007633587786259
928,-0.18798828125,-1.159423828125,-0.247802734375,-77.69465648854961,-72.61068702290076,-15.282442748091603
929,-0.227294921875,-1.27685546875,-0.135009765625,-170.25954198473283,-123.3587786259542,-12.381679389312977
930,-0.275634765625,-0.963134765625,0.03271484375,-103.23664122137404,-80.67175572519083,-12.732824427480915
931,-0.079345703125,-1.0615234375,-0.061279296875,-66.68702290076335,-64.76335877862596,-13.007633587786259
932,-0.06787109375,-1.137939453125,-0.078125,-101.32824427480917,-72.09160305343511,-12.931297709923664
933,-0.119384765625,-1.13916015625,-0.07080078125,-113.77099236641222,-67.05343511450381,-11.786259541984732
934,-0.156494140625,-1.064453125,-0.097412109375,-99.25190839694656,-54.88549618320611,-14.50381679389313
935,-0.157958984375,-1.20263671875,-0.11572265625,-107.34351145038168,-59.038167938931295,-5.633587786259542
936,-0.207275390625,-1.222412109375,-0.119140625,-145.66412213740458,-77.66412213740458,4.3816793893129775
937,-0.19970703125,-1.266357421875,-0.178466796875,-164.54961832061068,-81.98473282442748,15.603053435114504
938,-0.24267578125,-1.26953125,-0.24072265625,-179.05343511450383,-80.79389312977099,15.648854961832061
939,-0.160400390625,-1.174072265625,-0.22021484375,-184.45801526717557,-78.76335877862596,6.259541984732825
940,-0.321044921875,-1.108642578125,-0.314208984375,-157.72519083969465,-85.14503816793894,-43.908396946564885
941,-0.32470703125,-1.175048828125,-0.36669921875,-96.27480916030534,-66.76335877862596,-33.49618320610687
942,-0.126220703125,-1.1259765625,-0.204345703125,-94.16793893129771,-65.05343511450381,-27.893129770992367
943,-0.116943359375,-1.14501953125,-0.19482421875,-109.09923664122137,-69.14503816793894,-19.450381679389313
944,-0.164794921875,-1.062744140625,-0.29736328125,-79.77099236641222,-55.70992366412214,-14.198473282442748
945,-0.259033203125,-1.186767578125,-0.37890625,-40.88549618320611,-57.25190839694657,-18.47328244274809
946,-0.31298828125,-1.173095703125,-0.29052734375,-64.42748091603053,-65.96946564885496,-17.297709923664122
947,-0.231201171875,-1.093994140625,-0.323486328125,-80.4885496183206,-68.35114503816794,-22.641221374045802
948,-0.144287109375,-1.052734375,-0.26904296875,-95.20610687022901,-65.14503816793894,-19.480916030534353
949,-0.14404296875,-1.07861328125,-0.3544921875,-80.36641221374046,-56.80916030534351,-25.51145038167939
950,-0.1328125,-1.081298828125,-0.316162109375,-66.38167938931298,-44.33587786259542,-37.14503816793893
951,-0.095947265625,-0.986572265625,-0.285888671875,-57.43511450381679,-32.76335877862596,-46.50381679389313
952,-0.1162109375,-1.03466796875,-0.309326171875,-53.587786259541986,-23.786259541984734,-57.48091603053435
953,-0.2158203125,-1.159423828125,-1.172119140625,220.77862595419847,-39.587786259541986,-39.12977099236641
954,-0.149169921875,-1.148193359375,-0.114990234375,273.69465648854964,-20.15267175572519,-26.778625954198475
955,-0.124755859375,-1.12890625,-0.049072265625,168.61068702290078,-3.9236641221374047,-13.770992366412214
956,-0.072998046875,-1.21435546875,-0.25927734375,95.66412213740458,4.229007633587786,2.1526717557251906
957,-0.03662109375,-1.160400390625,-0.30029296875,125.2824427480916,18.38167938931298,14.183206106870228
958,-0.09765625,-1.10888671875,-0.193359375,116.01526717557252,30.9618320610687,15.099236641221374
959,-0.10302734375,-1.08154296875,-0.17041015625,86.41221374045801,25.770992366412212,13.664122137404581
960,-0.124267578125,-1.102294921875,-0.2470703125,74.79389312977099,23.740458015267176,16.427480916030536
961,-0.11572265625,-1.095703125,-0.21826171875,79.17557251908397,28.595419847328245,11.633587786259541
962,-0.205322265625,-0.991455078125,-0.175048828125,64.01526717557252,13.083969465648854,0.8702290076335878
963,-0.204833984375,-1.08935546875,-0.21875,81.6793893129771,6.305343511450381,4.351145038167939
964,-0.1416015625,-1.11328125,-0.218017578125,91.7557251908397,-0.183206106870229,9.068702290076336
965,-0.091552734375,-1.29150390625,-0.248291015625,109.83206106870229,13.86259541984733,15.022900763358779
966,-0.05908203125,-1.280517578125,-0.17431640625,76.87022900763358,9.801526717557252,9.068702290076336
967,-0.0478515625,-1.42529296875,-0.262451171875,100.47328244274809,35.20610687022901,25.236641221374047
968,-0.0146484375,-1.301513671875,-0.302001953125,74.33587786259542,31.358778625954198,18.65648854961832
969,-0.08154296875,-1.215576171875,-0.214111328125,91.32824427480917,37.20610687022901,11.49618320610687
970,-0.231689453125,-1.11474609375,-0.249267578125,85.32824427480917,38.3206106870229,4.351145038167939
971,-0.34765625,-1.071533203125,-0.1884765625,61.52671755725191,9.022900763358779,-15.877862595419847
972,-0.169921875,-1.174560546875,-0.133056640625,38.80916030534351,14.641221374045802,-21.770992366412212
973,-0.111328125,-1.193359375,-0.147216796875,15.633587786259541,14.229007633587786,-11.84732824427481
974,-0.098388671875,-1.252685546875,-0.154541015625,0.12213740458015267,9.282442748091603,-11.48091603053435
975,-0.033447265625,-1.259033203125,-0.143798828125,-5.603053435114504,16.916030534351144,-6.030534351145038
976,0.0224609375,-1.221435546875,-0.17529296875,6.320610687022901,36.79389312977099,-7.877862595419847
977,-0.023193359375,-1.24658203125,-0.150390625,2.900763358778626,46.36641221374046,-8.854961832061068
978,-0.080322265625,-1.13330078125,-0.1640625,-5.206106870229007,50.091603053435115,-3.6946564885496183
979,-0.1123046875,-1.028564453125,-0.292724609375,-2.5801526717557253,61.725190839694655,-7.206106870229007
980,-0.09326171875,-1.118408203125,-0.145751953125,10.717557251908397,60.01526717557252,-13.145038167938932
981,-0.08349609375,-1.058349609375,-0.155517578125,13.114503816793894,61.83206106870229,-6.198473282442748
982,-0.079833984375,-1.0498046875,-0.19091796875,-9.312977099236642,42.99236641221374,12.870229007633588
983,-0.0771484375,-1.065673828125,-0.16064453125,-9.312977099236642,21.862595419847327,22.702290076335878
984,-0.1083984375,-1.095947265625,-0.244873046875,3.618320610687023,-17.954198473282442,53.43511450381679
985,-0.128662109375,-1.0888671875,-0.184326171875,-32.045801526717554,-2.9770992366412212,79.45038167938931
986,0.07666015625,-0.9697265625,-0.150390625,-43.465648854961835,7.1603053435114505,100.94656488549619
987,0.01318359375,-0.93994140625,-0.18212890625,-52.961832061068705,14.564885496183207,139.23664122137404
988,0.063720703125,-0.98681640625,-0.17919921875,-61.86259541984733,26.045801526717558,182.45801526717557
989,-0.05615234375,-1.08740234375,-0.224853515625,-54.10687022900763,8.01526717557252,142.9618320610687
990,-0.225830078125,-1.240966796875,-0.231201171875,-38.412213740458014,11.526717557251908,141.6030534351145
991,-0.201416015625,-1.2177734375,-0.208984375,-41.954198473282446,-3.1755725190839694,136.01526717557252
992,-0.171142578125,-1.134033203125,-0.199951171875,-47.9236641221374,0.1984732824427481,122.16793893129771
993,-0.166259765625,-1.092529296875,-0.193359375,-80.3969465648855,-15.786259541984732,122.58015267175573
994,-0.19482421875,-0.98486328125,-0.12890625,-88.6412213740458,-25.740458015267176,96.97709923664122
995,-0.37451171875,-0.9775390625,-0.295166015625,-128.50381679389312,-20.900763358778626,130.9770992366412
996,-0.158203125,-1.09912109375,-0.380615234375,-136.74809160305344,-52.732824427480914,136.94656488549617
997,-0.26904296875,-1.11962890625,-0.26953125,-133.6946564885496,-69.69465648854961,116.6412213740458
998,-0.153564453125,-1.1279296875,-0.356201171875,-132.70229007633588,-56.274809160305345,102.22900763358778
999,-0.245849609375,-1.18359375,-0.43115234375,-112.13740458015268,-55.11450381679389,90.36641221374046
1000,-0.27783203125,-1.155029296875,-0.470458984375,-98.35114503816794,-33.51145038167939,80.33587786259542
1001,-0.24267578125,-1.132080078125,-0.4609375,-94.35114503816794,-16.778625954198475,78.25954198473282
1002,-0.177490234375,-1.17431640625,-0.457275390625,-89.45038167938931,-20.946564885496183,69.69465648854961
1003,-0.279541015625,-1.056640625,-0.4423828125,-82.10687022900764,-29.435114503816795,72.91603053435115
1004,-0.34228515625,-1.11767578125,-0.462158203125,-69.48091603053435,-25.00763358778626,62.93129770992366
1005,-0.294189453125,-1.052734375,-0.42919921875,-65.46564885496183,-17.00763358778626,68.16793893129771
1006,-0.355712890625,-1.05810546875,-0.4521484375,-65.87786259541984,-43.267175572519086,80.80916030534351
1007,-0.275390625,-1.039306640625,-0.52587890625,-36.38167938931298,-25.053435114503817,85.2824427480916
1008,-0.326171875,-1.122802734375,-0.552734375,6.885496183206107,-41.55725190839695,82.74809160305344
1009,-0.25732421875,-1.030517578125,-0.479248046875,15.297709923664122,-48.50381679389313,87.17557251908397
1010,-0.420166015625,-1.0439453125,-0.499267578125,18.106870229007633,-35.43511450381679,82.29007633587786
1011,-0.372802734375,-1.04248046875,-0.4501953125,0.13740458015267176,-26.82442748091603,83.20610687022901
1012,-0.244140625,-0.9716796875,-0.359130859375,-15.893129770992367,-50.778625954198475,120.18320610687023
1013,-0.114501953125,-1.116455078125,-0.547119140625,26.18320610687023,-83.5114503816794,155.9236641221374
1014,-0.654541015625,-1.051513671875,-0.552734375,27.541984732824428,-49.7557251908397,155.05343511450383
1015,-0.586669921875,-1.048095703125,-0.44140625,14.335877862595419,-30.198473282442748,146.0916030534351
1016,-0.5322265625,-1.02978515625,-0.440185546875,-1.633587786259542,-7.145038167938932,130.0
1017,-0.4833984375,-0.99853515625,-0.46875,-29.435114503816795,17.52671755725191,106.30534351145039
1018,-0.494873046875,-0.939208984375,-0.4521484375,-53.7557251908397,22.519083969465647,85.0381679389313
1019,-0.479736328125,-0.883056640625,-0.460205078125,-57.89312977099237,20.580152671755727,53.786259541984734
1020,-0.525146484375,-0.88427734375,-0.48291015625,-59.45038167938932,16.580152671755727,60.83969465648855
1021,-0.252685546875,-0.885009765625,-0.52880859375,-53.69465648854962,-19.16030534351145,96.80916030534351
1022,-0.442138671875,-1.02880859375,-0.517333984375,-53.64885496183206,-19.938931297709924,118.41221374045801
1023,-0.467529296875,-1.119873046875,-0.586181640625,-42.595419847328245,-27.49618320610687,146.73282442748092
1024,-0.5830078125,-1.10009765625,-0.550537109375,-37.64885496183206,-8.717557251908397,158.73282442748092
1025,-0.632080078125,-1.09716796875,-0.59765625,-24.732824427480917,12.946564885496183,145.9236641221374
1026,-0.650390625,-1.1611328125,-0.5654296875,-10.229007633587786,21.83206106870229,126.45801526717557
1027,-0.66357421875,-1.114013671875,-0.54833984375,9.83206106870229,10.595419847328245,114.29007633587786
1028,-0.62646484375,-1.01171875,-0.520263671875,21.61832061068702,15.572519083969466,117.19083969465649
1029,-0.589111328125,-0.937744140625,-0.457275390625,29.72519083969466,14.83969465648855,98.27480916030534
1030,-0.583984375,-0.893310546875,-0.548095703125,29.96946564885496,11.297709923664122,76.2442748091603
1031,-0.57958984375,-0.862548828125,-0.48291015625,20.732824427480917,9.129770992366412,42.717557251908396
1032,-0.682373046875,-0.91943359375,-0.47216796875,11.969465648854962,18.106870229007633,13.648854961832061
1033,-0.619873046875,-0.880126953125,-0.452392578125,4.977099236641221,29.923664122137403,-9.526717557251908
1034,-0.604248046875,-0.95458984375,-0.45068359375,-1.4351145038167938,39.954198473282446,-17.893129770992367
1035,-0.59912109375,-0.940185546875,-0.44970703125,-23.61832061068702,54.35114503816794,-17.52671755725191
1036,-0.63720703125,-0.81689453125,-0.51416015625,-58.045801526717554,78.16793893129771,-18.427480916030536
1037,-0.6044921875,-0.887939453125,-0.474853515625,-70.76335877862596,89.72519083969466,-6.2748091603053435
1038,-0.570068359375,-1.012939453125,-0.489013671875,-52.25954198473283,72.68702290076335,12.50381679389313
1039,-0.68115234375,-1.0361328125,-0.517822265625,-39.52671755725191,57.969465648854964,23.84732824427481
1040,-0.73828125,-1.023681640625,-0.548095703125,-15.954198473282442,50.10687022900763,22.091603053435115
1041,-0.75390625,-0.98046875,-0.57373046875,10.366412213740459,27.633587786259543,19.114503816793892
1042,-0.717529296875,-0.90869140625,-0.546142578125,29.587786259541986,17.114503816793892,45.969465648854964
1043,-0.498291015625,-1.002197265625,-0.56396484375,53.908396946564885,-15.541984732824428,74.07633587786259
1044,-0.659423828125,-0.9443359375,-0.550537109375,67.8473282442748,-20.106870229007633,72.91603053435115
1045,-0.708251953125,-0.948974609375,-0.489501953125,65.37404580152672,-12.259541984732824,69.69465648854961
1046,-0.737060546875,-0.95947265625,-0.46337890625,57.98473282442748,-1.5725190839694656,61.37404580152672
1047,-0.71435546875,-0.970947265625,-0.40673828125,48.916030534351144,2.213740458015267,48.36641221374046
1048,-0.708251953125,-0.9677734375,-0.46484375,41.954198473282446,-6.793893129770993,74.13740458015268
1049,-0.60400390625,-0.958740234375,-0.396240234375,52.83969465648855,-24.564885496183205,88.58015267175573
1050,-0.77685546875,-0.93798828125,-0.40966796875,48.29007633587786,-16.48854961832061,28.793893129770993
1051,-0.919189453125,-1.134521484375,-0.419921875,60.458015267175576,-28.48854961832061,66.25954198473282
1052,-1.030029296875,-0.55224609375,-0.350341796875,73.66412213740458,-41.847328244274806,-8.763358778625955
1053,-0.491455078125,-1.20849609375,-0.329833984375,51.93893129770992,-49.31297709923664,32.656488549618324
1054,-0.8896484375,-0.91259765625,-0.31396484375,46.458015267175576,-42.54961832061068,-15.465648854961833
1055,-1.0126953125,-0.997802734375,-0.29296875,53.541984732824424,-55.12977099236641,-45.81679389312977
1056,-0.890869140625,-1.030517578125,-0.284912109375,62.16793893129771,-60.3206106870229,-67.98473282442748
1057,-0.851318359375,-0.995361328125,-0.23486328125,61.98473282442748,-74.51908396946565,-103.98473282442748
1058,-0.838623046875,-0.854248046875,-0.24609375,113.93893129770993,-108.09160305343511,-118.25954198473282
1059,-0.833984375,-1.033203125,-0.137939453125,196.70229007633588,-145.70992366412213,-103.86259541984732
1060,-0.474853515625,-0.99951171875,-0.184814453125,137.75572519083968,-171.93893129770993,-160.2290076335878
1061,-0.740966796875,-0.715087890625,-0.362548828125,57.221374045801525,-148.50381679389312,-115.6030534351145
1062,-0.55029296875,-0.791259765625,-0.349609375,-55.282442748091604,-78.13740458015268,-79.31297709923665
1063,-0.5859375,-1.01513671875,-0.28857421875,-54.99236641221374,-52.50381679389313,-56.47328244274809
1064,-0.785400390625,-1.216064453125,-0.31005859375,-35.37404580152672,-49.9236641221374,-36.656488549618324
1065,-0.87060546875,-1.1865234375,-0.2666015625,-12.625954198473282,-64.30534351145039,-26.0
1066,-0.846923828125,-1.146728515625,-0.284423828125,7.801526717557252,-61.25190839694657,-16.106870229007633
1067,-0.797607421875,-1.107177734375,-0.290771484375,22.137404580152673,-52.0,-9.648854961832061
1068,-0.763427734375,-1.05419921875,-0.283447265625,34.030534351145036,-47.06870229007634,-2.381679389312977
1069,-0.789306640625,-1.187255859375,-0.25634765625,40.94656488549618,-43.038167938931295,1.083969465648855
1070,-0.78466796875,-1.089111328125,-0.23974609375,51.49618320610687,-41.31297709923664,2.549618320610687
1071,-0.80029296875,-0.9873046875,-0.2470703125,55.83206106870229,-44.88549618320611,0.5648854961832062
1072,-0.584228515625,-1.013916015625,-0.202392578125,48.87022900763359,-59.52671755725191,15.114503816793894
1073,-0.6513671875,-1.091552734375,-0.113037109375,47.05343511450382,-47.64885496183206,-1.786259541984733
1074,-0.5859375,-1.08642578125,-0.28271484375,22.396946564885496,-0.366412213740458,-25.740458015267176
1075,-0.544677734375,-0.997802734375,-0.3701171875,-1.0534351145038168,32.961832061068705,-36.25954198473283
1076,-0.68115234375,-1.008544921875,-0.312744140625,-35.038167938931295,80.65648854961832,-61.51145038167939
1077,-0.65869140625,-1.057373046875,-0.335205078125,-72.35114503816794,117.25190839694656,-70.1526717557252
1078,-0.79931640625,-0.996826171875,-0.3017578125,-107.41984732824427,111.23664122137404,-52.229007633587784
1079,-0.844970703125,-1.060302734375,-0.30078125,-111.78625954198473,98.22900763358778,-40.47328244274809
1080,-0.84912109375,-1.068115234375,-0.35302734375,-142.12213740458014,106.10687022900764,-28.885496183206108
1081,-0.82958984375,-1.050048828125,-0.348876953125,-164.3969465648855,115.20610687022901,-21.46564885496183
1082,-0.7666015625,-1.037841796875,-0.324951171875,-142.45801526717557,90.58015267175573,-20.091603053435115
1083,-0.691650390625,-1.01513671875,-0.372802734375,-116.3206106870229,81.49618320610686,-34.396946564885496
1084,-0.650146484375,-1.02099609375,-0.3017578125,-111.22137404580153,79.78625954198473,-32.3206106870229
1085,-0.623291015625,-1.004150390625,-0.32177734375,-102.18320610687023,67.17557251908397,-34.12213740458015
1086,-0.500244140625,-0.966552734375,-0.352294921875,-85.57251908396947,50.35114503816794,-40.62595419847328
1087,-0.486328125,-0.955078125,-0.385986328125,-67.61832061068702,34.80916030534351,-44.47328244274809
1088,-0.489501953125,-0.980224609375,-0.445556640625,-46.900763358778626,5.480916030534351,-33.69465648854962
1089,-0.45947265625,-0.97314453125,-0.495361328125,-22.366412213740457,-7.969465648854962,-28.15267175572519
1090,-0.49169921875,-0.962890625,-0.45849609375,-13.083969465648854,-27.297709923664122,-33.74045801526717
1091,-0.5439453125,-0.96044921875,-0.455078125,-7.404580152671755,-33.29770992366412,-33.93893129770992
1092,-0.55224609375,-0.967041015625,-0.472412109375,-11.206106870229007,-32.36641221374046,-25.480916030534353
1093,-0.53466796875,-0.94287109375,-0.46728515625,0.7633587786259542,-34.091603053435115,-22.778625954198475
1094,-0.54052734375,-0.954345703125,-0.494873046875,3.0839694656488548,-33.37404580152672,-12.82442748091603
1095,-0.581298828125,-0.969482421875,-0.41796875,0.5648854961832062,-32.3206106870229,-10.854961832061068
1096,-0.62451171875,-0.93994140625,-0.51611328125,32.94656488549618,-50.656488549618324,11.19083969465649
1097,-0.509033203125,-0.93212890625,-0.46923828125,51.465648854961835,-60.82442748091603,11.068702290076336
1098,-0.5791015625,-0.970947265625,-0.447509765625,51.80152671755725,-57.43511450381679,18.9618320610687
1099,-0.606689453125,-0.996337890625,-0.43359375,52.93129770992366,-53.06870229007634,23.755725190839694
1100,-0.623046875,-0.982666015625,-0.41943359375,60.900763358778626,-56.916030534351144,25.099236641221374
1101,-0.633056640625,-0.984619140625,-0.3759765625,76.76335877862596,-62.42748091603053,23.709923664122137
1102,-0.66455078125,-0.99365234375,-0.33984375,106.4885496183206,-75.72519083969466,9.053435114503817
1103,-0.710205078125,-0.875,-0.3662109375,122.83969465648855,-103.19083969465649,-42.79389312977099
1104,-0.691162109375,-0.929443359375,-0.40283203125,108.76335877862596,-92.54961832061069,-55.98473282442748
1105,-0.632080078125,-0.9794921875,-0.43408203125,76.54961832061069,-66.9618320610687,-60.0
1106,-0.642822265625,-0.9482421875,-0.431396484375,4.824427480916031,-30.35114503816794,-40.56488549618321
1107,-0.5302734375,-0.802734375,-0.288818359375,-74.9618320610687,-22.18320610687023,-38.732824427480914
1108,-0.7490234375,-1.114013671875,-0.377685546875,-55.6793893129771,-17.17557251908397,-37.89312977099237
1109,-0.783447265625,-1.12646484375,-0.404541015625,-52.717557251908396,-7.847328244274809,-21.404580152671755
1110,-0.656494140625,-1.0224609375,-0.400634765625,-52.06106870229008,-6.67175572519084,-22.0
1111,-0.666015625,-1.014892578125,-0.435546875,-47.541984732824424,-2.8702290076335877,-18.48854961832061
1112,-0.675537109375,-1.0537109375,-0.35595703125,-36.274809160305345,0.04580152671755725,-8.50381679389313
1113,-0.729736328125,-1.03564453125,-0.353759765625,-31.64885496183206,7.648854961832061,-1.7404580152671756
1114,-0.664306640625,-0.977783203125,-0.356689453125,-32.030534351145036,18.244274809160306,1.7404580152671756
1115,-0.677001953125,-0.987060546875,-0.344970703125,-28.0,19.938931297709924,3.4656488549618323
1116,-0.697265625,-1.014892578125,-0.345458984375,-23.068702290076335,21.282442748091604,7.435114503816794
1117,-0.734130859375,-1.02587890625,-0.351806640625,-13.114503816793894,23.389312977099237,9.49618320610687
1118,-0.7109375,-0.9345703125,-0.642822265625,-76.90076335877863,32.229007633587784,7.083969465648855
1119,-0.838623046875,-0.8203125,-0.45654296875,-91.54198473282443,33.343511450381676,-4.320610687022901
1120,-0.807861328125,-0.987548828125,-0.37744140625,-82.7175572519084,36.732824427480914,2.4122137404580153
1121,-0.758056640625,-0.960205078125,-0.368408203125,-82.27480916030534,29.893129770992367,4.824427480916031
1122,-0.699462890625,-0.88232421875,-0.41015625,-96.79389312977099,27.755725190839694,-2.0916030534351147
1123,-0.739990234375,-0.902099609375,-0.411376953125,-77.86259541984732,14.473282442748092,0.7022900763358778
1124,-0.64208984375,-0.90478515625,-0.416748046875,-49.404580152671755,-4.6106870229007635,-1.4351145038167938
1125,-0.706298828125,-0.9970703125,-0.4189453125,-31.862595419847327,-13.32824427480916,1.8015267175572518
1126,-0.71630859375,-0.92724609375,-0.4287109375,-24.16793893129771,-11.908396946564885,4.122137404580153
1127,-0.718505859375,-0.9189453125,-0.412841796875,-20.48854961832061,-10.67175572519084,6.656488549618321
1128,-0.731689453125,-0.9326171875,-0.398193359375,-16.595419847328245,-10.15267175572519,7.541984732824427
1129,-0.728515625,-0.923095703125,-0.39892578125,-10.320610687022901,-12.16793893129771,10.244274809160306
1130,-0.74267578125,-0.898193359375,-0.417236328125,-16.47328244274809,-7.480916030534351,15.17557251908397
1131,-0.79541015625,-0.914794921875,-0.42431640625,-20.442748091603054,-5.236641221374046,17.374045801526716
1132,-0.769775390625,-0.96875,-0.421875,-12.65648854961832,-14.427480916030534,22.702290076335878
1133,-0.763916015625,-0.967529296875,-0.41650390625,-8.0,-19.51145038167939,28.0
1134,-0.77392578125,-0.9560546875,-0.423583984375,-9.770992366412214,-14.488549618320612,27.709923664122137
1135,-0.801513671875,-0.953857421875,-0.4052734375,-10.259541984732824,-13.297709923664122,22.671755725190838
1136,-0.791015625,-0.9716796875,-0.3759765625,-8.83969465648855,-11.587786259541986,19.862595419847327
1137,-0.7822265625,-0.981689453125,-0.358154296875,-5.969465648854962,-10.534351145038167,15.969465648854962
1138,-0.789306640625,-0.97412109375,-0.367919921875,-2.2900763358778624,-8.916030534351146,11.083969465648854
1139,-0.800537109375,-0.977783203125,-0.385009765625,-2.6564885496183206,-7.9541984732824424,6.961832061068702
1140,-0.831298828125,-0.973876953125,-0.39794921875,-4.2748091603053435,-8.65648854961832,6.748091603053435
1141,-0.80517578125,-0.987060546875,-0.3984375,-3.0839694656488548,-11.709923664122137,1.282442748091603
1142,-0.82080078125,-0.98388671875,-0.405517578125,-0.549618320610687,-8.412213740458014,-2.4732824427480917
1143,-0.8369140625,-0.986083984375,-0.4091796875,-0.6717557251908397,-6.549618320610687,-5.786259541984733
1144,-0.829833984375,-0.97705078125,-0.40478515625,-0.9770992366412213,-4.5038167938931295,-8.763358778625955
1145,-0.78173828125,-0.9482421875,-0.40234375,2.732824427480916,-2.427480916030534,-8.916030534351146
1146,-0.78564453125,-0.95263671875,-0.401123046875,0.4122137404580153,0.6259541984732825,-11.893129770992367
1147,-0.85791015625,-0.966796875,-0.412353515625,-1.251908396946565,-0.07633587786259542,-13.709923664122137
1148,-0.823974609375,-0.97705078125,-0.429443359375,0.48854961832061067,-7.786259541984733,-14.916030534351146
