,Ax,Ay,Az,Gx,Gy,Gz
0,-1.028564453125,-0.304443359375,0.551513671875,29.541984732824428,32.29007633587786,-4.580152671755725
1,-0.96826171875,-0.10791015625,0.586181640625,-13.770992366412214,28.625954198473284,-12.717557251908397
2,-0.974853515625,-0.222900390625,0.74365234375,9.86259541984733,28.045801526717558,-2.4732824427480917
3,-0.995849609375,-0.183349609375,0.597412109375,2.0916030534351147,23.786259541984734,-7.00763358778626
4,-0.994140625,-0.167724609375,0.619384765625,0.549618320610687,23.96946564885496,-5.129770992366412
5,-0.990234375,-0.19091796875,0.6337890625,2.5343511450381677,26.198473282442748,-3.3587786259541983
6,-0.9755859375,-0.18017578125,0.607177734375,0.07633587786259542,26.50381679389313,-2.0763358778625953
7,-0.975830078125,-0.176513671875,0.609375,-2.2900763358778624,25.129770992366414,-0.183206106870229
8,-0.98388671875,-0.18798828125,0.61669921875,-0.8244274809160306,26.427480916030536,-0.21374045801526717
9,-0.949462890625,-0.193603515625,0.583740234375,-4.229007633587786,29.557251908396946,0.9770992366412213
10,-0.972412109375,-0.18408203125,0.594970703125,-2.854961832061069,28.38167938931298,2.427480916030534
11,-1.00732421875,-0.194091796875,0.6142578125,-2.564885496183206,30.12213740458015,1.2213740458015268
12,-0.94580078125,-0.165771484375,0.5654296875,-7.557251908396947,32.900763358778626,-0.8396946564885496
13,-1.012451171875,-0.275146484375,0.604248046875,3.969465648854962,29.786259541984734,7.099236641221374
14,-0.964111328125,-0.205810546875,0.58203125,-0.8396946564885496,28.137404580152673,2.4885496183206106
15,-1.0439453125,-0.16796875,0.6259765625,1.984732824427481,24.366412213740457,-1.1145038167938932
16,-1.0322265625,-0.229736328125,0.673095703125,-3.2061068702290076,7.862595419847328,1.2061068702290076
17,-0.932373046875,-0.25537109375,0.607666015625,1.2366412213740459,17.221374045801525,0.6564885496183206
18,-1.008544921875,-0.1845703125,0.6611328125,-2.0,8.580152671755725,-1.5725190839694656
19,-1.001220703125,-0.11767578125,0.623779296875,-21.52671755725191,9.511450381679388,-14.13740458015267
20,-1.01611328125,-0.189453125,0.614990234375,-19.69465648854962,-1.5572519083969465,-17.603053435114504
21,-1.187255859375,-0.21875,0.6025390625,-17.328244274809162,-0.015267175572519083,-17.31297709923664
22,-0.96875,-0.252685546875,0.592041015625,-12.045801526717558,3.8625954198473282,-15.587786259541986
23,-1.025146484375,-0.236083984375,0.56787109375,-11.083969465648854,-14.229007633587786,-9.099236641221374
24,-0.962890625,-0.25390625,0.56396484375,-13.49618320610687,-15.709923664122137,-10.0
25,-0.918701171875,-0.232177734375,0.62548828125,-16.366412213740457,-13.587786259541986,-7.267175572519084
26,-0.955078125,-0.21044921875,0.62646484375,-17.129770992366414,-15.206106870229007,-5.877862595419847
27,-0.938720703125,-0.212158203125,0.61572265625,-19.374045801526716,-8.351145038167939,-8.82442748091603
28,-0.958984375,-0.228759765625,0.6259765625,-18.549618320610687,-6.702290076335878,-7.755725190839694
29,-1.003662109375,-0.20849609375,0.681884765625,-19.099236641221374,-7.679389312977099,-9.19083969465649
30,-0.959228515625,-0.2333984375,0.627197265625,-21.64885496183206,-3.0076335877862594,-6.641221374045801
31,-0.9560546875,-0.225341796875,0.621337890625,-22.99236641221374,-2.5343511450381677,-8.931297709923664
32,-0.964599609375,-0.223388671875,0.60595703125,-26.18320610687023,-4.488549618320611,-9.679389312977099
33,-0.94482421875,-0.219970703125,0.615234375,-29.083969465648856,-9.587786259541986,-8.01526717557252
34,-0.970703125,-0.23193359375,0.629150390625,-29.251908396946565,-6.854961832061068,-10.488549618320612
35,-1.029296875,-0.2490234375,0.605224609375,-28.198473282442748,-4.213740458015267,-10.274809160305344
36,-1.0283203125,-0.230712890625,0.556884765625,-19.770992366412212,17.69465648854962,-1.786259541984733
37,-1.048828125,-0.146484375,0.55029296875,6.244274809160306,31.236641221374047,2.2748091603053435
38,-1.015380859375,-0.330810546875,0.64697265625,-8.229007633587786,12.122137404580153,-5.465648854961832
39,-0.976806640625,-0.233642578125,0.593017578125,21.17557251908397,25.938931297709924,18.717557251908396
40,-1.035888671875,-0.26611328125,0.618408203125,11.19083969465649,15.83206106870229,8.396946564885496
41,-0.964111328125,-0.211669921875,0.65380859375,20.519083969465647,6.732824427480916,6.305343511450381
42,-1.033935546875,-0.26220703125,0.68701171875,-0.732824427480916,4.824427480916031,3.4656488549618323
43,-1.017333984375,-0.262451171875,0.685791015625,0.4122137404580153,2.854961832061069,1.2061068702290076
44,-0.999267578125,-0.2607421875,0.617431640625,1.8015267175572518,5.206106870229007,2.381679389312977
45,-0.981201171875,-0.243408203125,0.5908203125,10.244274809160306,8.641221374045802,-0.549618320610687
46,-0.9638671875,-0.28955078125,0.609619140625,5.572519083969466,9.694656488549619,3.6030534351145036
47,-0.98095703125,-0.236572265625,0.608154296875,4.580152671755725,9.389312977099237,3.435114503816794
48,-1.001708984375,-0.223876953125,0.59375,2.50381679389313,8.122137404580153,3.3740458015267176
49,-1.0146484375,-0.232666015625,0.60400390625,-0.1984732824427481,5.129770992366412,3.3740458015267176
50,-0.997802734375,-0.191650390625,0.591552734375,-1.5572519083969465,2.6412213740458017,4.1679389312977095
51,-1.012939453125,-0.249267578125,0.59228515625,-1.0229007633587786,3.8625954198473282,3.145038167938931
52,-1.0478515625,-0.244384765625,0.595947265625,-2.8091603053435112,-3.4656488549618323,3.7557251908396947
53,-1.0224609375,-0.227783203125,0.5830078125,-3.66412213740458,-5.312977099236641,-2.366412213740458
54,-1.012451171875,-0.234375,0.596435546875,-4.8396946564885495,-5.175572519083969,-3.1755725190839694
55,-0.957763671875,-0.236083984375,0.582275390625,-4.824427480916031,4.183206106870229,-0.2595419847328244
56,-0.993896484375,-0.2197265625,0.6015625,-3.099236641221374,1.1603053435114503,-2.33587786259542
57,-0.9990234375,-0.24365234375,0.5966796875,-5.893129770992366,0.6106870229007634,2.33587786259542
58,-1.0,-0.24267578125,0.60107421875,-7.374045801526718,0.5801526717557252,-0.1984732824427481
59,-0.999755859375,-0.2421875,0.587646484375,-4.213740458015267,2.2442748091603053,1.984732824427481
60,-0.975830078125,-0.24658203125,0.5908203125,-6.259541984732825,2.6564885496183206,0.6412213740458015
61,-1.02099609375,-0.234375,0.6044921875,-6.641221374045801,-0.7938931297709924,-0.22900763358778625
62,-1.007080078125,-0.257568359375,0.58740234375,-5.816793893129771,-1.5725190839694656,-0.9465648854961832
63,-1.003173828125,-0.254638671875,0.593505859375,-8.274809160305344,-6.33587786259542,-2.427480916030534
64,-1.02099609375,-0.24951171875,0.603271484375,-10.0,-8.931297709923664,-2.854961832061069
65,-1.006103515625,-0.273193359375,0.574462890625,-9.84732824427481,-8.580152671755725,-2.1068702290076335
66,-1.0029296875,-0.252197265625,0.586669921875,-11.099236641221374,-9.236641221374045,-1.4961832061068703
67,-0.97998046875,-0.2392578125,0.552978515625,-11.236641221374045,-5.312977099236641,-4.732824427480916
68,-0.97119140625,-0.232177734375,0.565185546875,-12.687022900763358,-3.4198473282442747,-5.114503816793893
69,-0.996337890625,-0.22509765625,0.572998046875,-16.12213740458015,-6.732824427480916,-5.175572519083969
70,-0.992919921875,-0.24658203125,0.568115234375,-14.83969465648855,-9.16030534351145,-4.656488549618321
71,-0.99609375,-0.263671875,0.5791015625,-13.145038167938932,-9.725190839694656,-5.786259541984733
72,-0.97509765625,-0.34619140625,0.540771484375,16.778625954198475,7.755725190839694,-6.67175572519084
73,-0.98193359375,-0.25537109375,0.583984375,13.679389312977099,6.152671755725191,-6.213740458015267
74,-0.97705078125,-0.247802734375,0.587646484375,13.099236641221374,5.267175572519084,-4.931297709923665
75,-0.9921875,-0.197998046875,0.584716796875,12.229007633587786,5.816793893129771,-3.099236641221374
76,-0.9931640625,-0.259521484375,0.58544921875,12.931297709923664,7.282442748091603,-1.251908396946565
77,-0.985107421875,-0.25830078125,0.588134765625,12.82442748091603,6.824427480916031,0.6717557251908397
78,-0.987060546875,-0.25341796875,0.583740234375,11.786259541984732,5.282442748091603,3.1297709923664123
79,-0.981689453125,-0.251953125,0.59814453125,10.946564885496183,4.458015267175573,4.961832061068702
80,-0.9833984375,-0.25146484375,0.604736328125,10.01526717557252,4.519083969465649,5.984732824427481
81,-0.99365234375,-0.240478515625,0.594482421875,9.98473282442748,5.282442748091603,6.259541984732825
82,-0.9912109375,-0.242919921875,0.596435546875,9.648854961832061,5.9541984732824424,5.312977099236641
83,-0.991943359375,-0.23876953125,0.603515625,8.381679389312977,6.33587786259542,4.6106870229007635
84,-1.01416015625,-0.236572265625,0.602783203125,8.229007633587786,6.198473282442748,3.8625954198473282
85,-1.009521484375,-0.2412109375,0.5908203125,8.549618320610687,5.236641221374046,4.198473282442748
86,-0.998291015625,-0.23779296875,0.582763671875,9.007633587786259,4.564885496183206,4.0
87,-1.00390625,-0.23583984375,0.58642578125,8.290076335877863,5.557251908396947,4.549618320610687
88,-1.00048828125,-0.23291015625,0.587890625,6.595419847328245,7.572519083969466,4.412213740458015
89,-0.93896484375,-0.2333984375,0.59912109375,5.8320610687022905,8.51908396946565,4.015267175572519
90,-1.00634765625,-0.22998046875,0.606201171875,5.969465648854962,8.992366412213741,3.3435114503816794
91,-1.0166015625,-0.242431640625,0.588134765625,7.740458015267175,9.587786259541986,2.549618320610687
92,-1.01904296875,-0.24072265625,0.585205078125,9.98473282442748,10.625954198473282,1.6030534351145038
93,-1.0166015625,-0.232666015625,0.590576171875,13.83206106870229,12.396946564885496,2.0610687022900764
94,-1.0224609375,-0.230224609375,0.587890625,16.076335877862597,13.083969465648854,2.2748091603053435
95,-1.023193359375,-0.222900390625,0.58984375,16.366412213740457,14.351145038167939,2.549618320610687
96,-1.017578125,-0.217041015625,0.59375,16.53435114503817,17.435114503816795,2.4580152671755724
97,-1.026123046875,-0.212890625,0.59619140625,15.84732824427481,17.022900763358777,5.068702290076335
98,-1.031982421875,-0.196533203125,0.580078125,17.34351145038168,18.870229007633586,5.709923664122138
99,-1.04248046875,-0.195068359375,0.591796875,15.725190839694656,16.564885496183205,7.00763358778626
100,-1.046142578125,-0.185791015625,0.58740234375,13.587786259541986,15.221374045801527,8.229007633587786
101,-1.0498046875,-0.1806640625,0.5751953125,11.526717557251908,13.969465648854962,8.366412213740459
102,-1.058837890625,-0.16796875,0.624267578125,7.9541984732824424,14.259541984732824,11.603053435114504
103,-1.001708984375,-0.169921875,0.578369140625,4.931297709923665,14.885496183206106,7.236641221374046
104,-1.068359375,-0.157470703125,0.56787109375,2.2595419847328246,16.061068702290076,7.648854961832061
105,-1.059326171875,-0.157470703125,0.585205078125,-0.5190839694656488,15.664122137404581,8.67175572519084
106,-1.063232421875,-0.154052734375,0.587646484375,-1.2366412213740459,15.923664122137405,9.557251908396946
107,-1.05859375,-0.152587890625,0.589111328125,-1.3587786259541985,19.022900763358777,10.641221374045802
108,-1.068359375,-0.148193359375,0.573974609375,-1.3893129770992367,19.709923664122137,11.572519083969466
109,-1.058349609375,-0.140625,0.57763671875,-2.6564885496183206,20.213740458015266,14.0
110,-1.0732421875,-0.1337890625,0.568115234375,-1.7404580152671756,22.3206106870229,15.526717557251908
111,-1.089111328125,-0.12060546875,0.510009765625,0.7022900763358778,21.755725190839694,18.99236641221374
112,-1.101806640625,-0.10791015625,0.508056640625,4.061068702290076,16.15267175572519,16.076335877862597
113,-1.17724609375,-0.145263671875,0.546630859375,-1.1755725190839694,16.580152671755727,20.16793893129771
114,-1.220947265625,-0.00732421875,0.5908203125,4.854961832061068,13.374045801526718,21.61832061068702
115,-1.0302734375,-0.12890625,0.5244140625,3.6946564885496183,14.702290076335878,25.099236641221374
116,-1.087646484375,-0.109130859375,0.5537109375,5.66412213740458,8.458015267175572,25.0381679389313
117,-1.12353515625,-0.076171875,0.5693359375,10.076335877862595,8.229007633587786,28.045801526717558
118,-1.10546875,-0.072509765625,0.57470703125,13.893129770992367,8.13740458015267,23.52671755725191
119,-1.08740234375,-0.07373046875,0.566650390625,13.618320610687023,8.748091603053435,25.129770992366414
120,-1.0732421875,-0.047119140625,0.55419921875,8.580152671755725,9.007633587786259,24.83969465648855
121,-1.1005859375,-0.026123046875,0.548583984375,2.2595419847328246,6.885496183206107,23.938931297709924
122,-1.1044921875,-0.04150390625,0.52294921875,-5.648854961832061,6.122137404580153,23.221374045801525
123,-1.099365234375,-0.04345703125,0.537109375,-12.748091603053435,4.33587786259542,20.27480916030534
124,-1.107666015625,-0.019775390625,0.541748046875,-18.50381679389313,5.099236641221374,19.099236641221374
125,-1.08154296875,-0.02783203125,0.525634765625,-25.221374045801525,7.770992366412214,10.778625954198473
126,-1.090576171875,-0.03369140625,0.528564453125,-30.33587786259542,1.450381679389313,11.450381679389313
127,-1.10009765625,-0.05859375,0.511474609375,-32.33587786259542,-0.48854961832061067,13.007633587786259
128,-1.107421875,-0.080810546875,0.50830078125,-37.11450381679389,-2.717557251908397,15.221374045801527
129,-1.09521484375,-0.054931640625,0.510986328125,-41.89312977099237,-7.801526717557252,16.778625954198475
130,-1.10498046875,-0.0400390625,0.5126953125,-45.16030534351145,-4.549618320610687,14.778625954198473
131,-1.094482421875,-0.03759765625,0.517333984375,-49.267175572519086,-3.2213740458015265,13.587786259541986
132,-1.118896484375,-0.040771484375,0.54345703125,-49.45038167938932,-4.152671755725191,12.870229007633588
133,-1.06298828125,-0.0654296875,0.5498046875,-49.70992366412214,-6.122137404580153,15.816793893129772
134,-1.114013671875,-0.08349609375,0.53076171875,-51.847328244274806,-6.137404580152672,17.51145038167939
135,-1.12890625,-0.07763671875,0.522216796875,-54.67175572519084,-6.519083969465649,19.480916030534353
136,-1.132568359375,-0.072998046875,0.5302734375,-53.86259541984733,-4.213740458015267,20.045801526717558
137,-1.13916015625,-0.0830078125,0.528076171875,-45.7557251908397,-1.83206106870229,21.6793893129771
138,-1.150390625,-0.0908203125,0.521240234375,-39.14503816793893,-2.732824427480916,24.885496183206108
139,-1.140380859375,-0.08447265625,0.50732421875,-38.6412213740458,-7.511450381679389,26.748091603053435
140,-1.13623046875,-0.117919921875,0.4873046875,-39.31297709923664,-9.49618320610687,28.580152671755727
141,-1.16748046875,-0.13916015625,0.491943359375,-45.02290076335878,-9.526717557251908,31.083969465648856
142,-1.190185546875,-0.125732421875,0.511962890625,-46.44274809160305,-9.312977099236642,31.389312977099237
143,-1.16845703125,-0.123291015625,0.52392578125,-47.9236641221374,-10.564885496183207,38.33587786259542
144,-1.15185546875,-0.1123046875,0.531982421875,-49.786259541984734,-7.847328244274809,42.19847328244275
145,-1.06884765625,-0.115966796875,0.542236328125,-49.31297709923664,-12.259541984732824,45.3587786259542
146,-1.134765625,-0.120849609375,0.541748046875,-47.19083969465649,-14.106870229007633,48.10687022900763
147,-1.148681640625,-0.109375,0.53662109375,-45.80152671755725,-15.938931297709924,49.66412213740458
148,-1.142822265625,-0.1201171875,0.53564453125,-45.3587786259542,-17.87786259541985,51.38931297709924
149,-1.134521484375,-0.066650390625,0.529296875,-44.70229007633588,-19.251908396946565,52.83969465648855
150,-1.124267578125,-0.106201171875,0.5283203125,-43.16030534351145,-21.053435114503817,54.70229007633588
151,-1.11376953125,-0.0810546875,0.514892578125,-51.48091603053435,-21.603053435114504,45.954198473282446
152,-1.104736328125,-0.099853515625,0.517333984375,-52.916030534351144,-19.587786259541986,45.786259541984734
153,-1.10888671875,-0.123291015625,0.5029296875,-51.69465648854962,-24.33587786259542,45.32824427480916
154,-1.10986328125,-0.108154296875,0.505859375,-53.25190839694657,-26.458015267175572,43.954198473282446
155,-1.1142578125,-0.1279296875,0.561767578125,-55.05343511450382,-27.66412213740458,44.458015267175576
156,-1.112548828125,-0.138427734375,0.51416015625,-55.083969465648856,-28.3206106870229,46.152671755725194
157,-1.10302734375,-0.130859375,0.5078125,-56.06106870229008,-30.33587786259542,47.69465648854962
158,-1.097900390625,-0.134521484375,0.498291015625,-54.76335877862596,-31.770992366412212,47.37404580152672
159,-1.066162109375,-0.114990234375,0.498291015625,-61.41984732824427,-27.389312977099237,43.6793893129771
160,-1.077880859375,-0.133544921875,0.48974609375,-63.465648854961835,-33.70992366412214,44.48854961832061
161,-1.09521484375,-0.141357421875,0.56005859375,-66.10687022900764,-35.404580152671755,47.87786259541985
162,-1.090576171875,-0.141357421875,0.48974609375,-62.458015267175576,-35.43511450381679,48.85496183206107
163,-1.08544921875,-0.138427734375,0.47998046875,-57.51145038167939,-35.66412213740458,48.06106870229008
164,-1.07666015625,-0.135986328125,0.494873046875,-57.282442748091604,-36.82442748091603,47.847328244274806
165,-1.05908203125,-0.1337890625,0.489990234375,-57.37404580152672,-35.70992366412214,45.02290076335878
166,-1.025146484375,-0.1103515625,0.48876953125,-54.74809160305343,-33.74045801526717,39.51145038167939
167,-1.045654296875,-0.123046875,0.498046875,-57.48091603053435,-32.595419847328245,36.38167938931298
168,-1.03662109375,-0.138427734375,0.492431640625,-54.94656488549618,-30.290076335877863,34.3206106870229
169,-1.0478515625,-0.139892578125,0.50048828125,-55.465648854961835,-29.984732824427482,37.02290076335878
170,-1.0615234375,-0.14306640625,0.44580078125,-57.83206106870229,-31.633587786259543,40.44274809160305
171,-1.053955078125,-0.156982421875,0.509521484375,-59.282442748091604,-33.083969465648856,42.83969465648855
172,-1.02783203125,-0.15771484375,0.505126953125,-60.916030534351144,-31.87786259541985,44.35114503816794
173,-1.0478515625,-0.1513671875,0.490966796875,-62.30534351145038,-31.87786259541985,45.43511450381679
174,-1.0703125,-0.15966796875,0.488037109375,-61.17557251908397,-32.79389312977099,48.396946564885496
175,-1.0751953125,-0.142578125,0.486572265625,-61.267175572519086,-32.16793893129771,49.32824427480916
176,-1.04736328125,-0.130859375,0.55908203125,-63.61832061068702,-33.37404580152672,50.030534351145036
177,-1.011962890625,-0.143798828125,0.507080078125,-65.90839694656489,-32.67175572519084,51.282442748091604
178,-0.962646484375,-0.15576171875,0.51953125,-66.12213740458016,-31.557251908396946,52.152671755725194
179,-0.995361328125,-0.138427734375,0.4892578125,-67.6030534351145,-32.70229007633588,51.52671755725191
180,-1.037841796875,-0.12939453125,0.479736328125,-64.77862595419847,-31.389312977099237,50.62595419847328
181,-1.05322265625,-0.140380859375,0.478515625,-63.05343511450382,-31.435114503816795,51.52671755725191
182,-1.011474609375,-0.13427734375,0.44287109375,-63.14503816793893,-33.12977099236641,49.00763358778626
183,-1.0068359375,-0.136474609375,0.491943359375,-64.61068702290076,-32.47328244274809,47.38931297709924
184,-0.979248046875,-0.1318359375,0.506103515625,-66.41221374045801,-34.0763358778626,46.6412213740458
185,-0.98876953125,-0.177490234375,0.559326171875,-67.12977099236642,-35.847328244274806,46.717557251908396
186,-0.98291015625,-0.12939453125,0.439453125,-68.85496183206106,-36.213740458015266,47.541984732824424
187,-0.956298828125,-0.13671875,0.51416015625,-66.65648854961832,-34.274809160305345,48.045801526717554
188,-0.943359375,-0.136962890625,0.529541015625,-61.23664122137404,-32.091603053435115,48.88549618320611
189,-0.951904296875,-0.15869140625,0.52099609375,-57.14503816793893,-30.137404580152673,49.7557251908397
190,-0.958740234375,-0.14892578125,0.521240234375,-54.88549618320611,-26.99236641221374,50.274809160305345
191,-0.955322265625,-0.15869140625,0.52294921875,-55.23664122137404,-23.00763358778626,52.091603053435115
192,-0.943603515625,-0.15087890625,0.526123046875,-53.465648854961835,-20.442748091603054,55.70992366412214
193,-1.059326171875,-0.168212890625,0.52978515625,-41.63358778625954,-23.31297709923664,65.61832061068702
194,-0.9033203125,-0.153076171875,0.558349609375,-43.83206106870229,-22.38167938931298,64.2442748091603
195,-0.895263671875,-0.16064453125,0.52294921875,-41.83206106870229,-26.427480916030536,64.10687022900764
196,-0.970947265625,-0.16796875,0.53076171875,-46.42748091603053,-26.580152671755727,62.99236641221374
197,-0.9345703125,-0.16552734375,0.557373046875,-37.12977099236641,-24.259541984732824,60.213740458015266
198,-0.93408203125,-0.16015625,0.563232421875,-40.62595419847328,-20.229007633587788,58.70229007633588
199,-0.90185546875,-0.162353515625,0.58935546875,-38.82442748091603,-22.900763358778626,57.12977099236641
200,-0.92724609375,-0.166259765625,0.579833984375,-37.32824427480916,-24.549618320610687,58.030534351145036
201,-0.9482421875,-0.1591796875,0.5810546875,-37.55725190839695,-22.427480916030536,60.12213740458015
202,-0.951416015625,-0.15234375,0.58154296875,-38.916030534351144,-21.801526717557252,62.87022900763359
203,-0.93896484375,-0.14453125,0.583251953125,-43.02290076335878,-18.03053435114504,59.83206106870229
204,-0.8896484375,-0.1513671875,0.6044921875,-44.80916030534351,-17.51145038167939,57.725190839694655
205,-0.99365234375,-0.15673828125,0.602294921875,-48.412213740458014,-8.564885496183207,59.908396946564885
206,-0.996337890625,-0.1455078125,0.672607421875,-51.7557251908397,-5.282442748091603,57.23664122137404
207,-0.95556640625,-0.161376953125,0.622314453125,-49.786259541984734,-6.67175572519084,53.74045801526717
208,-0.9853515625,-0.149169921875,0.61279296875,-53.587786259541986,-6.717557251908397,50.44274809160305
209,-0.95947265625,-0.133056640625,0.611328125,-54.06106870229008,-7.938931297709924,47.87786259541985
210,-0.960205078125,-0.150146484375,0.59716796875,-55.80152671755725,-9.068702290076336,44.82442748091603
211,-0.9765625,-0.133056640625,0.591796875,-57.61832061068702,-8.305343511450381,39.66412213740458
212,-0.997802734375,-0.144287109375,0.59130859375,-65.81679389312977,-11.725190839694656,37.11450381679389
213,-0.97412109375,-0.170654296875,0.59521484375,-70.9618320610687,-11.32824427480916,38.091603053435115
214,-0.970458984375,-0.1611328125,0.61181640625,-78.85496183206106,-6.8396946564885495,36.458015267175576
215,-0.98291015625,-0.153564453125,0.63525390625,-83.55725190839695,-6.0,34.35114503816794
216,-0.952880859375,-0.16357421875,0.647705078125,-81.41984732824427,-5.251908396946565,33.221374045801525
217,-0.96435546875,-0.189453125,0.665771484375,-74.65648854961832,-2.0763358778625953,36.88549618320611
218,-0.974609375,-0.220947265625,0.64013671875,-70.04580152671755,0.3969465648854962,39.587786259541986
219,-0.947998046875,-0.2255859375,0.6240234375,-72.73282442748092,-2.6106870229007635,36.3206106870229
220,-0.955322265625,-0.22412109375,0.60205078125,-78.74809160305344,-2.030534351145038,40.25954198473283
221,-0.947021484375,-0.259765625,0.58935546875,-85.05343511450381,-6.885496183206107,40.3206106870229
222,-0.96044921875,-0.29296875,0.536865234375,-109.22137404580153,-19.862595419847327,34.717557251908396
223,-1.01611328125,-0.402587890625,0.6318359375,-93.98473282442748,-8.488549618320612,38.29007633587786
224,-0.94091796875,-0.345458984375,0.613525390625,-94.19847328244275,-10.396946564885496,37.725190839694655
225,-0.954833984375,-0.349853515625,0.638916015625,-87.98473282442748,-8.16793893129771,36.83969465648855
226,-0.977783203125,-0.35888671875,0.647216796875,-84.85496183206106,-7.450381679389313,39.32824427480916
227,-0.968017578125,-0.41064453125,0.62939453125,-82.22900763358778,-9.022900763358779,47.19083969465649
228,-0.959228515625,-0.48974609375,0.640869140625,-79.26717557251908,-10.15267175572519,56.62595419847328
229,-0.92626953125,-0.477783203125,0.638671875,-67.05343511450381,-15.389312977099237,61.954198473282446
230,-0.96044921875,-0.44970703125,0.63427734375,-69.72519083969466,-9.145038167938932,71.90839694656489
231,-0.95654296875,-0.499755859375,0.653564453125,-65.74045801526718,-4.015267175572519,72.85496183206106
232,-0.972900390625,-0.474609375,0.645263671875,-66.99236641221374,-3.145038167938931,73.34351145038168
233,-0.923828125,-0.4716796875,0.62451171875,-75.49618320610686,1.1755725190839694,66.4885496183206
234,-0.991455078125,-0.475341796875,0.6015625,-86.3206106870229,0.8244274809160306,67.8473282442748
235,-0.99853515625,-0.45751953125,0.625244140625,-95.49618320610686,6.33587786259542,59.7557251908397
236,-1.011962890625,-0.406005859375,0.591552734375,-117.61832061068702,19.770992366412212,40.83969465648855
237,-0.98779296875,-0.41650390625,0.549560546875,-90.45801526717557,12.427480916030534,48.48854961832061
238,-1.07080078125,-0.50537109375,0.58447265625,-86.90076335877863,12.229007633587786,48.3206106870229
239,-1.033935546875,-0.492431640625,0.599853515625,-74.79389312977099,12.15267175572519,46.87022900763359
240,-1.037841796875,-0.5400390625,0.6044921875,-81.19083969465649,10.687022900763358,49.7557251908397
241,-0.967041015625,-0.545654296875,0.620361328125,-83.61832061068702,2.0763358778625953,49.86259541984733
242,-0.953857421875,-0.550537109375,0.59814453125,-96.01526717557252,-3.282442748091603,51.19083969465649
243,-0.962158203125,-0.546630859375,0.587158203125,-96.90076335877863,-9.664122137404581,52.35114503816794
244,-0.990478515625,-0.531982421875,0.591796875,-96.91603053435115,-10.458015267175572,51.83206106870229
245,-1.014892578125,-0.516845703125,0.593505859375,-96.74809160305344,-4.5038167938931295,56.54961832061068
246,-1.018798828125,-0.492919921875,0.5791015625,-94.45801526717557,-3.7557251908396947,59.083969465648856
247,-1.046142578125,-0.51708984375,0.521728515625,-104.51908396946565,-0.6717557251908397,64.58015267175573
248,-0.98583984375,-0.52197265625,0.5498046875,-111.61832061068702,-2.519083969465649,63.404580152671755
249,-0.9814453125,-0.550537109375,0.5400390625,-120.87022900763358,-7.206106870229007,62.274809160305345
250,-0.993408203125,-0.558349609375,0.523681640625,-130.45801526717557,-13.267175572519085,65.06870229007633
251,-1.01123046875,-0.576416015625,0.500732421875,-135.66412213740458,-13.923664122137405,65.40458015267176
252,-1.02001953125,-0.61572265625,0.4990234375,-136.06106870229007,-19.419847328244273,65.80152671755725
253,-1.00341796875,-0.635498046875,0.489013671875,-136.73282442748092,-19.64885496183206,59.11450381679389
254,-0.979736328125,-0.62939453125,0.480224609375,-136.3053435114504,-26.778625954198475,61.12977099236641
255,-0.99658203125,-0.606201171875,0.483642578125,-132.19847328244273,-25.389312977099237,56.961832061068705
256,-1.01025390625,-0.6142578125,0.473876953125,-124.35114503816794,-24.458015267175572,53.20610687022901
257,-1.00244140625,-0.62744140625,0.484375,-123.25190839694656,-26.625954198473284,55.6793893129771
258,-1.014404296875,-0.634521484375,0.457763671875,-118.0,-23.61832061068702,57.70992366412214
259,-1.031005859375,-0.637451171875,0.454345703125,-112.30534351145039,-21.419847328244273,60.48854961832061
260,-1.0283203125,-0.63037109375,0.4404296875,-110.61068702290076,-16.213740458015266,65.58778625954199
261,-1.027099609375,-0.603515625,0.46142578125,-108.09160305343511,-16.15267175572519,68.76335877862596
262,-1.0185546875,-0.58251953125,0.484130859375,-101.02290076335878,-8.83969465648855,73.46564885496183
263,-1.02099609375,-0.56298828125,0.476318359375,-87.46564885496183,-4.778625954198473,75.61832061068702
264,-1.024169921875,-0.556396484375,0.4599609375,-84.68702290076335,-7.648854961832061,78.07633587786259
265,-0.9794921875,-0.566650390625,0.46044921875,-80.10687022900764,-9.618320610687023,68.44274809160305
266,-0.9599609375,-0.573974609375,0.434326171875,-80.25954198473282,-13.98473282442748,66.97709923664122
267,-0.947998046875,-0.560791015625,0.426513671875,-78.1526717557252,-21.374045801526716,63.14503816793893
268,-0.914794921875,-0.562255859375,0.442138671875,-70.01526717557252,-29.328244274809162,55.06870229007634
269,-0.905029296875,-0.5322265625,0.470947265625,-63.9236641221374,-38.30534351145038,52.50381679389313
270,-0.895263671875,-0.514892578125,0.46728515625,-58.83969465648855,-43.221374045801525,54.36641221374046
271,-0.89697265625,-0.51416015625,0.497802734375,-59.29770992366412,-48.458015267175576,49.770992366412216
272,-0.93408203125,-0.515625,0.430419921875,-65.05343511450381,-47.404580152671755,49.51145038167939
273,-0.842041015625,-0.51220703125,0.43115234375,-69.45038167938931,-46.091603053435115,48.25954198473283
274,-0.8310546875,-0.520751953125,0.42529296875,-71.7557251908397,-46.961832061068705,46.97709923664122
275,-0.81787109375,-0.5390625,0.427001953125,-76.56488549618321,-44.82442748091603,45.25190839694657
276,-0.826416015625,-0.538330078125,0.446044921875,-78.10687022900764,-43.69465648854962,47.06870229007634
277,-0.834716796875,-0.547607421875,0.44287109375,-68.56488549618321,-41.70992366412214,46.25954198473283
278,-0.832275390625,-0.56396484375,0.440673828125,-66.58015267175573,-40.3206106870229,45.29770992366412
279,-0.855224609375,-0.6240234375,0.447998046875,-63.49618320610687,-40.12213740458015,48.396946564885496
280,-0.8779296875,-0.534423828125,0.458251953125,-61.603053435114504,-39.3587786259542,51.93893129770992
281,-0.884521484375,-0.548828125,0.46923828125,-61.61832061068702,-41.81679389312977,52.82442748091603
282,-0.899169921875,-0.539794921875,0.45703125,-57.43511450381679,-36.213740458015266,51.20610687022901
283,-0.9267578125,-0.5712890625,0.444580078125,-56.900763358778626,-37.32824427480916,50.58015267175573
284,-0.93798828125,-0.58349609375,0.449951171875,-61.3587786259542,-40.091603053435115,50.045801526717554
285,-0.94921875,-0.58935546875,0.446533203125,-61.725190839694655,-42.10687022900763,49.66412213740458
286,-0.953125,-0.56884765625,0.462890625,-60.25954198473283,-45.541984732824424,43.93893129770992
287,-0.99072265625,-0.51171875,0.47021484375,-62.97709923664122,-43.954198473282446,42.0763358778626
288,-0.981201171875,-0.617919921875,0.51171875,-55.603053435114504,-45.25190839694657,40.6412213740458
289,-0.939453125,-0.593994140625,0.52392578125,-56.10687022900763,-40.38167938931298,41.98473282442748
290,-0.972900390625,-0.5986328125,0.511962890625,-61.61832061068702,-28.03053435114504,40.534351145038165
291,-1.005615234375,-0.60205078125,0.55078125,-63.31297709923664,-24.244274809160306,44.99236641221374
292,-1.040283203125,-0.56787109375,0.553955078125,-51.587786259541986,-26.977099236641223,40.656488549618324
293,-0.99755859375,-0.5810546875,0.5810546875,-61.80152671755725,-18.916030534351144,41.80152671755725
294,-1.0537109375,-0.611572265625,0.597412109375,-61.23664122137404,-17.954198473282442,57.57251908396947
295,-1.033447265625,-0.6201171875,0.582763671875,-52.54961832061068,-23.14503816793893,54.595419847328245
296,-1.019775390625,-0.65625,0.581787109375,-44.595419847328245,-20.99236641221374,55.23664122137404
297,-0.99365234375,-0.64013671875,0.556396484375,-46.74809160305343,-24.82442748091603,53.86259541984733
298,-1.006103515625,-0.636474609375,0.584228515625,-41.725190839694655,-26.38167938931298,51.847328244274806
299,-0.964111328125,-0.682861328125,0.600341796875,-37.66412213740458,-30.427480916030536,51.9236641221374
300,-0.963623046875,-0.634033203125,0.612060546875,-33.267175572519086,-32.900763358778626,52.534351145038165
301,-0.91748046875,-0.62548828125,0.611572265625,-28.091603053435115,-24.38167938931298,46.01526717557252
302,-0.93310546875,-0.61328125,0.641845703125,-17.740458015267176,-24.53435114503817,45.80152671755725
303,-0.8583984375,-0.686279296875,0.668212890625,-5.206106870229007,-27.389312977099237,41.80152671755725
304,-0.80419921875,-0.65478515625,0.654541015625,-5.022900763358779,-19.603053435114504,41.12977099236641
305,-0.7900390625,-0.628662109375,0.6474609375,1.5877862595419847,-17.84732824427481,36.045801526717554
306,-0.75439453125,-0.63427734375,0.5771484375,0.0916030534351145,-9.083969465648854,32.16793893129771
307,-0.77978515625,-0.6103515625,0.66796875,0.12213740458015267,-19.435114503816795,41.770992366412216
308,-0.684326171875,-0.60791015625,0.6650390625,1.8473282442748091,-13.84732824427481,26.33587786259542
309,-0.71484375,-0.616455078125,0.641845703125,0.2900763358778626,-16.015267175572518,26.137404580152673
310,-0.728515625,-0.606201171875,0.65283203125,1.0381679389312977,-22.03053435114504,27.87786259541985
311,-0.764404296875,-0.59716796875,0.6650390625,-0.5648854961832062,-24.3206106870229,29.69465648854962
312,-0.744140625,-0.585693359375,0.6669921875,-7.083969465648855,-24.65648854961832,34.900763358778626
313,-0.718017578125,-0.618408203125,0.656494140625,-19.083969465648856,-21.557251908396946,33.48091603053435
314,-0.783203125,-0.570556640625,0.628662109375,-11.938931297709924,-32.36641221374046,29.72519083969466
315,-0.781494140625,-0.571044921875,0.63916015625,-18.16793893129771,-27.282442748091604,28.9618320610687
316,-0.84228515625,-0.5576171875,0.650634765625,-16.3206106870229,-25.72519083969466,28.68702290076336
317,-0.842041015625,-0.54052734375,0.642822265625,-14.213740458015268,-23.84732824427481,31.068702290076335
318,-0.838623046875,-0.54150390625,0.5673828125,-15.541984732824428,-27.114503816793892,28.35114503816794
319,-0.840087890625,-0.532470703125,0.615478515625,-9.938931297709924,-23.740458015267176,30.442748091603054
320,-0.857421875,-0.531982421875,0.5908203125,-9.511450381679388,-21.923664122137403,29.17557251908397
321,-0.87890625,-0.507080078125,0.5888671875,-8.625954198473282,-23.00763358778626,27.19083969465649
322,-0.89501953125,-0.521484375,0.59130859375,-6.748091603053435,-16.65648854961832,30.3206106870229
323,-0.893310546875,-0.518310546875,0.5625,-0.24427480916030533,-6.885496183206107,32.30534351145038
324,-0.905029296875,-0.5029296875,0.578369140625,4.244274809160306,-2.5343511450381677,31.389312977099237
325,-0.893798828125,-0.476318359375,0.610595703125,0.732824427480916,-6.5038167938931295,36.152671755725194
326,-0.84130859375,-0.467529296875,0.6123046875,-2.3206106870229006,-6.534351145038168,35.31297709923664
327,-0.837646484375,-0.454345703125,0.563232421875,-3.267175572519084,-1.3435114503816794,31.87786259541985
328,-0.851318359375,-0.440185546875,0.685546875,-0.13740458015267176,-7.511450381679389,29.14503816793893
329,-0.8505859375,-0.43896484375,0.562744140625,-4.641221374045801,-8.992366412213741,25.801526717557252
330,-0.82958984375,-0.44873046875,0.617431640625,-8.15267175572519,-10.259541984732824,23.450381679389313
331,-0.874267578125,-0.450927734375,0.6318359375,-12.641221374045802,-10.549618320610687,22.580152671755727
332,-0.799072265625,-0.46533203125,0.65380859375,-14.13740458015267,-8.992366412213741,21.96946564885496
333,-0.80126953125,-0.45751953125,0.639404296875,-14.412213740458014,-11.557251908396946,18.48854961832061
334,-0.80810546875,-0.447509765625,0.641357421875,-14.290076335877863,-5.587786259541985,19.480916030534353
335,-0.806884765625,-0.42919921875,0.635009765625,-12.717557251908397,-3.3282442748091605,15.038167938931299
336,-0.7998046875,-0.433349609375,0.649169921875,-10.274809160305344,-0.8549618320610687,14.15267175572519
337,-0.815673828125,-0.49951171875,0.650390625,-9.34351145038168,1.083969465648855,15.145038167938932
338,-0.7861328125,-0.4248046875,0.64697265625,-11.297709923664122,0.4580152671755725,16.48854961832061
339,-0.805419921875,-0.427001953125,0.656982421875,-7.358778625954199,2.7938931297709924,16.885496183206108
340,-0.814453125,-0.42724609375,0.651611328125,-7.633587786259542,2.4580152671755724,15.86259541984733
341,-0.817138671875,-0.405517578125,0.67724609375,-10.13740458015267,1.5267175572519085,15.389312977099237
342,-0.815673828125,-0.41162109375,0.62939453125,-11.893129770992367,4.977099236641221,16.47328244274809
343,-0.81689453125,-0.4267578125,0.70263671875,-10.091603053435115,5.175572519083969,14.778625954198473
344,-0.8056640625,-0.430908203125,0.70068359375,-9.923664122137405,8.0,15.725190839694656
345,-0.781982421875,-0.492919921875,0.687255859375,-0.8854961832061069,19.46564885496183,18.99236641221374
346,-0.871826171875,-0.443603515625,0.65185546875,12.091603053435115,34.70229007633588,18.015267175572518
347,-0.89794921875,-0.440185546875,0.640380859375,23.083969465648856,32.33587786259542,22.549618320610687
348,-0.84716796875,-0.418212890625,0.62548828125,26.519083969465647,34.97709923664122,22.427480916030536
349,-0.837646484375,-0.389892578125,0.608642578125,19.129770992366414,32.87022900763359,24.045801526717558
350,-0.885498046875,-0.379638671875,0.635498046875,14.198473282442748,33.80152671755725,23.923664122137403
351,-0.94677734375,-0.389404296875,0.63330078125,10.335877862595419,34.58015267175573,23.541984732824428
352,-0.968505859375,-0.42333984375,0.61962890625,8.076335877862595,35.9236641221374,31.17557251908397
353,-1.017333984375,-0.426513671875,0.622314453125,8.412213740458014,36.29007633587786,33.55725190839695
354,-1.054931640625,-0.447265625,0.620849609375,9.557251908396946,36.68702290076336,35.41984732824427
355,-1.081298828125,-0.45361328125,0.60693359375,8.381679389312977,36.50381679389313,36.79389312977099
356,-1.10888671875,-0.453857421875,0.605224609375,5.862595419847328,37.29770992366412,38.44274809160305
357,-1.11767578125,-0.439697265625,0.586669921875,3.2061068702290076,37.93893129770992,39.541984732824424
358,-1.138671875,-0.437255859375,0.56640625,0.9770992366412213,39.80152671755725,39.23664122137404
359,-1.140869140625,-0.425048828125,0.55615234375,-1.450381679389313,39.45038167938932,42.916030534351144
360,-1.140380859375,-0.40869140625,0.53564453125,-3.4198473282442747,37.52671755725191,35.23664122137404
361,-1.15869140625,-0.499267578125,0.5341796875,-5.465648854961832,36.01526717557252,36.99236641221374
362,-1.1533203125,-0.4287109375,0.523681640625,-6.030534351145038,34.10687022900763,39.43511450381679
363,-1.154541015625,-0.41357421875,0.5244140625,-5.755725190839694,33.74045801526717,35.282442748091604
364,-1.1875,-0.411376953125,0.53271484375,-7.312977099236641,32.48854961832061,38.48854961832061
365,-1.11376953125,-0.396484375,0.527099609375,-4.106870229007634,32.778625954198475,35.52671755725191
366,-1.15234375,-0.362548828125,0.505859375,-11.34351145038168,31.389312977099237,33.954198473282446
367,-1.13623046875,-0.351318359375,0.51123046875,-11.740458015267176,33.603053435114504,28.229007633587788
368,-1.086181640625,-0.326904296875,0.4931640625,-18.198473282442748,31.61832061068702,21.022900763358777
369,-1.116455078125,-0.328857421875,0.499755859375,-22.549618320610687,28.900763358778626,15.877862595419847
370,-1.04541015625,-0.328125,0.496337890625,-23.572519083969464,28.83969465648855,11.954198473282442
371,-1.037353515625,-0.31201171875,0.487060546875,-32.48854961832061,28.47328244274809,8.946564885496183
372,-1.03173828125,-0.3193359375,0.484375,-37.14503816793893,28.244274809160306,6.5038167938931295
373,-0.97802734375,-0.310791015625,0.4697265625,-41.86259541984733,24.625954198473284,4.763358778625954
374,-0.968505859375,-0.328857421875,0.44970703125,-53.69465648854962,26.885496183206108,5.648854961832061
375,-0.908935546875,-0.327880859375,0.4775390625,-47.29770992366412,19.0381679389313,0.21374045801526717
376,-0.967041015625,-0.35888671875,0.37548828125,-60.152671755725194,14.717557251908397,1.4809160305343512
377,-0.910888671875,-0.363037109375,0.38623046875,-62.83969465648855,8.091603053435115,0.9007633587786259
378,-0.95458984375,-0.371826171875,0.386474609375,-71.37404580152672,7.541984732824427,1.3129770992366412
379,-0.994140625,-0.370849609375,0.3818359375,-79.26717557251908,4.091603053435114,4.732824427480916
380,-1.0068359375,-0.375,0.39501953125,-83.6793893129771,-0.33587786259541985,0.549618320610687
381,-0.998779296875,-0.402587890625,0.41845703125,-78.94656488549619,-12.198473282442748,3.5267175572519083
382,-1.020263671875,-0.4169921875,0.410888671875,-74.97709923664122,-24.671755725190838,-0.9312977099236641
383,-1.031982421875,-0.40869140625,0.40771484375,-69.32824427480917,-30.229007633587788,-2.0
384,-1.111083984375,-0.40380859375,0.4287109375,-58.83969465648855,-33.32824427480916,-0.5801526717557252
385,-1.152099609375,-0.400146484375,0.406982421875,-52.412213740458014,-38.82442748091603,2.9923664122137406
386,-1.17236328125,-0.396484375,0.42724609375,-47.05343511450382,-35.63358778625954,5.282442748091603
387,-1.14892578125,-0.410400390625,0.498046875,-42.35114503816794,-33.80152671755725,6.122137404580153
388,-1.12890625,-0.427978515625,0.421875,-32.99236641221374,-27.31297709923664,11.221374045801527
389,-1.197265625,-0.42236328125,0.380859375,-22.076335877862597,-10.030534351145038,14.610687022900763
390,-1.2109375,-0.40771484375,0.467041015625,-13.908396946564885,-3.480916030534351,17.587786259541986
391,-1.17138671875,-0.421142578125,0.487548828125,-8.854961832061068,-6.687022900763359,19.572519083969464
392,-1.0224609375,-0.400390625,0.50732421875,-7.572519083969466,-13.022900763358779,19.022900763358777
393,-1.0927734375,-0.43701171875,0.47607421875,-3.1908396946564888,-11.755725190839694,13.618320610687023
394,-1.1181640625,-0.336669921875,0.47607421875,-1.2671755725190839,-8.076335877862595,8.412213740458014
395,-1.08740234375,-0.348388671875,0.48828125,-1.2061068702290076,-18.442748091603054,5.0534351145038165
396,-0.9912109375,-0.375,0.54052734375,-7.419847328244275,-26.48854961832061,-0.6717557251908397
397,-0.950927734375,-0.385986328125,0.535888671875,-9.32824427480916,-33.64885496183206,-6.778625954198473
398,-1.027099609375,-0.414794921875,0.54931640625,-7.1603053435114505,-24.48854961832061,-10.50381679389313
399,-1.061279296875,-0.412109375,0.5009765625,37.43511450381679,14.50381679389313,-16.946564885496183
400,-1.158935546875,-0.27001953125,0.572021484375,32.33587786259542,-17.328244274809162,-7.908396946564886
401,-0.902099609375,-0.389404296875,0.549072265625,19.740458015267176,-10.67175572519084,-5.00763358778626
402,-0.964111328125,-0.34521484375,0.580322265625,14.82442748091603,-10.931297709923664,-8.198473282442748
403,-0.9521484375,-0.3271484375,0.566650390625,9.526717557251908,-14.259541984732824,-8.045801526717558
404,-1.03955078125,-0.293212890625,0.551025390625,-6.809160305343512,-25.435114503816795,-14.961832061068701
405,-1.0537109375,-0.3310546875,0.525146484375,-17.419847328244273,-25.31297709923664,-4.2748091603053435
406,-1.05908203125,-0.372314453125,0.57275390625,-18.82442748091603,-26.12213740458015,1.618320610687023
407,-0.99609375,-0.4521484375,0.593994140625,-6.091603053435114,-22.15267175572519,3.1603053435114505
408,-0.904052734375,-0.524658203125,0.611572265625,13.969465648854962,-19.267175572519083,6.106870229007634
409,-0.903076171875,-0.524169921875,0.641357421875,31.709923664122137,-12.580152671755725,6.152671755725191
410,-0.893798828125,-0.438720703125,0.629150390625,45.20610687022901,-7.145038167938932,8.717557251908397
411,-0.8681640625,-0.44970703125,0.6279296875,63.63358778625954,53.98473282442748,31.389312977099237
412,-1.006103515625,-0.390380859375,0.5068359375,113.58778625954199,69.81679389312977,34.030534351145036
413,-1.10888671875,-0.331298828125,0.59912109375,80.59541984732824,23.297709923664122,36.61068702290076
414,-0.9765625,-0.50146484375,0.596923828125,99.63358778625954,36.97709923664122,54.152671755725194
415,-1.1875,-0.392822265625,0.5029296875,131.89312977099237,82.94656488549619,82.33587786259542
416,-1.071044921875,-0.300537109375,0.65966796875,140.0,92.76335877862596,80.51908396946565
417,-0.774169921875,-0.16357421875,0.472412109375,143.09923664122138,45.603053435114504,-46.916030534351144
418,-0.403564453125,1.1845703125,0.942138671875,-103.74045801526718,-65.66412213740458,-61.83206106870229
419,-1.03369140625,-1.20654296875,0.58642578125,47.29770992366412,-25.52671755725191,-8.549618320610687
420,-0.88232421875,-0.18212890625,0.59130859375,31.404580152671755,-28.15267175572519,-26.33587786259542
421,-0.9365234375,-0.275146484375,0.61181640625,30.38167938931298,-14.916030534351146,-20.85496183206107
422,-0.928955078125,-0.24609375,0.57958984375,22.977099236641223,-15.755725190839694,-19.114503816793892
423,-0.89892578125,-0.261962890625,0.580322265625,23.81679389312977,-12.870229007633588,-16.442748091603054
424,-0.9775390625,-0.227294921875,0.551513671875,22.82442748091603,-10.992366412213741,-14.610687022900763
425,-1.02685546875,-0.235595703125,0.553955078125,29.69465648854962,-5.267175572519084,-17.84732824427481
426,-1.028076171875,-0.230712890625,0.55224609375,22.18320610687023,9.206106870229007,-4.290076335877862
427,-1.055419921875,-0.240478515625,0.583251953125,47.70992366412214,19.374045801526716,-23.221374045801525
428,-1.009765625,-0.2119140625,0.571044921875,36.274809160305345,25.419847328244273,-1.5725190839694656
429,-1.061279296875,-0.326416015625,0.6015625,45.93893129770992,36.74809160305343,-11.114503816793894
430,-0.91650390625,-0.372314453125,0.6513671875,44.44274809160305,35.80152671755725,-9.938931297709924
431,-0.84130859375,-0.29833984375,0.635986328125,36.6412213740458,16.045801526717558,-16.47328244274809
432,-0.92138671875,-0.310791015625,0.638671875,38.961832061068705,10.748091603053435,-13.694656488549619
433,-0.955322265625,-0.276611328125,0.633544921875,29.69465648854962,-1.4198473282442747,-15.083969465648854
434,-0.96142578125,-0.28515625,0.64794921875,22.68702290076336,-5.786259541984733,-7.8320610687022905
435,-0.95751953125,-0.26025390625,0.625732421875,22.82442748091603,-12.961832061068701,-10.900763358778626
436,-0.99267578125,-0.253662109375,0.68359375,11.83206106870229,-14.854961832061068,-11.17557251908397
437,-1.026611328125,-0.23828125,0.624755859375,13.053435114503817,-16.33587786259542,-12.702290076335878
438,-1.014892578125,-0.268310546875,0.636962890625,9.84732824427481,-18.641221374045802,-10.885496183206106
439,-1.009521484375,-0.2568359375,0.649169921875,4.702290076335878,-21.61832061068702,-10.045801526717558
440,-1.0126953125,-0.2431640625,0.640625,0.183206106870229,-23.862595419847327,-9.893129770992367
441,-1.014892578125,-0.245361328125,0.6337890625,-3.2519083969465647,-26.38167938931298,-9.32824427480916
442,-0.99072265625,-0.260009765625,0.6552734375,-4.977099236641221,-27.72519083969466,-8.335877862595419
443,-1.002197265625,-0.31103515625,0.654052734375,-2.2748091603053435,-27.72519083969466,-3.9389312977099236
444,-0.984619140625,-0.30712890625,0.6259765625,2.6106870229007635,-24.396946564885496,-7.679389312977099
445,-1.009521484375,-0.266357421875,0.60546875,4.473282442748092,-21.251908396946565,-6.122137404580153
446,-1.04150390625,-0.25830078125,0.619873046875,3.435114503816794,-18.015267175572518,-4.656488549618321
447,-1.021484375,-0.262451171875,0.631103515625,-1.7557251908396947,-16.198473282442748,-1.0076335877862594
448,-1.060791015625,-0.27783203125,0.63330078125,-6.33587786259542,-13.709923664122137,2.519083969465649
449,-1.08740234375,-0.27734375,0.603271484375,-10.687022900763358,-11.267175572519085,5.038167938931298
450,-1.0966796875,-0.309326171875,0.592529296875,-13.221374045801527,-10.274809160305344,8.412213740458014
451,-1.08984375,-0.318115234375,0.584228515625,-15.801526717557252,-10.290076335877863,9.679389312977099
452,-1.0859375,-0.321044921875,0.568115234375,-15.694656488549619,-12.625954198473282,11.297709923664122
453,-1.0654296875,-0.288330078125,0.551513671875,-19.984732824427482,-9.282442748091603,14.931297709923664
454,-1.091552734375,-0.250732421875,0.53515625,-25.251908396946565,-6.305343511450381,16.30534351145038
455,-1.11181640625,-0.27099609375,0.545166015625,-39.725190839694655,-18.33587786259542,9.893129770992367
456,-1.158203125,-0.344970703125,0.552978515625,-41.9236641221374,-14.198473282442748,12.122137404580153
457,-1.105712890625,-0.32177734375,0.54150390625,-44.213740458015266,-17.267175572519083,11.572519083969466
458,-1.1142578125,-0.33447265625,0.550048828125,-50.0763358778626,-19.251908396946565,11.221374045801527
459,-1.10693359375,-0.2802734375,0.541259765625,-57.37404580152672,-20.213740458015266,5.648854961832061
460,-1.1279296875,-0.28759765625,0.555908203125,-58.778625954198475,-10.030534351145038,4.702290076335878
461,-1.1181640625,-0.269287109375,0.53759765625,-64.27480916030534,1.3587786259541985,4.320610687022901
462,-1.071044921875,-0.305419921875,0.55322265625,-59.465648854961835,1.6030534351145038,8.473282442748092
463,-1.077880859375,-0.24072265625,0.5185546875,-85.46564885496183,-2.900763358778626,-1.3893129770992367
464,-1.236572265625,-1.084716796875,-2.1884765625,-173.4351145038168,-155.78625954198472,-216.77862595419847
465,-0.277099609375,-0.814697265625,0.844482421875,-123.52671755725191,10.259541984732824,10.488549618320612
466,-1.470458984375,-0.85888671875,0.593994140625,-47.52671755725191,27.740458015267176,12.259541984732824
467,-0.901123046875,-0.3310546875,0.49658203125,-72.18320610687023,-13.755725190839694,-7.251908396946565
468,-0.9677734375,-0.326904296875,0.498291015625,-85.61832061068702,-25.34351145038168,-4.99236641221374
469,-0.9892578125,-0.37548828125,0.538330078125,-83.25190839694656,-4.488549618320611,10.595419847328245
470,-0.9541015625,-0.478515625,0.515625,-80.35114503816794,-3.1603053435114505,24.916030534351144
471,-0.959716796875,-0.483642578125,0.541015625,-81.83206106870229,-3.4198473282442747,32.595419847328245
472,-0.94091796875,-0.4912109375,0.572021484375,-79.16030534351145,-11.297709923664122,34.229007633587784
473,-0.8984375,-0.469482421875,0.577392578125,-82.73282442748092,-15.419847328244275,31.404580152671755
474,-0.893798828125,-0.492919921875,0.620361328125,-87.77099236641222,-22.366412213740457,34.35114503816794
475,-0.889892578125,-0.495361328125,0.5263671875,-91.19083969465649,-31.114503816793892,44.58015267175573
476,-0.941162109375,-0.46484375,0.506103515625,-98.85496183206106,-20.870229007633586,39.14503816793893
477,-0.86669921875,-0.4482421875,0.46533203125,-104.13740458015268,-22.931297709923665,26.427480916030536
478,-0.953857421875,-0.417724609375,0.413330078125,-114.10687022900764,-8.16793893129771,31.129770992366414
479,-1.058837890625,-0.377685546875,0.41162109375,-121.52671755725191,-19.52671755725191,23.358778625954198
480,-1.269287109375,-0.495849609375,0.3203125,-138.29007633587787,-30.763358778625953,10.961832061068701
481,-1.024169921875,-0.424072265625,0.376220703125,-137.6946564885496,-43.3587786259542,5.129770992366412
482,-0.871826171875,-0.531005859375,0.433349609375,-145.3587786259542,-45.81679389312977,7.740458015267175
483,-0.984619140625,-0.395751953125,0.3798828125,-150.12213740458014,-38.83969465648855,11.099236641221374
484,-0.94677734375,-0.538818359375,0.3759765625,-159.5267175572519,-31.34351145038168,19.083969465648856
485,-0.98876953125,-0.650146484375,0.319580078125,-176.85496183206106,-19.61832061068702,21.87786259541985
486,-0.962158203125,-0.537353515625,0.305419921875,-184.74809160305344,-13.34351145038168,27.64885496183206
487,-1.0361328125,-0.50390625,0.25341796875,-197.0381679389313,-6.99236641221374,39.66412213740458
488,-1.09228515625,-0.534912109375,0.3037109375,-214.94656488549617,2.687022900763359,49.02290076335878
489,-1.05322265625,-0.6005859375,0.224365234375,-218.29007633587787,15.053435114503817,53.00763358778626
490,-1.036865234375,-0.510009765625,0.132568359375,-220.0916030534351,35.6793893129771,56.01526717557252
491,-1.246337890625,-0.454345703125,0.071533203125,-233.0381679389313,77.41984732824427,60.54961832061068
492,-1.14892578125,-0.67333984375,0.093017578125,-223.16030534351145,130.9618320610687,58.900763358778626
493,-1.1923828125,-0.71923828125,0.208984375,-195.1908396946565,112.9618320610687,56.595419847328245
494,-1.156494140625,-0.701904296875,0.160888671875,-184.19847328244273,79.57251908396947,48.56488549618321
495,-1.133056640625,-0.67578125,0.05419921875,-183.40458015267177,81.69465648854961,41.17557251908397
496,-1.03662109375,-0.66015625,0.069091796875,-175.0381679389313,65.37404580152672,39.89312977099237
497,-1.03759765625,-0.65283203125,0.07470703125,-173.75572519083968,45.57251908396947,38.76335877862596
498,-1.02099609375,-0.6806640625,0.067138671875,-171.29770992366412,44.79389312977099,27.572519083969464
499,-0.957763671875,-0.633056640625,0.012451171875,-179.6793893129771,40.68702290076336,22.83969465648855
500,-0.907958984375,-0.636962890625,0.0302734375,-194.0763358778626,35.786259541984734,20.519083969465647
501,-0.94189453125,-0.580078125,-0.013916015625,-204.65648854961833,48.10687022900763,10.961832061068701
502,-1.11279296875,-0.607421875,-0.012939453125,-209.66412213740458,50.091603053435115,-0.4122137404580153
503,-1.1181640625,-0.6201171875,-0.020751953125,-203.80152671755727,54.0,-20.65648854961832
504,-1.13818359375,-0.517822265625,0.021728515625,-155.16030534351145,93.38931297709924,-87.06870229007633
505,-1.173583984375,-0.951171875,-0.259521484375,-148.18320610687022,20.412213740458014,38.79389312977099
506,-1.19189453125,-1.40478515625,-0.100341796875,-128.90076335877862,28.717557251908396,15.603053435114504
507,-0.878662109375,-0.531982421875,0.09765625,-111.16030534351145,11.038167938931299,-14.564885496183207
508,-0.979736328125,-0.69287109375,-0.037109375,-114.58015267175573,8.412213740458014,-4.854961832061068
509,-1.056640625,-0.647216796875,-0.01416015625,-108.2442748091603,10.717557251908397,-10.793893129770993
510,-1.025146484375,-0.680419921875,-0.032958984375,-111.17557251908397,13.618320610687023,-4.320610687022901
511,-0.955322265625,-0.662841796875,-0.0517578125,-104.53435114503817,23.34351145038168,-6.213740458015267
512,-1.11669921875,-0.61669921875,-0.0576171875,-108.21374045801527,28.671755725190838,-3.282442748091603
513,-1.070556640625,-0.756103515625,-0.01611328125,-96.09160305343511,28.38167938931298,-1.1450381679389312
514,-1.0166015625,-0.76708984375,-0.00439453125,-96.6412213740458,24.290076335877863,10.916030534351146
515,-1.124755859375,-0.749267578125,-0.076904296875,-87.5114503816794,16.290076335877863,3.068702290076336
516,-1.0361328125,-0.707275390625,-0.102783203125,-93.23664122137404,14.351145038167939,9.114503816793894
517,-1.0419921875,-0.7138671875,-0.1533203125,-102.35114503816794,20.3206106870229,20.427480916030536
518,-0.90869140625,-0.57373046875,-0.139404296875,-122.67175572519083,23.267175572519083,17.709923664122137
519,-1.045654296875,-0.6318359375,-0.177490234375,-123.92366412213741,23.328244274809162,22.946564885496183
520,-1.015380859375,-0.820068359375,-0.159423828125,-122.18320610687023,8.992366412213741,27.49618320610687
521,-0.94482421875,-0.761474609375,-0.5595703125,-143.81679389312978,-127.00763358778626,1.8778625954198473
522,-0.99658203125,-0.686767578125,0.046875,-129.96946564885496,-51.63358778625954,37.6793893129771
523,-1.041015625,-1.076171875,-0.142822265625,-100.70229007633588,-46.412213740458014,65.78625954198473
524,-1.0400390625,-0.8193359375,-0.29541015625,-119.64885496183206,-86.42748091603053,39.908396946564885
525,-0.939208984375,-0.678466796875,-0.216552734375,-121.23664122137404,-95.77099236641222,30.870229007633586
526,-0.99658203125,-0.75341796875,-0.19482421875,-119.52671755725191,-97.19083969465649,31.541984732824428
527,-1.0068359375,-0.722412109375,-0.19775390625,-118.82442748091603,-93.12977099236642,24.53435114503817
528,-0.989990234375,-0.66064453125,-0.182861328125,-123.41984732824427,-87.83206106870229,19.52671755725191
529,-1.003173828125,-0.720458984375,-0.189697265625,-134.27480916030535,-88.35114503816794,10.534351145038167
530,-0.994873046875,-0.75537109375,-0.19873046875,-144.74809160305344,-88.54961832061069,6.290076335877862
531,-0.966552734375,-0.763671875,-0.201416015625,-157.95419847328245,-82.51908396946565,8.427480916030534
532,-0.989990234375,-0.809814453125,-0.23486328125,-172.61068702290078,-102.74809160305344,16.38167938931298
533,-1.00634765625,-0.926513671875,-0.157470703125,-186.12213740458014,-113.72519083969466,21.603053435114504
534,-1.028076171875,-0.864501953125,-0.15380859375,-182.9770992366412,-110.29007633587786,34.50381679389313
535,-1.0439453125,-0.683349609375,-0.208984375,-190.73282442748092,-108.97709923664122,37.969465648854964
536,-1.0458984375,-0.68994140625,-0.20703125,-206.87022900763358,-94.06106870229007,48.16793893129771
537,-0.80224609375,-0.654052734375,-0.23828125,-187.3740458015267,-46.58015267175573,41.25190839694657
538,-1.10205078125,-0.728759765625,-0.232177734375,-190.36641221374046,-54.2442748091603,40.68702290076336
539,-1.033935546875,-0.697265625,-0.19091796875,-193.22137404580153,-48.717557251908396,36.06106870229008
540,-0.983642578125,-0.806884765625,-0.243896484375,-190.12213740458014,-41.49618320610687,33.29770992366412
541,-1.01123046875,-0.832275390625,-0.225341796875,-182.7175572519084,-39.16030534351145,31.435114503816795
542,-1.021484375,-0.869140625,-0.22998046875,-170.42748091603053,-37.969465648854964,28.625954198473284
543,-1.033447265625,-0.865478515625,-0.222900390625,-157.61832061068702,-36.274809160305345,28.85496183206107
544,-1.041015625,-0.853515625,-0.20166015625,-145.00763358778627,-41.17557251908397,25.786259541984734
545,-1.06201171875,-0.7705078125,-0.227294921875,-141.09923664122138,-53.57251908396947,18.519083969465647
546,-1.038818359375,-0.6630859375,-0.189453125,-133.74045801526717,126.07633587786259,40.0
547,-1.6904296875,-0.20068359375,-0.201416015625,-128.36641221374046,171.4351145038168,36.93129770992366
548,-0.7451171875,-0.94580078125,-0.267333984375,-128.93129770992365,92.38167938931298,14.610687022900763
549,-1.04150390625,-0.7685546875,-0.3076171875,-108.1526717557252,90.77862595419847,22.229007633587788
550,-0.95458984375,-0.772705078125,-0.29541015625,-99.54198473282443,79.87786259541984,20.061068702290076
551,-0.867919921875,-0.802490234375,-0.27734375,-93.98473282442748,64.97709923664122,5.679389312977099
552,-0.95849609375,-0.787841796875,-0.306640625,-93.38931297709924,54.6412213740458,-1.6030534351145038
553,-0.938720703125,-0.728759765625,-0.34521484375,-84.80916030534351,44.54961832061068,-3.954198473282443
554,-0.9375,-0.691650390625,-0.352294921875,-81.74045801526718,45.83206106870229,-4.900763358778626
555,-1.031494140625,-0.669189453125,-0.38720703125,-69.64885496183206,47.267175572519086,-3.816793893129771
556,-1.001220703125,-0.648681640625,-0.41162109375,-67.8473282442748,53.51145038167939,1.251908396946565
557,-1.155029296875,-0.596923828125,-0.4296875,-67.66412213740458,46.01526717557252,0.7786259541984732
558,-1.056640625,-0.56982421875,-0.446533203125,-62.213740458015266,70.76335877862596,2.5801526717557253
559,-1.119140625,-0.55126953125,-0.489990234375,-61.083969465648856,86.68702290076335,2.015267175572519
560,-1.22021484375,-0.563720703125,-0.49267578125,-59.23664122137404,63.282442748091604,-11.297709923664122
561,-1.043212890625,-0.545166015625,-0.5546875,-81.83206106870229,47.465648854961835,-34.229007633587784
562,-1.06640625,-0.430908203125,-0.55224609375,-80.91603053435115,25.31297709923664,-24.68702290076336
563,-1.3408203125,-0.64208984375,-0.560546875,-77.74045801526718,-0.9465648854961832,-14.65648854961832
564,-1.1337890625,-0.665283203125,-0.5341796875,-68.0,-4.076335877862595,-12.198473282442748
565,-1.22900390625,-0.5322265625,-0.52587890625,-56.01526717557252,-7.816793893129771,-6.778625954198473
566,-1.20166015625,-0.383544921875,-0.551513671875,-71.49618320610686,-26.27480916030534,-6.519083969465649
567,-1.19091796875,-0.48779296875,-0.5791015625,-80.16793893129771,-31.61832061068702,0.3053435114503817
568,-1.182861328125,-0.457275390625,-0.591064453125,-88.22900763358778,-38.50381679389313,6.900763358778626
569,-1.253173828125,-0.548828125,-0.54736328125,-96.4885496183206,-44.01526717557252,12.198473282442748
570,-1.177978515625,-0.5107421875,-0.496826171875,-91.83206106870229,-51.541984732824424,15.282442748091603
571,-1.140869140625,-0.48388671875,-0.48046875,-88.80916030534351,-51.80152671755725,19.954198473282442
572,-1.209716796875,-0.4912109375,-0.54638671875,-87.23664122137404,-54.19847328244275,13.86259541984733
573,-1.30810546875,-0.45947265625,-0.49365234375,-77.5114503816794,-51.083969465648856,17.099236641221374
574,-1.278564453125,-0.446044921875,-0.439208984375,-69.92366412213741,-45.51145038167939,18.198473282442748
575,-1.31005859375,-0.39306640625,-0.464111328125,-74.07633587786259,-49.786259541984734,7.267175572519084
576,-1.259521484375,-0.40771484375,-0.38818359375,-67.72519083969466,-64.03053435114504,-1.3435114503816794
577,-1.2392578125,-0.3955078125,-0.45068359375,-73.92366412213741,-69.92366412213741,-11.007633587786259
578,-1.26123046875,-0.453125,-0.43212890625,-75.6793893129771,-70.33587786259542,-10.702290076335878
579,-1.22705078125,-0.498291015625,-0.400390625,-76.04580152671755,-61.45038167938932,-7.221374045801527
580,-1.201416015625,-0.482666015625,-0.32568359375,-75.98473282442748,-58.10687022900763,6.6106870229007635
581,-1.210205078125,-0.4677734375,-0.32421875,-74.93129770992367,-48.35114503816794,8.274809160305344
582,-1.159912109375,-0.48828125,-0.26513671875,-77.6030534351145,-44.2442748091603,18.18320610687023
583,-1.150390625,-0.48583984375,-0.22314453125,-74.25954198473282,-42.2442748091603,23.053435114503817
584,-1.135986328125,-0.46533203125,-0.215087890625,-73.80152671755725,-34.35114503816794,23.61832061068702
585,-1.183349609375,-0.5,-0.205322265625,-74.99236641221374,-30.793893129770993,27.541984732824428
586,-1.133056640625,-0.5078125,-0.211181640625,-73.61832061068702,-30.870229007633586,27.31297709923664
587,-1.154052734375,-0.500732421875,-0.216064453125,-59.61832061068702,-33.45038167938932,25.221374045801525
588,-1.23046875,-0.442626953125,-0.192138671875,-53.51145038167939,-31.84732824427481,21.83206106870229
589,-1.251708984375,-0.43798828125,-0.22314453125,-52.79389312977099,-29.068702290076335,22.595419847328245
590,-1.2529296875,-0.496337890625,-0.23681640625,-55.51145038167939,-31.251908396946565,20.564885496183205
591,-1.226318359375,-0.52392578125,-0.213134765625,-49.89312977099237,-36.06106870229008,20.412213740458014
592,-1.255859375,-0.53857421875,-0.165283203125,-36.85496183206107,-35.587786259541986,24.946564885496183
593,-1.261962890625,-0.510986328125,-0.11474609375,-30.290076335877863,-29.099236641221374,27.236641221374047
594,-1.2314453125,-0.49267578125,-0.089599609375,-15.053435114503817,-28.076335877862597,22.412213740458014
595,-1.244873046875,-0.47412109375,-0.12255859375,2.900763358778626,-20.870229007633586,22.625954198473284
596,-1.234619140625,-0.45361328125,-0.073974609375,4.549618320610687,-14.335877862595419,20.946564885496183
597,-1.2119140625,-0.443115234375,-0.120849609375,0.7938931297709924,-13.465648854961833,16.16793893129771
598,-1.21630859375,-0.418212890625,-0.129150390625,-4.564885496183206,-14.992366412213741,11.312977099236642
599,-1.216064453125,-0.42529296875,-0.12939453125,-9.511450381679388,-17.00763358778626,9.358778625954198
600,-1.2216796875,-0.441162109375,-0.1337890625,-8.67175572519084,-17.374045801526716,7.480916030534351
601,-1.236083984375,-0.450439453125,-0.13525390625,-5.404580152671755,-17.66412213740458,6.870229007633588
602,-1.2158203125,-0.451171875,-0.137451171875,-3.1297709923664123,-18.396946564885496,6.152671755725191
603,-1.1962890625,-0.439453125,-0.140869140625,-3.0381679389312977,-15.648854961832061,4.885496183206107
604,-1.205078125,-0.466064453125,-0.111328125,-2.4122137404580153,-17.129770992366414,7.038167938931298
605,-1.216064453125,-0.515625,-0.09912109375,5.297709923664122,-11.114503816793894,11.083969465648854
606,-1.217529296875,-0.491455078125,-0.0986328125,15.572519083969466,-4.33587786259542,13.84732824427481
607,-1.151611328125,-0.444580078125,-0.083984375,24.671755725190838,6.458015267175573,19.96946564885496
608,-1.182373046875,-0.427001953125,-0.09765625,31.14503816793893,10.106870229007633,24.30534351145038
609,-1.147216796875,-0.382568359375,-0.076171875,34.152671755725194,5.603053435114504,11.526717557251908
610,-1.181884765625,-0.17431640625,-0.266845703125,2.4732824427480917,-14.702290076335878,-17.00763358778626
611,-1.079833984375,-0.560302734375,-0.064453125,25.34351145038168,-4.412213740458015,-1.2366412213740459
612,-1.1513671875,-0.3203125,-0.151123046875,26.83969465648855,-8.305343511450381,-3.145038167938931
613,-1.169677734375,-0.405517578125,-0.150146484375,29.297709923664122,-7.770992366412214,-6.5038167938931295
614,-1.1796875,-0.40478515625,-0.173095703125,29.51145038167939,-3.3893129770992365,-5.847328244274809
615,-1.166748046875,-0.396484375,-0.25,30.198473282442748,-0.7633587786259542,-7.465648854961832
616,-1.164306640625,-0.35400390625,-0.19580078125,27.419847328244273,2.3969465648854964,-11.022900763358779
617,-1.1650390625,-0.36669921875,-0.213134765625,24.47328244274809,7.801526717557252,-11.969465648854962
618,-1.158935546875,-0.40625,-0.203369140625,21.221374045801525,2.2900763358778624,-10.305343511450381
619,-1.16650390625,-0.37646484375,-0.201171875,20.259541984732824,0.030534351145038167,-6.900763358778626
620,-1.159423828125,-0.43115234375,-0.193115234375,21.938931297709924,-1.9236641221374047,-3.633587786259542
621,-1.160400390625,-0.4169921875,-0.181396484375,26.27480916030534,-4.748091603053435,-3.8931297709923665
622,-1.143310546875,-0.392578125,-0.172607421875,33.55725190839695,-5.9541984732824424,2.16793893129771
623,-1.139404296875,-0.436279296875,-0.164794921875,39.603053435114504,-5.480916030534351,1.9694656488549618
624,-1.121826171875,-0.387451171875,-0.149658203125,49.49618320610687,-4.122137404580153,1.0534351145038168
625,-1.064697265625,-0.40087890625,-0.065673828125,60.70229007633588,-4.366412213740458,-1.1297709923664123
626,-1.185302734375,-0.188232421875,-0.23193359375,57.19083969465649,-48.091603053435115,-37.52671755725191
627,-1.167724609375,-0.226318359375,-0.159912109375,52.13740458015267,-43.93893129770992,-22.671755725190838
628,-1.232177734375,-0.634521484375,-0.08056640625,62.778625954198475,-31.267175572519083,3.068702290076336
629,-1.09423828125,-0.507080078125,-0.098388671875,75.86259541984732,-24.0,2.183206106870229
630,-1.15673828125,-0.370361328125,-0.071044921875,78.1526717557252,-46.916030534351144,-6.534351145038168
631,-1.18701171875,-0.357666015625,-0.08251953125,74.35114503816794,-27.66412213740458,-4.656488549618321
632,-1.1943359375,-0.401611328125,-0.066162109375,71.81679389312977,-41.587786259541986,-6.366412213740458
633,-1.089599609375,-0.427734375,-0.0205078125,73.52671755725191,-28.549618320610687,-4.488549618320611
634,-1.18798828125,-0.379150390625,-0.12255859375,68.82442748091603,-37.282442748091604,-5.740458015267175
635,-1.228759765625,-0.3486328125,-0.06396484375,65.72519083969466,-33.57251908396947,-6.9465648854961835
636,-1.1279296875,-0.380859375,-0.01611328125,62.47328244274809,-51.43511450381679,-21.389312977099237
637,-1.130615234375,-0.44189453125,-0.042724609375,54.80916030534351,-78.87022900763358,-34.25954198473283
638,-1.184814453125,-0.3681640625,-0.02392578125,48.13740458015267,-84.3206106870229,-37.32824427480916
639,-1.142578125,-0.362548828125,-0.014404296875,37.52671755725191,-75.2824427480916,-37.70992366412214
640,-1.0703125,-0.35693359375,-0.010986328125,36.42748091603053,-74.58015267175573,-39.63358778625954
641,-1.166259765625,-0.383544921875,0.05859375,32.01526717557252,-70.41221374045801,-39.66412213740458
642,-1.168701171875,-0.34521484375,-0.0263671875,30.931297709923665,-58.656488549618324,-39.19083969465649
643,-1.18408203125,-0.38916015625,0.006591796875,31.83206106870229,-54.13740458015267,-24.977099236641223
644,-1.144287109375,-0.358154296875,0.0009765625,35.57251908396947,-33.282442748091604,-4.778625954198473
645,-1.241943359375,-0.325439453125,-0.013916015625,43.770992366412216,-19.099236641221374,2.5343511450381677
646,-1.243896484375,-0.409912109375,0.008056640625,40.68702290076336,-15.236641221374045,1.9694656488549618
647,-1.22509765625,-0.400634765625,-0.006591796875,41.64885496183206,-7.572519083969466,5.541984732824427
648,-1.245361328125,-0.404296875,-0.018310546875,46.87022900763359,3.3435114503816794,6.290076335877862
649,-1.244140625,-0.4091796875,-0.03466796875,41.45038167938932,7.740458015267175,5.786259541984733
650,-1.226806640625,-0.4033203125,-0.043212890625,40.18320610687023,11.740458015267176,5.603053435114504
651,-1.219970703125,-0.409423828125,-0.048828125,43.49618320610687,24.106870229007633,9.297709923664122
652,-1.24462890625,-0.398681640625,-0.0732421875,42.70229007633588,38.412213740458014,10.15267175572519
653,-1.273681640625,-0.39404296875,-0.085693359375,42.18320610687023,41.770992366412216,3.6946564885496183
654,-1.2138671875,-0.31298828125,-0.105712890625,29.633587786259543,43.908396946564885,-7.526717557251908
655,-1.189697265625,-0.424072265625,-0.13623046875,19.709923664122137,53.41984732824427,-5.404580152671755
656,-1.229248046875,-0.37646484375,-0.171630859375,17.46564885496183,59.038167938931295,-0.916030534351145
657,-1.162841796875,-0.44677734375,-0.167236328125,14.732824427480915,59.725190839694655,-8.961832061068701
658,-1.14599609375,-0.48828125,-0.183349609375,9.450381679389313,61.48091603053435,-12.595419847328245
659,-1.139404296875,-0.506591796875,-0.17236328125,16.564885496183205,65.86259541984732,-19.16030534351145
660,-1.060302734375,-0.54248046875,-0.130615234375,21.267175572519083,60.2442748091603,-24.427480916030536
661,-0.99853515625,-0.53515625,-0.171630859375,20.015267175572518,62.62595419847328,-26.015267175572518
662,-1.102783203125,-0.64013671875,-0.199951171875,17.022900763358777,66.19847328244275,-33.43511450381679
663,-0.8759765625,-0.433349609375,-0.1455078125,7.862595419847328,55.05343511450382,-46.70229007633588
664,-0.96044921875,-0.63671875,-0.33544921875,-12.290076335877863,48.213740458015266,-48.62595419847328
665,-1.102294921875,-0.674560546875,-0.2880859375,-24.045801526717558,31.984732824427482,-38.16793893129771
666,-1.128173828125,-0.753173828125,-0.40234375,-19.435114503816795,17.16030534351145,-14.763358778625955
667,-1.080078125,-0.78662109375,-0.396240234375,-21.96946564885496,18.015267175572518,-0.9465648854961832
668,-1.088134765625,-0.769775390625,-0.37939453125,-25.6793893129771,18.82442748091603,6.519083969465649
669,-1.082763671875,-0.741943359375,-0.36865234375,-26.885496183206108,18.396946564885496,4.015267175572519
670,-1.079345703125,-0.763427734375,-0.378662109375,-26.519083969465647,22.50381679389313,11.236641221374045
671,-1.05810546875,-0.6650390625,-0.4267578125,-30.48854961832061,21.34351145038168,2.0610687022900764
672,-1.071044921875,-0.658935546875,-0.458984375,-34.13740458015267,20.396946564885496,-2.366412213740458
673,-1.103515625,-0.695556640625,-0.486083984375,-38.534351145038165,18.091603053435115,-5.862595419847328
674,-1.084228515625,-0.72412109375,-0.4775390625,-42.61068702290076,10.641221374045802,-9.893129770992367
675,-1.080322265625,-0.800048828125,-0.4521484375,-41.7557251908397,-2.519083969465649,-10.488549618320612
676,-1.115478515625,-0.856689453125,-0.48828125,-32.10687022900763,-3.1603053435114505,-16.65648854961832
677,-1.1328125,-0.5361328125,-0.5537109375,-56.70229007633588,-33.83206106870229,-47.41984732824427
678,-1.066162109375,-0.60791015625,-0.385986328125,-64.19847328244275,-68.65648854961832,-60.213740458015266
679,-0.9306640625,-0.784423828125,-0.2705078125,-64.01526717557252,-55.69465648854962,-45.02290076335878
680,-0.940185546875,-0.771484375,-0.2919921875,-60.44274809160305,-65.29770992366412,-44.916030534351144
681,-0.899658203125,-0.744140625,-0.320068359375,-55.31297709923664,-56.61068702290076,-40.18320610687023
682,-1.01806640625,-0.68115234375,-0.314208984375,-56.62595419847328,-47.7557251908397,-41.69465648854962
683,-0.99609375,-0.701416015625,-0.29638671875,-56.045801526717554,-54.88549618320611,-36.48854961832061
684,-1.055419921875,-0.711669921875,-0.282470703125,-51.770992366412216,-50.396946564885496,-34.93129770992366
685,-0.986083984375,-0.68212890625,-0.27294921875,-41.69465648854962,-29.31297709923664,-19.72519083969466
686,-0.98486328125,-0.658203125,-0.290771484375,-32.6412213740458,-19.46564885496183,-14.274809160305344
687,-1.032958984375,-0.676025390625,-0.296630859375,-27.69465648854962,-12.259541984732824,-10.351145038167939
688,-1.02197265625,-0.67822265625,-0.325927734375,-24.30534351145038,7.1603053435114505,-5.923664122137405
689,-1.02197265625,-0.65283203125,-0.3525390625,-22.106870229007633,17.709923664122137,-2.5801526717557253
690,-1.049560546875,-0.62646484375,-0.341064453125,-24.793893129770993,17.358778625954198,-0.48854961832061067
691,-1.03515625,-0.722900390625,-0.333984375,-24.671755725190838,21.984732824427482,0.7022900763358778
692,-1.099853515625,-0.66845703125,-0.386474609375,-21.709923664122137,40.51908396946565,2.4732824427480917
693,-1.152587890625,-0.679443359375,-0.380126953125,-23.740458015267176,40.152671755725194,1.633587786259542
694,-1.102783203125,-0.710205078125,-0.34423828125,-24.076335877862597,35.02290076335878,0.2595419847328244
695,-1.09619140625,-0.708740234375,-0.31640625,-23.61832061068702,30.99236641221374,4.8396946564885495
696,-1.046630859375,-0.6943359375,-0.285400390625,-23.954198473282442,24.702290076335878,4.3816793893129775
697,-1.023681640625,-0.635498046875,-0.2763671875,-26.412213740458014,21.96946564885496,1.4961832061068703
698,-1.020751953125,-0.625244140625,-0.28173828125,-27.770992366412212,15.633587786259541,-1.297709923664122
699,-1.037109375,-0.611572265625,-0.305908203125,-36.25954198473283,22.47328244274809,-2.717557251908397
700,-1.039306640625,-0.61474609375,-0.2978515625,-40.61068702290076,23.34351145038168,-7.557251908396947
701,-1.05322265625,-0.566650390625,-0.3037109375,-41.969465648854964,30.65648854961832,-0.183206106870229
702,-1.037109375,-0.637939453125,-0.2900390625,-39.57251908396947,33.52671755725191,3.8931297709923665
703,-1.03759765625,-0.6298828125,-0.25244140625,-30.717557251908396,21.87786259541985,3.984732824427481
704,-1.044677734375,-0.601318359375,-0.28125,-28.3206106870229,19.923664122137403,6.442748091603053
705,-1.0771484375,-0.6474609375,-0.291748046875,-21.6793893129771,25.740458015267176,13.49618320610687
706,-1.10986328125,-0.638916015625,-0.26416015625,-8.748091603053435,25.81679389312977,12.687022900763358
707,-1.217529296875,-0.607666015625,-0.270751953125,-6.427480916030534,23.236641221374047,9.526717557251908
708,-1.138671875,-0.49755859375,-0.407958984375,-22.244274809160306,10.50381679389313,-7.190839694656488
709,-1.182861328125,-0.47314453125,-0.439453125,-33.00763358778626,4.412213740458015,-16.244274809160306
710,-1.11328125,-0.671142578125,-0.3779296875,-30.47328244274809,11.068702290076336,-0.5648854961832062
711,-1.15478515625,-0.5625,-0.4130859375,-32.97709923664122,8.82442748091603,-2.2748091603053435
712,-1.14306640625,-0.511474609375,-0.444091796875,-38.30534351145038,7.740458015267175,-4.1679389312977095
713,-1.137451171875,-0.5078125,-0.432373046875,-39.74045801526717,-0.7175572519083969,-5.251908396946565
714,-1.15283203125,-0.54833984375,-0.40234375,-37.43511450381679,-3.7709923664122136,-5.236641221374046
715,-1.136962890625,-0.56201171875,-0.430419921875,-35.12977099236641,-3.0229007633587788,-4.900763358778626
716,-1.120361328125,-0.55810546875,-0.353759765625,-25.72519083969466,2.931297709923664,-0.8854961832061069
717,-1.10888671875,-0.529296875,-0.3427734375,-21.19083969465649,2.33587786259542,-2.183206106870229
718,-1.09619140625,-0.515380859375,-0.331787109375,-22.85496183206107,1.4351145038167938,-2.854961832061069
719,-1.112060546875,-0.510498046875,-0.32861328125,-22.564885496183205,0.8396946564885496,-12.091603053435115
720,-1.154541015625,-0.68212890625,-0.279296875,-11.450381679389313,4.091603053435114,4.0
721,-1.173095703125,-0.552734375,-0.3359375,-22.458015267175572,4.793893129770993,-12.381679389312977
722,-1.217041015625,-0.6240234375,-0.27978515625,-22.076335877862597,12.183206106870228,-10.778625954198473
723,-1.31201171875,-0.66015625,-0.31787109375,-19.129770992366414,9.603053435114504,0.549618320610687
724,-1.1923828125,-0.578369140625,-0.360595703125,-12.778625954198473,13.618320610687023,5.8320610687022905
725,-1.273681640625,-0.567138671875,-0.36474609375,-12.595419847328245,14.778625954198473,12.412213740458014
726,-1.261474609375,-0.524658203125,-0.339111328125,-12.900763358778626,14.977099236641221,12.045801526717558
727,-1.228271484375,-0.491943359375,-0.27880859375,-12.351145038167939,14.610687022900763,7.374045801526718
728,-1.22900390625,-0.47802734375,-0.22314453125,-19.404580152671755,12.625954198473282,2.7938931297709924
729,-1.210693359375,-0.462646484375,-0.211669921875,-23.114503816793892,10.534351145038167,3.7557251908396947
730,-1.189453125,-0.44580078125,-0.18798828125,-27.099236641221374,8.396946564885496,-6.9465648854961835
731,-1.246826171875,-0.462158203125,-0.16845703125,-31.206106870229007,11.068702290076336,-9.465648854961833
732,-1.161376953125,-0.46044921875,-0.145751953125,-28.702290076335878,10.580152671755725,-13.038167938931299
733,-1.135986328125,-0.468994140625,-0.118896484375,-27.52671755725191,12.335877862595419,-14.900763358778626
734,-1.139892578125,-0.46435546875,-0.110595703125,-27.633587786259543,12.83969465648855,-19.14503816793893
735,-1.1162109375,-0.463134765625,-0.10693359375,-27.709923664122137,12.290076335877863,-20.244274809160306
736,-1.175537109375,-0.533935546875,-0.086181640625,-23.81679389312977,6.8396946564885495,-18.793893129770993
737,-1.14892578125,-0.7490234375,-0.07666015625,-13.053435114503817,7.404580152671755,-11.664122137404581
738,-1.1171875,-0.618408203125,-0.096435546875,-2.5801526717557253,-0.2595419847328244,-4.122137404580153
739,-1.123046875,-0.5537109375,-0.0654296875,1.786259541984733,-0.3511450381679389,-0.6717557251908397
740,-1.12255859375,-0.510986328125,-0.142578125,10.717557251908397,-4.213740458015267,3.8625954198473282
741,-1.11328125,-0.550048828125,-0.14453125,18.427480916030536,2.366412213740458,11.312977099236642
742,-1.1416015625,-0.5615234375,-0.156494140625,25.862595419847327,7.786259541984733,10.076335877862595
743,-1.10107421875,-0.468017578125,-0.1806640625,26.30534351145038,5.419847328244275,8.870229007633588
744,-1.14306640625,-0.45654296875,-0.2099609375,29.72519083969466,-9.49618320610687,2.900763358778626
745,-1.023681640625,-0.429443359375,-0.21533203125,24.778625954198475,7.938931297709924,2.198473282442748
746,-1.135009765625,-0.48779296875,-0.265625,19.69465648854962,1.3893129770992367,-3.5267175572519083
747,-1.18603515625,-0.445068359375,-0.251953125,13.099236641221374,-6.1679389312977095,-14.534351145038167
748,-1.1455078125,-0.452392578125,-0.304443359375,7.343511450381679,-1.4351145038167938,-17.17557251908397
749,-1.13818359375,-0.551025390625,-0.263916015625,11.221374045801527,-8.961832061068701,-21.83206106870229
750,-1.14013671875,-0.56396484375,-0.303955078125,17.572519083969464,-27.00763358778626,-23.480916030534353
751,-1.056640625,-0.53759765625,-0.272216796875,12.15267175572519,-9.786259541984732,-18.778625954198475
752,-1.107666015625,-0.50732421875,-0.285400390625,8.320610687022901,-15.34351145038168,-15.221374045801527
753,-1.092041015625,-0.50146484375,-0.295654296875,5.00763358778626,-10.961832061068701,-11.32824427480916
754,-1.08349609375,-0.561279296875,-0.265869140625,0.3511450381679389,-5.679389312977099,-7.984732824427481
755,-1.0693359375,-0.57373046875,-0.235595703125,-2.519083969465649,-0.8549618320610687,-4.0
756,-1.099609375,-0.58251953125,-0.23046875,3.2061068702290076,1.6641221374045803,-1.5114503816793894
757,-1.091552734375,-0.572998046875,-0.229736328125,14.030534351145038,8.610687022900763,2.015267175572519
758,-1.150146484375,-0.5888671875,-0.26513671875,22.717557251908396,13.511450381679388,6.015267175572519
759,-1.157470703125,-0.57275390625,-0.337890625,25.61832061068702,21.938931297709924,10.213740458015268
760,-1.24609375,-0.55078125,-0.36474609375,26.18320610687023,31.129770992366414,15.34351145038168
761,-1.24462890625,-0.5546875,-0.373779296875,26.137404580152673,33.57251908396947,14.50381679389313
762,-1.20947265625,-0.549560546875,-0.359619140625,26.53435114503817,33.25190839694657,12.458015267175572
763,-1.193359375,-0.553955078125,-0.344482421875,26.50381679389313,32.93129770992366,15.49618320610687
764,-1.173828125,-0.535400390625,-0.35791015625,24.412213740458014,30.18320610687023,9.083969465648854
765,-1.153076171875,-0.53173828125,-0.365234375,21.389312977099237,27.862595419847327,7.770992366412214
766,-1.1298828125,-0.520263671875,-0.3720703125,18.625954198473284,22.68702290076336,5.251908396946565
767,-1.12548828125,-0.52685546875,-0.3876953125,17.81679389312977,19.66412213740458,4.702290076335878
768,-1.128662109375,-0.546142578125,-0.410888671875,16.931297709923665,15.083969465648854,4.8396946564885495
769,-1.1005859375,-0.54296875,-0.40771484375,16.412213740458014,10.213740458015268,3.3740458015267176
770,-1.092529296875,-0.552001953125,-0.423828125,17.801526717557252,4.290076335877862,2.854961832061069
771,-1.11181640625,-0.562255859375,-0.441650390625,20.106870229007633,2.6717557251908395,5.435114503816794
772,-1.07275390625,-0.549072265625,-0.42529296875,20.977099236641223,-0.8396946564885496,4.198473282442748
773,-1.04345703125,-0.5498046875,-0.4248046875,20.27480916030534,-2.381679389312977,2.854961832061069
774,-1.07470703125,-0.55078125,-0.43115234375,20.30534351145038,-3.480916030534351,0.32061068702290074
775,-1.052734375,-0.56005859375,-0.417724609375,19.068702290076335,-4.656488549618321,-1.6793893129770991
776,-1.015869140625,-0.57275390625,-0.39697265625,19.603053435114504,-6.977099236641221,-3.236641221374046
777,-1.040283203125,-0.569580078125,-0.406005859375,17.923664122137403,-4.290076335877862,-5.66412213740458
778,-1.0048828125,-0.58349609375,-0.40966796875,15.16030534351145,-11.267175572519085,-8.335877862595419
779,-1.01416015625,-0.589599609375,-0.423095703125,12.01526717557252,-15.251908396946565,-10.0
780,-1.034912109375,-0.56591796875,-0.40625,11.923664122137405,-16.68702290076336,-9.969465648854962
781,-1.051513671875,-0.6533203125,-0.421630859375,13.664122137404581,-14.67175572519084,-7.312977099236641
782,-1.062255859375,-0.666259765625,-0.400146484375,15.053435114503817,-12.763358778625955,-5.511450381679389
783,-1.046142578125,-0.655029296875,-0.416015625,15.404580152671755,-12.534351145038167,-1.9694656488549618
784,-1.045654296875,-0.64013671875,-0.42724609375,14.13740458015267,-12.381679389312977,0.6106870229007634
785,-1.048583984375,-0.631103515625,-0.41796875,11.419847328244275,-12.946564885496183,2.6259541984732824
786,-1.046142578125,-0.612548828125,-0.412841796875,7.877862595419847,-12.992366412213741,3.450381679389313
787,-1.05615234375,-0.60546875,-0.415283203125,7.648854961832061,-13.877862595419847,4.366412213740458
788,-1.0791015625,-0.609619140625,-0.41455078125,-0.9618320610687023,-14.83969465648855,5.877862595419847
789,-1.075927734375,-0.600341796875,-0.423583984375,-7.3893129770992365,-16.549618320610687,11.709923664122137
790,-1.0849609375,-0.59521484375,-0.400146484375,-10.290076335877863,-20.229007633587788,6.122137404580153
791,-1.098876953125,-0.5751953125,-0.390625,-13.251908396946565,-23.709923664122137,5.633587786259542
792,-1.103515625,-0.56494140625,-0.368896484375,-13.86259541984733,-24.16793893129771,3.969465648854962
793,-1.13720703125,-0.625,-0.347412109375,-12.900763358778626,-24.48854961832061,0.33587786259541985
794,-1.17724609375,-0.55615234375,-0.33740234375,-11.053435114503817,-21.923664122137403,-0.6717557251908397
795,-1.1796875,-0.53564453125,-0.321044921875,-9.114503816793894,-21.206106870229007,-1.2671755725190839
796,-1.189453125,-0.52685546875,-0.3271484375,-5.465648854961832,-24.641221374045802,-3.618320610687023
797,-1.13232421875,-0.547119140625,-0.29638671875,-0.10687022900763359,-27.740458015267176,-6.99236641221374
798,-1.175048828125,-0.572021484375,-0.26904296875,5.190839694656488,-29.450381679389313,-9.282442748091603
799,-1.221435546875,-0.5263671875,-0.267822265625,3.6030534351145036,-31.46564885496183,-9.83206106870229
800,-1.2294921875,-0.496337890625,-0.280029296875,0.5801526717557252,-30.519083969465647,-10.732824427480915
801,-1.244384765625,-0.4892578125,-0.267578125,0.24427480916030533,-28.290076335877863,-13.84732824427481
802,-1.208984375,-0.508544921875,-0.238525390625,1.9389312977099236,-26.259541984732824,-19.389312977099237
803,-1.1943359375,-0.543212890625,-0.218017578125,5.572519083969466,-24.38167938931298,-26.061068702290076
804,-1.2001953125,-0.622802734375,-0.20703125,11.16030534351145,-22.641221374045802,-29.770992366412212
805,-1.18701171875,-0.55126953125,-0.198486328125,16.16793893129771,-22.717557251908396,-31.16030534351145
806,-1.165283203125,-0.537841796875,-0.216552734375,15.83206106870229,-21.740458015267176,-33.404580152671755
807,-1.146728515625,-0.49609375,-0.218505859375,20.870229007633586,-23.404580152671755,-35.6793893129771
808,-1.18359375,-0.49560546875,-0.206787109375,21.6793893129771,-25.740458015267176,-36.42748091603053
809,-1.127197265625,-0.47119140625,-0.22802734375,21.068702290076335,-28.137404580152673,-35.69465648854962
810,-1.146240234375,-0.44580078125,-0.25927734375,19.786259541984734,-26.519083969465647,-39.93893129770992
811,-1.176025390625,-0.427001953125,-0.373046875,21.374045801526716,-17.81679389312977,-41.87786259541985
812,-1.181884765625,-0.51806640625,-0.304931640625,23.083969465648856,-11.312977099236642,-47.89312977099237
813,-1.162841796875,-0.516845703125,-0.323974609375,29.84732824427481,-6.8396946564885495,-53.63358778625954
814,-1.16552734375,-0.555419921875,-0.289306640625,34.33587786259542,-2.9618320610687023,-56.152671755725194
815,-1.13720703125,-0.60400390625,-0.257080078125,38.0,-1.83206106870229,-55.00763358778626
816,-1.120361328125,-0.599609375,-0.235595703125,38.76335877862596,1.297709923664122,-45.52671755725191
817,-1.093017578125,-0.534912109375,-0.228759765625,36.916030534351144,9.877862595419847,-23.022900763358777
818,-0.944580078125,-0.5361328125,-0.18505859375,28.213740458015266,-2.4427480916030535,-31.450381679389313
819,-0.995361328125,-0.6728515625,-0.19482421875,26.900763358778626,-3.4656488549618323,-28.12213740458015
820,-1.0703125,-0.696044921875,-0.17822265625,30.717557251908396,1.1297709923664123,-19.984732824427482
821,-1.068115234375,-0.554931640625,-0.125732421875,27.16030534351145,0.4732824427480916,-15.908396946564885
822,-1.074462890625,-0.486572265625,-0.21630859375,16.442748091603054,7.068702290076335,-19.96946564885496
823,-1.025634765625,-0.558349609375,-0.222412109375,17.51145038167939,20.85496183206107,-21.480916030534353
824,-0.999267578125,-0.640625,-0.197265625,26.38167938931298,26.091603053435115,-21.099236641221374
825,-1.028564453125,-0.6416015625,-0.18017578125,37.282442748091604,27.450381679389313,-24.778625954198475
826,-1.053466796875,-0.69091796875,-0.172119140625,47.69465648854962,26.12213740458015,-26.137404580152673
827,-1.064453125,-0.713623046875,-0.1728515625,56.12213740458015,26.580152671755727,-22.671755725190838
828,-1.116455078125,-0.70068359375,-0.17236328125,61.29770992366412,26.03053435114504,-24.30534351145038
829,-1.1064453125,-0.625244140625,-0.15576171875,63.221374045801525,25.358778625954198,-25.740458015267176
830,-1.141845703125,-0.675048828125,-0.15576171875,62.83969465648855,24.778625954198475,-29.603053435114504
831,-1.185791015625,-0.626708984375,-0.19384765625,61.02290076335878,24.15267175572519,-36.67175572519084
832,-1.154296875,-0.54345703125,-0.182373046875,58.36641221374046,22.213740458015266,-37.6793893129771
833,-1.138427734375,-0.591796875,-0.171630859375,47.847328244274806,21.282442748091604,-37.31297709923664
834,-1.104736328125,-0.62158203125,-0.181396484375,42.70229007633588,18.519083969465647,-34.778625954198475
835,-1.150634765625,-0.618896484375,-0.198486328125,30.50381679389313,16.061068702290076,-27.786259541984734
836,-1.1689453125,-0.59765625,-0.184814453125,27.16030534351145,22.625954198473284,-25.14503816793893
837,-1.162353515625,-0.56689453125,-0.20166015625,22.9618320610687,32.900763358778626,-19.114503816793892
838,-1.123291015625,-0.583984375,-0.150146484375,12.0,41.05343511450382,-10.732824427480915
839,-1.014892578125,-0.72509765625,-0.10791015625,14.854961832061068,44.29007633587786,2.427480916030534
840,-1.00146484375,-0.7763671875,-0.113037109375,10.335877862595419,46.97709923664122,19.053435114503817
841,-1.071044921875,-0.7314453125,-0.16162109375,13.648854961832061,57.63358778625954,25.0381679389313
842,-1.065673828125,-0.785400390625,-0.189453125,27.206106870229007,55.7557251908397,39.9236641221374
843,-1.103515625,-0.7734375,-0.1259765625,29.282442748091604,49.404580152671755,44.213740458015266
844,-1.077392578125,-0.814208984375,-0.19140625,35.51145038167939,40.79389312977099,46.458015267175576
845,-1.076904296875,-0.820068359375,-0.2021484375,39.31297709923664,31.389312977099237,41.404580152671755
846,-1.19775390625,-0.760498046875,-0.2451171875,46.229007633587784,27.221374045801525,33.908396946564885
847,-1.226806640625,-0.67578125,-0.261474609375,47.32824427480916,21.954198473282442,31.206106870229007
848,-1.21044921875,-0.6015625,-0.25146484375,44.916030534351144,21.801526717557252,21.34351145038168
849,-1.1435546875,-0.575439453125,-0.218994140625,39.20610687022901,18.38167938931298,13.954198473282442
850,-1.096923828125,-0.60888671875,-0.1826171875,32.70229007633588,15.923664122137405,8.259541984732824
851,-1.02490234375,-0.56591796875,-0.177734375,30.610687022900763,24.977099236641223,12.16793893129771
852,-1.1337890625,-0.616455078125,-0.174072265625,25.083969465648856,28.412213740458014,1.6641221374045803
853,-1.06396484375,-0.604736328125,-0.15625,31.83206106870229,25.236641221374047,-9.98473282442748
854,-1.05419921875,-0.728271484375,-0.160888671875,32.44274809160305,24.900763358778626,-18.30534351145038
855,-0.96435546875,-0.693115234375,-0.176513671875,37.29770992366412,5.908396946564886,-13.755725190839694
856,-0.955322265625,-0.75390625,-0.200439453125,31.022900763358777,0.5343511450381679,-12.305343511450381
857,-1.023681640625,-0.670166015625,-0.233642578125,21.83206106870229,-5.755725190839694,-11.068702290076336
858,-1.00341796875,-0.707763671875,-0.24072265625,23.267175572519083,-6.748091603053435,-7.312977099236641
859,-0.96923828125,-0.710205078125,-0.220703125,17.328244274809162,-13.17557251908397,8.16793893129771
860,-0.96240234375,-0.887939453125,-0.225341796875,34.229007633587784,-1.9694656488549618,8.564885496183207
861,-0.943359375,-0.6396484375,-0.29931640625,26.0,-22.83969465648855,12.992366412213741
862,-0.96142578125,-0.810546875,-0.16064453125,17.114503816793892,-12.473282442748092,6.763358778625954
863,-0.9443359375,-0.688720703125,-0.171142578125,20.580152671755727,-22.68702290076336,4.717557251908397
864,-1.047607421875,-0.7412109375,-0.213134765625,21.83206106870229,-15.725190839694656,-6.488549618320611
865,-1.05859375,-0.673095703125,-0.227783203125,18.595419847328245,-20.671755725190838,-11.358778625954198
866,-1.08251953125,-0.735595703125,-0.24169921875,18.641221374045802,-15.648854961832061,-9.34351145038168
867,-1.03369140625,-0.715576171875,-0.227294921875,17.068702290076335,-15.282442748091603,-6.824427480916031
868,-1.009765625,-0.70849609375,-0.230712890625,12.183206106870228,-14.977099236641221,-3.099236641221374
869,-1.033203125,-0.6328125,-0.260009765625,14.488549618320612,-10.931297709923664,-1.2366412213740459
870,-1.06884765625,-0.679443359375,-0.2314453125,16.702290076335878,-6.3816793893129775,-0.5648854961832062
871,-0.9658203125,-0.80224609375,-0.17138671875,16.47328244274809,-8.625954198473282,5.267175572519084
872,-0.952880859375,-0.880615234375,-0.15087890625,18.625954198473284,-12.870229007633588,9.282442748091603
873,-0.948974609375,-0.841552734375,-0.175537109375,16.27480916030534,-14.13740458015267,11.557251908396946
874,-1.01025390625,-0.7568359375,-0.1328125,16.137404580152673,-16.9618320610687,2.4427480916030535
875,-1.033203125,-0.771728515625,-0.179931640625,18.442748091603054,-17.954198473282442,-0.5801526717557252
876,-1.04296875,-0.7802734375,-0.16796875,19.450381679389313,-16.977099236641223,-3.0076335877862594
877,-1.09423828125,-0.806396484375,-0.176025390625,21.14503816793893,-12.977099236641221,-0.7786259541984732
878,-1.087890625,-0.785400390625,-0.166015625,21.022900763358777,-10.198473282442748,0.42748091603053434
879,-1.080810546875,-0.75537109375,-0.15869140625,18.259541984732824,-11.618320610687023,1.1297709923664123
880,-1.06689453125,-0.72265625,-0.1650390625,13.297709923664122,-7.267175572519084,2.4885496183206106
881,-1.020263671875,-0.6845703125,-0.162841796875,5.9541984732824424,-6.687022900763359,2.0
882,-1.0166015625,-0.645263671875,-0.179931640625,-2.198473282442748,-5.847328244274809,-0.8396946564885496
883,-1.022216796875,-0.608642578125,-0.193603515625,-10.946564885496183,-6.99236641221374,-7.312977099236641
884,-1.01318359375,-0.5634765625,-0.164306640625,-17.923664122137403,-6.931297709923665,-9.618320610687023
885,-0.98828125,-0.658447265625,-0.177490234375,-27.34351145038168,-8.091603053435115,-4.137404580152672
886,-1.017822265625,-0.682373046875,-0.18359375,-34.045801526717554,-4.6106870229007635,-12.732824427480915
887,-1.056396484375,-0.676025390625,-0.19482421875,-43.57251908396947,1.9541984732824427,-17.221374045801525
888,-0.98974609375,-0.729248046875,-0.18408203125,-49.221374045801525,5.114503816793893,-13.16030534351145
889,-0.93798828125,-0.725830078125,-0.126953125,-46.68702290076336,4.625954198473282,-16.35114503816794
890,-1.009033203125,-0.733154296875,-0.193115234375,-56.091603053435115,3.66412213740458,-12.885496183206106
891,-1.016357421875,-0.728515625,-0.182861328125,-51.80152671755725,5.603053435114504,-22.65648854961832
892,-1.016845703125,-0.782470703125,-0.210205078125,-52.458015267175576,3.9389312977099236,-18.290076335877863
893,-1.056884765625,-0.779541015625,-0.173828125,-50.54961832061068,5.4961832061068705,-17.251908396946565
894,-1.033447265625,-0.796875,-0.1689453125,-44.99236641221374,3.5267175572519083,-13.816793893129772
895,-1.02001953125,-0.76416015625,-0.169189453125,-40.87022900763359,2.2442748091603053,-11.740458015267176
896,-1.026611328125,-0.739013671875,-0.169921875,-38.83969465648855,0.3511450381679389,-12.534351145038167
897,-1.04541015625,-0.707763671875,-0.197265625,-36.412213740458014,-1.282442748091603,-13.969465648854962
898,-1.04052734375,-0.694091796875,-0.200927734375,-35.55725190839695,-3.8473282442748094,-13.938931297709924
899,-1.06787109375,-0.596923828125,-0.2373046875,-31.938931297709924,4.99236641221374,-17.083969465648856
900,-1.09228515625,-0.563232421875,-0.23876953125,-33.87786259541985,10.381679389312977,-20.061068702290076
901,-1.020263671875,-0.658935546875,-0.22607421875,-36.01526717557252,11.541984732824428,-23.14503816793893
902,-0.960693359375,-0.76220703125,-0.19970703125,-34.35114503816794,1.8015267175572518,-15.007633587786259
903,-0.951416015625,-0.775390625,-0.20361328125,-31.358778625954198,-0.8396946564885496,-9.34351145038168
904,-1.007568359375,-0.705810546875,-0.242431640625,-29.740458015267176,-1.3129770992366412,-5.419847328244275
905,-1.067626953125,-0.665283203125,-0.28271484375,-30.946564885496183,-0.33587786259541985,-0.8091603053435115
906,-1.067626953125,-0.67578125,-0.280029296875,-33.31297709923664,-3.4656488549618323,2.1526717557251906
907,-1.028564453125,-0.710693359375,-0.279541015625,-32.717557251908396,-7.709923664122138,8.580152671755725
908,-1.02978515625,-0.72119140625,-0.28076171875,-25.69465648854962,1.8625954198473282,12.50381679389313
909,-1.056640625,-0.718505859375,-0.33544921875,-24.106870229007633,11.664122137404581,12.763358778625955
910,-1.12060546875,-0.72998046875,-0.3291015625,-19.81679389312977,20.27480916030534,17.17557251908397
911,-1.06201171875,-0.69775390625,-0.332763671875,-12.229007633587786,15.648854961832061,14.473282442748092
912,-1.0693359375,-0.557861328125,-0.31787109375,-30.610687022900763,11.786259541984732,8.458015267175572
913,-1.0849609375,-0.571044921875,-0.3154296875,-37.282442748091604,11.572519083969466,1.1755725190839694
914,-1.111572265625,-0.586181640625,-0.376220703125,-45.81679389312977,2.885496183206107,-3.7709923664122136
915,-1.11767578125,-0.611572265625,-0.3427734375,-47.847328244274806,0.916030534351145,-7.145038167938932
916,-1.089599609375,-0.65380859375,-0.337890625,-47.14503816793893,-0.4732824427480916,-7.679389312977099
917,-1.094970703125,-0.672607421875,-0.32373046875,-45.52671755725191,-0.549618320610687,-5.511450381679389
918,-1.070068359375,-0.68115234375,-0.31298828125,-44.030534351145036,-0.8244274809160306,-2.045801526717557
919,-1.120849609375,-0.671630859375,-0.290771484375,-43.23664122137404,-2.0916030534351147,-1.2061068702290076
920,-1.04736328125,-0.67041015625,-0.281005859375,-41.55725190839695,-0.7175572519083969,2.885496183206107
921,-1.040771484375,-0.67578125,-0.264404296875,-39.83206106870229,0.9312977099236641,6.259541984732825
922,-1.01025390625,-0.672119140625,-0.260009765625,-37.14503816793893,2.2442748091603053,8.610687022900763
923,-0.988525390625,-0.677490234375,-0.24853515625,-34.30534351145038,3.114503816793893,8.259541984732824
924,-0.953125,-0.744384765625,-0.302490234375,-29.19083969465649,6.213740458015267,12.610687022900763
925,-1.034912109375,-0.6669921875,-0.30859375,-31.053435114503817,6.656488549618321,14.290076335877863
926,-1.0390625,-0.661376953125,-0.247314453125,-22.885496183206108,4.854961832061068,13.282442748091603
927,-1.04931640625,-0.646240234375,-0.1923828125,-21.954198473282442,3.1755725190839694,12.946564885496183
928,-1.06884765625,-0.6494140625,-0.239013671875,-16.48854961832061,3.282442748091603,11.816793893129772
929,-1.056884765625,-0.66259765625,-0.220458984375,-14.229007633587786,3.099236641221374,15.541984732824428
930,-1.0439453125,-0.6513671875,-0.24365234375,-11.312977099236642,5.145038167938932,9.526717557251908
931,-1.072265625,-0.617431640625,-0.27880859375,-12.82442748091603,6.458015267175573,11.679389312977099
932,-1.061279296875,-0.619384765625,-0.269287109375,-14.977099236641221,5.557251908396947,6.2748091603053435
933,-1.0546875,-0.641845703125,-0.273681640625,-15.908396946564885,5.419847328244275,6.1679389312977095
934,-1.053955078125,-0.654541015625,-0.26708984375,-19.480916030534353,4.885496183206107,7.145038167938932
935,-1.061279296875,-0.671875,-0.27880859375,-14.045801526717558,4.6106870229007635,8.717557251908397
936,-1.059814453125,-0.673095703125,-0.2900390625,-15.32824427480916,4.290076335877862,11.358778625954198
937,-1.055419921875,-0.664794921875,-0.298828125,-7.984732824427481,4.67175572519084,14.50381679389313
938,-1.07568359375,-0.65625,-0.288818359375,-5.374045801526718,4.885496183206107,17.954198473282442
939,-1.052734375,-0.656494140625,-0.269775390625,-4.473282442748092,6.33587786259542,19.51145038167939
940,-1.05419921875,-0.66064453125,-0.2705078125,-1.3893129770992367,9.587786259541986,20.396946564885496
941,-1.06640625,-0.66259765625,-0.19140625,1.4351145038167938,13.526717557251908,21.328244274809162
942,-1.04736328125,-0.65625,-0.24365234375,4.091603053435114,14.381679389312977,21.022900763358777
943,-1.122802734375,-0.66064453125,-0.247802734375,6.488549618320611,16.045801526717558,21.14503816793893
944,-1.061279296875,-0.6669921875,-0.257080078125,9.374045801526718,15.083969465648854,23.14503816793893
945,-1.06689453125,-0.650634765625,-0.26220703125,7.816793893129771,12.51908396946565,15.679389312977099
946,-1.1025390625,-0.639404296875,-0.27001953125,10.549618320610687,11.145038167938932,15.923664122137405
947,-1.132568359375,-0.62158203125,-0.28857421875,6.900763358778626,9.541984732824428,15.221374045801527
948,-1.12939453125,-0.617919921875,-0.295654296875,6.396946564885496,8.916030534351146,13.236641221374045
949,-1.139892578125,-0.56396484375,-0.299560546875,5.282442748091603,6.305343511450381,12.213740458015268
950,-1.135009765625,-0.631103515625,-0.300537109375,5.1603053435114505,4.351145038167939,13.083969465648854
951,-1.108154296875,-0.66650390625,-0.277099609375,9.358778625954198,4.198473282442748,15.16030534351145
952,-1.0986328125,-0.67138671875,-0.27490234375,13.816793893129772,4.656488549618321,18.03053435114504
953,-1.09619140625,-0.668212890625,-0.293212890625,18.3206106870229,4.67175572519084,19.34351145038168
954,-1.111572265625,-0.63427734375,-0.328125,17.984732824427482,2.2595419847328246,19.129770992366414
955,-1.107177734375,-0.6220703125,-0.334228515625,17.129770992366414,0.9923664122137404,19.221374045801525
956,-1.092041015625,-0.626220703125,-0.3173828125,17.282442748091604,0.5038167938931297,18.137404580152673
957,-1.09765625,-0.61767578125,-0.326904296875,15.145038167938932,0.22900763358778625,17.435114503816795
958,-1.119384765625,-0.597900390625,-0.342529296875,12.274809160305344,0.6106870229007634,16.27480916030534
959,-1.12158203125,-0.59423828125,-0.34423828125,11.465648854961833,0.5343511450381679,13.893129770992367
960,-1.06884765625,-0.594482421875,-0.359619140625,8.992366412213741,1.083969465648855,11.98473282442748
961,-1.186279296875,-0.6015625,-0.351318359375,10.763358778625955,0.8702290076335878,9.633587786259541
962,-1.119384765625,-0.585205078125,-0.34814453125,7.908396946564886,0.6717557251908397,5.587786259541985
963,-1.1259765625,-0.551513671875,-0.350830078125,12.229007633587786,-0.5648854961832062,0.7938931297709924
964,-1.182373046875,-0.548583984375,-0.33154296875,11.694656488549619,-2.1068702290076335,-3.5572519083969465
965,-1.065673828125,-0.59619140625,-0.31494140625,13.389312977099237,-3.282442748091603,-4.122137404580153
966,-1.05126953125,-0.59716796875,-0.322509765625,11.618320610687023,-4.977099236641221,-5.312977099236641
967,-1.076171875,-0.57373046875,-0.3310546875,10.061068702290076,-6.534351145038168,-4.076335877862595
968,-1.091796875,-0.545166015625,-0.338623046875,6.458015267175573,-7.66412213740458,-12.15267175572519
969,-1.083251953125,-0.555419921875,-0.334228515625,3.5877862595419847,-5.709923664122138,-13.969465648854962
970,-1.04541015625,-0.5751953125,-0.30712890625,3.5267175572519083,-4.290076335877862,-14.870229007633588
971,-1.039794921875,-0.607666015625,-0.291259765625,3.8625954198473282,-3.450381679389313,-13.938931297709924
972,-1.03076171875,-0.62109375,-0.27978515625,6.564885496183206,-1.7709923664122138,-11.664122137404581
973,-1.018798828125,-0.633056640625,-0.279052734375,8.122137404580153,-1.5572519083969465,-9.267175572519085
974,-1.020751953125,-0.643798828125,-0.2822265625,16.229007633587788,-1.5725190839694656,-6.625954198473282
975,-1.01806640625,-0.686767578125,-0.310302734375,20.885496183206108,-2.2290076335877864,-6.2748091603053435
976,-1.01708984375,-0.620849609375,-0.325439453125,21.450381679389313,-3.099236641221374,-7.755725190839694
977,-1.050048828125,-0.562744140625,-0.315673828125,21.46564885496183,-4.320610687022901,-1.2671755725190839
978,-1.061279296875,-0.62939453125,-0.3203125,22.15267175572519,-4.137404580152672,2.0763358778625953
979,-1.06640625,-0.6708984375,-0.32080078125,25.786259541984734,-1.0687022900763359,5.893129770992366
980,-1.089599609375,-0.66064453125,-0.340087890625,27.64885496183206,0.15267175572519084,7.969465648854962
981,-1.119384765625,-0.615966796875,-0.432373046875,26.259541984732824,-2.4122137404580153,7.145038167938932
982,-1.163818359375,-0.588134765625,-0.417724609375,20.610687022900763,-3.7099236641221376,4.99236641221374
983,-1.16455078125,-0.580322265625,-0.428466796875,17.236641221374047,-3.83206106870229,3.2213740458015265
984,-1.15478515625,-0.583740234375,-0.414306640625,10.961832061068701,-6.137404580152672,1.7099236641221374
985,-1.130615234375,-0.611328125,-0.390380859375,6.244274809160306,-7.603053435114504,0.8549618320610687
986,-1.121826171875,-0.617919921875,-0.369873046875,7.66412213740458,-8.091603053435115,-1.5725190839694656
987,-1.125,-0.62255859375,-0.36181640625,2.732824427480916,-11.664122137404581,-4.778625954198473
988,-1.114501953125,-0.635986328125,-0.34326171875,0.6106870229007634,-7.297709923664122,-6.534351145038168
989,-1.118408203125,-0.63037109375,-0.339111328125,-0.9770992366412213,-7.114503816793893,-9.19083969465649
990,-1.097900390625,-0.6318359375,-0.3330078125,-1.9694656488549618,-7.099236641221374,-11.465648854961833
991,-1.08154296875,-0.65576171875,-0.3125,-1.9389312977099236,-7.267175572519084,-13.236641221374045
992,-1.083740234375,-0.666015625,-0.293701171875,-6.061068702290076,-5.786259541984733,-9.801526717557252
993,-1.109619140625,-0.6943359375,-0.2880859375,-5.282442748091603,-0.3053435114503817,-9.374045801526718
994,-1.039794921875,-0.693603515625,-0.2763671875,-7.465648854961832,-6.702290076335878,-10.335877862595419
995,-1.014404296875,-0.7119140625,-0.2568359375,-2.213740458015267,-5.938931297709924,-11.587786259541986
996,-0.999267578125,-0.701416015625,-0.251953125,-0.8702290076335878,-4.67175572519084,-6.198473282442748
997,-0.978515625,-0.69921875,-0.250732421875,-0.366412213740458,-2.519083969465649,-2.519083969465649
998,-0.9794921875,-0.703369140625,-0.243896484375,0.5038167938931297,0.916030534351145,0.8854961832061069
999,-0.978515625,-0.708251953125,-0.234619140625,1.4045801526717556,0.04580152671755725,2.9923664122137406
1000,-0.986572265625,-0.749267578125,-0.2333984375,2.3969465648854964,5.938931297709924,3.5267175572519083
1001,-0.99560546875,-0.630859375,-0.238525390625,4.824427480916031,6.900763358778626,2.9923664122137406
1002,-0.99560546875,-0.69921875,-0.238037109375,8.82442748091603,8.961832061068701,3.648854961832061
1003,-1.016357421875,-0.7041015625,-0.233154296875,12.564885496183207,10.0,4.259541984732825
1004,-1.005859375,-0.70361328125,-0.2451171875,13.98473282442748,9.419847328244275,4.885496183206107
1005,-1.019775390625,-0.68994140625,-0.23876953125,15.938931297709924,8.625954198473282,5.450381679389313
1006,-1.0322265625,-0.672119140625,-0.2509765625,16.977099236641223,6.931297709923665,5.755725190839694
1007,-1.061279296875,-0.673828125,-0.2626953125,17.068702290076335,6.198473282442748,6.33587786259542
1008,-1.070556640625,-0.66162109375,-0.2705078125,15.450381679389313,4.183206106870229,6.900763358778626
1009,-1.078125,-0.65673828125,-0.281982421875,14.977099236641221,2.1068702290076335,6.015267175572519
1010,-1.089111328125,-0.645751953125,-0.27587890625,12.67175572519084,1.083969465648855,7.557251908396947
1011,-1.123046875,-0.634033203125,-0.28857421875,12.412213740458014,0.8854961832061069,7.572519083969466
1012,-1.142578125,-0.6328125,-0.310546875,9.633587786259541,1.7709923664122138,7.847328244274809
1013,-1.150146484375,-0.615234375,-0.30078125,7.358778625954199,1.2061068702290076,4.0458015267175576
1014,-1.1552734375,-0.60400390625,-0.2509765625,4.290076335877862,0.7786259541984732,8.381679389312977
1015,-1.1748046875,-0.599365234375,-0.3212890625,1.4198473282442747,-0.030534351145038167,9.374045801526718
1016,-1.12548828125,-0.59228515625,-0.301025390625,1.9541984732824427,7.770992366412214,8.748091603053435
1017,-1.195068359375,-0.59033203125,-0.3056640625,1.4961832061068703,5.908396946564886,7.206106870229007
1018,-1.1318359375,-0.58203125,-0.294189453125,2.0610687022900764,8.198473282442748,6.625954198473282
1019,-1.191162109375,-0.583740234375,-0.288330078125,2.198473282442748,10.351145038167939,5.877862595419847
1020,-1.1845703125,-0.576171875,-0.2880859375,2.8091603053435112,11.419847328244275,5.114503816793893
1021,-1.205078125,-0.565185546875,-0.29052734375,3.4656488549618323,12.717557251908397,4.106870229007634
1022,-1.1884765625,-0.55810546875,-0.269775390625,2.8396946564885495,13.206106870229007,2.183206106870229
1023,-1.168212890625,-0.56201171875,-0.2490234375,3.984732824427481,12.549618320610687,-0.2595419847328244
1024,-1.15234375,-0.564453125,-0.2451171875,5.633587786259542,12.030534351145038,-1.786259541984733
1025,-1.1474609375,-0.546142578125,-0.247314453125,5.709923664122138,10.229007633587786,-3.3893129770992365
1026,-1.134765625,-0.534423828125,-0.2509765625,5.099236641221374,7.908396946564886,-5.557251908396947
1027,-1.120361328125,-0.53125,-0.234375,4.015267175572519,6.015267175572519,-6.442748091603053
1028,-1.1005859375,-0.549072265625,-0.240478515625,3.7099236641221376,3.5877862595419847,-5.847328244274809
1029,-1.084716796875,-0.564208984375,-0.241455078125,5.541984732824427,2.16793893129771,-4.458015267175573
1030,-1.083984375,-0.5654296875,-0.23779296875,7.404580152671755,1.1450381679389312,-2.6412213740458017
1031,-1.069580078125,-0.500732421875,-0.240478515625,9.587786259541986,0.366412213740458,-1.4045801526717556
1032,-1.06396484375,-0.544921875,-0.25244140625,9.755725190839694,-0.4732824427480916,-1.297709923664122
1033,-1.06298828125,-0.5341796875,-0.26708984375,8.51908396946565,-0.9465648854961832,-2.213740458015267
1034,-1.056884765625,-0.53466796875,-0.253662109375,7.541984732824427,-1.5725190839694656,-3.099236641221374
1035,-1.05322265625,-0.55126953125,-0.2548828125,6.015267175572519,-2.7480916030534353,-4.0
1036,-1.060791015625,-0.553466796875,-0.26611328125,2.9618320610687023,-3.1908396946564888,-4.061068702290076
1037,-1.0595703125,-0.555419921875,-0.279052734375,0.916030534351145,-3.3740458015267176,-4.152671755725191
1038,-1.052001953125,-0.549072265625,-0.28662109375,-2.854961832061069,-4.519083969465649,-4.198473282442748
1039,-1.047119140625,-0.55078125,-0.2919921875,-4.366412213740458,-6.641221374045801,-3.66412213740458
1040,-1.052001953125,-0.509033203125,-0.293701171875,-5.648854961832061,-6.702290076335878,-2.3206106870229006
1041,-1.0634765625,-0.570068359375,-0.30224609375,-7.175572519083969,-7.1603053435114505,-1.0687022900763359
1042,-1.070068359375,-0.56689453125,-0.3740234375,-7.923664122137405,-7.175572519083969,0.6564885496183206
1043,-1.084228515625,-0.576416015625,-0.3173828125,-3.969465648854962,-7.068702290076335,1.8625954198473282
1044,-1.080322265625,-0.5810546875,-0.32275390625,-8.732824427480915,-7.343511450381679,3.312977099236641
1045,-1.094970703125,-0.591552734375,-0.315185546875,-8.366412213740459,-6.244274809160306,4.106870229007634
1046,-1.10009765625,-0.58837890625,-0.313720703125,-7.633587786259542,-4.366412213740458,5.00763358778626
1047,-1.0986328125,-0.60546875,-0.302734375,-4.702290076335878,-1.4045801526717556,5.541984732824427
1048,-1.08203125,-0.618896484375,-0.301025390625,-0.8854961832061069,1.786259541984733,7.251908396946565
1049,-1.06884765625,-0.616943359375,-0.289794921875,3.2061068702290076,4.1679389312977095,8.244274809160306
1050,-1.07177734375,-0.565185546875,-0.294677734375,6.717557251908397,5.679389312977099,9.221374045801527
1051,-1.078369140625,-0.63232421875,-0.290771484375,10.564885496183207,5.32824427480916,8.50381679389313
1052,-1.079345703125,-0.63037109375,-0.2939453125,11.923664122137405,4.854961832061068,7.938931297709924
1053,-1.07568359375,-0.621337890625,-0.289794921875,13.526717557251908,3.7709923664122136,5.541984732824427
1054,-1.077392578125,-0.623779296875,-0.300537109375,12.977099236641221,2.0,1.984732824427481
1055,-1.07861328125,-0.633056640625,-0.3095703125,12.854961832061068,3.7404580152671754,3.7557251908396947
1056,-1.08740234375,-0.64013671875,-0.306640625,12.992366412213741,-1.9083969465648856,-1.984732824427481
1057,-1.092041015625,-0.643798828125,-0.315185546875,12.335877862595419,-3.969465648854962,-2.8091603053435112
1058,-1.09423828125,-0.643310546875,-0.332275390625,10.610687022900763,-5.00763358778626,-3.114503816793893
1059,-1.096435546875,-0.653076171875,-0.3232421875,8.65648854961832,-6.213740458015267,-2.198473282442748
1060,-1.110595703125,-0.66650390625,-0.32666015625,8.67175572519084,-6.152671755725191,-0.9312977099236641
1061,-1.112548828125,-0.671142578125,-0.341064453125,8.687022900763358,-4.6106870229007635,-0.4122137404580153
1062,-1.11767578125,-0.66455078125,-0.35009765625,9.053435114503817,-2.549618320610687,-0.12213740458015267
1063,-1.1181640625,-0.666259765625,-0.341064453125,7.862595419847328,-1.6488549618320612,0.549618320610687
1064,-1.123046875,-0.6591796875,-0.341552734375,6.0,-0.6106870229007634,0.8702290076335878
1065,-1.130126953125,-0.64111328125,-0.34375,2.946564885496183,-3.877862595419847,0.5648854961832062
1066,-1.124267578125,-0.633544921875,-0.344970703125,0.22900763358778625,0.8244274809160306,0.13740458015267176
1067,-1.11962890625,-0.642333984375,-0.326904296875,-1.6946564885496183,1.7251908396946565,-0.3969465648854962
1068,-1.185302734375,-0.641357421875,-0.326904296875,-3.1908396946564888,2.4580152671755724,-0.15267175572519084
1069,-1.067626953125,-0.630126953125,-0.320068359375,-5.00763358778626,2.4122137404580153,-0.1984732824427481
1070,-1.136962890625,-0.625732421875,-0.327392578125,-6.625954198473282,2.8702290076335877,3.877862595419847
1071,-1.13818359375,-0.626708984375,-0.332763671875,-8.488549618320612,2.6106870229007635,0.4122137404580153
1072,-1.13623046875,-0.6318359375,-0.31591796875,-8.061068702290076,3.0076335877862594,1.2213740458015268
1073,-1.13623046875,-0.636474609375,-0.299560546875,-6.809160305343512,3.954198473282443,2.0763358778625953
1074,-1.134765625,-0.617919921875,-0.297119140625,-5.755725190839694,3.8473282442748094,2.7480916030534353
1075,-1.150390625,-0.606201171875,-0.306396484375,-4.458015267175573,3.3587786259541983,3.1297709923664123
1076,-1.151611328125,-0.599365234375,-0.293212890625,-3.5267175572519083,2.8396946564885495,3.099236641221374
1077,-1.15283203125,-0.59716796875,-0.294189453125,-1.450381679389313,3.3435114503816794,3.114503816793893
1078,-1.150634765625,-0.593505859375,-0.282470703125,-0.061068702290076333,3.3740458015267176,2.0763358778625953
1079,-1.1484375,-0.585205078125,-0.28466796875,2.33587786259542,4.427480916030534,1.0381679389312977
1080,-1.142578125,-0.589111328125,-0.283447265625,4.656488549618321,5.343511450381679,0.15267175572519084
1081,-1.136474609375,-0.593017578125,-0.276123046875,6.6106870229007635,6.732824427480916,0.24427480916030533
1082,-1.13720703125,-0.58935546875,-0.269775390625,7.572519083969466,6.3816793893129775,-0.2900763358778626
1083,-1.13671875,-0.589599609375,-0.277099609375,8.13740458015267,6.412213740458015,-1.282442748091603
1084,-1.12939453125,-0.59521484375,-0.278076171875,8.274809160305344,5.450381679389313,-2.717557251908397
1085,-1.125244140625,-0.58740234375,-0.274658203125,6.442748091603053,4.305343511450381,-3.5572519083969465
1086,-1.111328125,-0.587646484375,-0.275634765625,4.854961832061068,2.9160305343511452,-0.030534351145038167
1087,-1.10693359375,-0.58935546875,-0.2578125,3.3587786259541983,2.030534351145038,-4.137404580152672
1088,-1.091796875,-0.602783203125,-0.260009765625,3.267175572519084,1.4809160305343512,-4.0
1089,-1.084228515625,-0.615478515625,-0.232421875,5.786259541984733,2.854961832061069,-4.8396946564885495
1090,-1.07958984375,-0.587646484375,-0.2470703125,4.702290076335878,1.9236641221374047,-6.549618320610687
1091,-1.05126953125,-0.596435546875,-0.2353515625,3.6793893129770994,0.6259541984732825,-8.564885496183207
1092,-1.042236328125,-0.58984375,-0.23828125,1.9389312977099236,-0.9923664122137404,-12.610687022900763
1093,-1.05908203125,-0.501953125,-0.253662109375,1.2061068702290076,-2.763358778625954,-17.221374045801525
1094,-1.063720703125,-0.5380859375,-0.228515625,5.709923664122138,-4.549618320610687,-22.106870229007633
1095,-1.0576171875,-0.5693359375,-0.19140625,2.946564885496183,-5.236641221374046,-23.374045801526716
1096,-0.98828125,-0.608642578125,-0.178955078125,8.183206106870228,-11.267175572519085,-16.641221374045802
1097,-0.9736328125,-0.6376953125,-0.1787109375,10.82442748091603,-4.2748091603053435,-19.374045801526716
1098,-0.932861328125,-0.662109375,-0.169677734375,11.694656488549619,-5.267175572519084,-12.229007633587786
1099,-0.90087890625,-0.6396484375,-0.1669921875,11.679389312977099,-3.5114503816793894,-10.732824427480915
1100,-0.90966796875,-0.628662109375,-0.163818359375,11.877862595419847,-2.6106870229007635,-11.236641221374045
1101,-0.911376953125,-0.686767578125,-0.186279296875,12.870229007633588,-2.7022900763358777,-10.625954198473282
1102,-0.933837890625,-0.6220703125,-0.177490234375,13.053435114503817,-1.1908396946564885,-9.83206106870229
1103,-0.941650390625,-0.607421875,-0.17529296875,7.923664122137405,-2.8702290076335877,-11.221374045801527
1104,-0.94873046875,-0.619140625,-0.191650390625,10.412213740458014,-2.8244274809160306,-9.86259541984733
1105,-0.964111328125,-0.63916015625,-0.202392578125,11.236641221374045,-1.5419847328244274,-8.335877862595419
1106,-0.99951171875,-0.6572265625,-0.218505859375,11.633587786259541,-0.7938931297709924,-6.732824427480916
1107,-1.008056640625,-0.654052734375,-0.24365234375,13.404580152671755,1.0687022900763359,-5.786259541984733
1108,-1.04150390625,-0.64990234375,-0.262451171875,13.587786259541986,1.9389312977099236,-5.145038167938932
1109,-1.047119140625,-0.663818359375,-0.27587890625,15.404580152671755,4.931297709923665,-2.7022900763358777
1110,-1.084716796875,-0.674072265625,-0.29443359375,18.870229007633586,7.0534351145038165,-1.0687022900763359
1111,-1.1220703125,-0.68212890625,-0.332275390625,20.50381679389313,11.618320610687023,0.44274809160305345
1112,-1.173095703125,-0.670166015625,-0.372802734375,19.83206106870229,6.763358778625954,1.5419847328244274
1113,-1.203125,-0.666748046875,-0.38623046875,18.595419847328245,6.717557251908397,2.0916030534351147
1114,-1.215576171875,-0.6591796875,-0.3916015625,16.885496183206108,5.1603053435114505,4.885496183206107
1115,-1.23291015625,-0.67626953125,-0.384765625,16.916030534351144,3.3740458015267176,4.2748091603053435
1116,-1.25830078125,-0.691162109375,-0.3837890625,14.83969465648855,7.801526717557252,4.015267175572519
1117,-1.25,-0.6923828125,-0.380126953125,14.274809160305344,4.5038167938931295,1.5572519083969465
1118,-1.274658203125,-0.673583984375,-0.382568359375,6.717557251908397,4.961832061068702,3.6030534351145036
1119,-1.251708984375,-0.64990234375,-0.376708984375,2.6717557251908395,4.580152671755725,-4.809160305343512
1120,-1.218505859375,-0.650390625,-0.35595703125,1.0229007633587786,5.068702290076335,-9.145038167938932
1121,-1.193359375,-0.66357421875,-0.32763671875,-0.3969465648854962,6.931297709923665,-13.297709923664122
1122,-1.183837890625,-0.661865234375,-0.25390625,-0.8244274809160306,10.290076335877863,-16.366412213740457
1123,-1.158203125,-0.654541015625,-0.290771484375,-0.3969465648854962,11.267175572519085,-17.267175572519083
1124,-1.1484375,-0.656982421875,-0.281982421875,0.2900763358778626,13.038167938931299,-15.923664122137405
1125,-1.132080078125,-0.657470703125,-0.261962890625,1.8778625954198473,13.16030534351145,-14.213740458015268
1126,-1.101806640625,-0.66943359375,-0.250732421875,0.6106870229007634,14.045801526717558,-10.534351145038167
1127,-1.079345703125,-0.6669921875,-0.19140625,4.244274809160306,15.068702290076336,-6.580152671755725
1128,-1.0869140625,-0.6611328125,-0.251953125,12.473282442748092,13.465648854961833,-2.7022900763358777
1129,-1.068603515625,-0.669189453125,-0.248046875,15.404580152671755,13.114503816793894,1.6030534351145038
1130,-1.086181640625,-0.675048828125,-0.189453125,19.206106870229007,13.786259541984732,5.083969465648855
1131,-1.084716796875,-0.6572265625,-0.255615234375,21.251908396946565,12.748091603053435,7.740458015267175
1132,-1.083984375,-0.625732421875,-0.270751953125,22.091603053435115,10.80916030534351,8.412213740458014
1133,-1.083251953125,-0.6083984375,-0.273193359375,21.435114503816795,8.82442748091603,8.305343511450381
1134,-1.082275390625,-0.609375,-0.27880859375,22.015267175572518,7.66412213740458,7.083969465648855
1135,-1.09423828125,-0.603515625,-0.273681640625,20.458015267175572,7.236641221374046,4.870229007633588
1136,-1.109619140625,-0.611328125,-0.285400390625,17.923664122137403,6.9465648854961835,2.9923664122137406
1137,-1.099853515625,-0.603271484375,-0.2724609375,19.96946564885496,5.786259541984733,1.83206106870229
1138,-1.113525390625,-0.60498046875,-0.286376953125,25.740458015267176,6.3816793893129775,0.8396946564885496
1139,-1.07568359375,-0.61181640625,-0.274169921875,21.419847328244273,6.1679389312977095,1.3587786259541985
1140,-1.080810546875,-0.615966796875,-0.2431640625,26.48854961832061,10.946564885496183,0.4732824427480916
1141,-1.063232421875,-0.610595703125,-0.234619140625,23.282442748091604,10.213740458015268,-1.3740458015267176
