,Ax,Ay,Az,Gx,Gy,Gz,distance,shot_type
0,0.0,0.0,0.0,0.0,0.0,6.030534351145038,150,4
1,0.765869140625,-0.076904296875,-0.2060546875,-66.45801526717557,25.755725190839694,39.404580152671755,150,4
2,0.716796875,-0.109130859375,-0.188232421875,-129.29770992366412,12.610687022900763,41.05343511450382,150,4
3,0.739013671875,-0.09619140625,-0.19970703125,-26.48854961832061,22.80916030534351,47.80152671755725,150,4
4,0.702392578125,-0.1220703125,-0.27392578125,11.893129770992367,24.290076335877863,16.519083969465647,150,4
5,0.67822265625,-0.048583984375,-0.335693359375,22.732824427480917,18.427480916030536,21.389312977099237,150,4
6,0.648681640625,0.103271484375,-0.36474609375,0.7938931297709924,3.83206106870229,12.122137404580153,150,4
7,0.6630859375,0.154541015625,-0.34765625,-11.557251908396946,-14.977099236641221,1.3740458015267176,150,4
8,0.742431640625,0.1318359375,-0.282958984375,-3.9236641221374047,-27.129770992366414,-7.862595419847328,150,4
9,0.85400390625,0.042724609375,-0.2041015625,-9.877862595419847,-29.221374045801525,-18.213740458015266,150,4
10,0.860595703125,-0.042724609375,-0.14453125,-2.564885496183206,-30.80916030534351,-16.702290076335878,150,4
11,0.822509765625,-0.0927734375,-0.09228515625,4.900763358778626,-29.603053435114504,-9.282442748091603,150,4
12,0.7900390625,-0.119873046875,-0.037841796875,18.702290076335878,-32.656488549618324,-3.633587786259542,150,4
13,0.75927734375,-0.1337890625,0.01904296875,30.793893129770993,-27.740458015267176,-1.3129770992366412,150,4
14,0.709716796875,-0.146484375,0.0439453125,32.62595419847328,-13.312977099236642,-8.244274809160306,150,4
15,0.66064453125,-0.17236328125,0.086181640625,19.49618320610687,1.1603053435114503,-11.389312977099237,150,4
16,0.6591796875,-0.198974609375,0.0947265625,7.526717557251908,22.610687022900763,-0.33587786259541985,150,4
17,0.676513671875,-0.213134765625,0.0908203125,1.4351145038167938,33.221374045801525,11.251908396946565,150,4
18,0.68212890625,-0.21875,0.064453125,0.732824427480916,46.030534351145036,23.251908396946565,150,4
19,0.8447265625,-0.08154296875,-0.02880859375,-18.931297709923665,81.80152671755725,29.541984732824428,150,4
20,0.8359375,-0.059326171875,-0.116455078125,-51.02290076335878,72.87022900763358,15.633587786259541,150,4
21,0.901611328125,0.014404296875,-0.16357421875,-77.86259541984732,73.2824427480916,18.595419847328245,150,4
22,0.96826171875,0.0673828125,-0.22314453125,-52.18320610687023,81.95419847328245,24.732824427480917,150,4
23,0.920166015625,0.113525390625,-0.25,-54.900763358778626,72.62595419847328,20.30534351145038,150,4
24,0.892578125,0.141357421875,-0.30517578125,-63.49618320610687,64.03053435114504,-2.9923664122137406,150,4
25,0.69921875,0.0986328125,-0.357666015625,-70.30534351145039,52.045801526717554,-21.938931297709924,150,4
26,0.66015625,0.00439453125,-0.3671875,-60.93129770992366,36.732824427480914,-34.3206106870229,150,4
27,0.66845703125,-0.06103515625,-0.330810546875,-36.58015267175573,17.358778625954198,-39.083969465648856,150,4
28,0.766845703125,-0.119384765625,-0.281005859375,-12.900763358778626,6.320610687022901,-28.33587786259542,150,4
29,0.800537109375,-0.138916015625,-0.253662109375,10.488549618320612,2.7938931297709924,-25.81679389312977,150,4
30,0.802490234375,-0.099365234375,-0.223876953125,16.946564885496183,-3.099236641221374,-31.786259541984734,150,4
31,0.830078125,-0.069091796875,-0.2255859375,17.31297709923664,-6.320610687022901,-42.79389312977099,150,4
32,0.834228515625,-0.087646484375,-0.218994140625,19.419847328244273,-13.587786259541986,-43.32824427480916,150,4
33,0.85302734375,-0.118896484375,-0.243408203125,17.099236641221374,-21.129770992366414,-43.11450381679389,150,4
34,0.87060546875,-0.1474609375,-0.134521484375,15.435114503816793,-29.053435114503817,-38.93129770992366,150,4
35,0.89453125,-0.16748046875,-0.10302734375,14.13740458015267,-26.47328244274809,-26.106870229007633,150,4
36,0.8935546875,-0.186279296875,-0.0751953125,20.229007633587788,-29.557251908396946,-19.61832061068702,150,4
37,0.89013671875,-0.217529296875,-0.0361328125,20.106870229007633,-31.72519083969466,-24.702290076335878,150,4
38,0.890625,-0.237060546875,0.0048828125,12.763358778625955,-33.37404580152672,-17.435114503816795,150,4
39,0.87158203125,-0.23095703125,0.0146484375,1.5419847328244274,-27.435114503816795,-4.809160305343512,150,4
40,0.843994140625,-0.212646484375,-0.01123046875,-8.687022900763358,-22.38167938931298,-3.83206106870229,150,4
41,0.77294921875,-0.15576171875,-0.04541015625,-33.05343511450382,-12.778625954198473,5.847328244274809,150,4
42,0.7119140625,-0.1064453125,-0.1171875,-55.64885496183206,-8.900763358778626,0.030534351145038167,150,4
43,0.668701171875,-0.029541015625,-0.2158203125,-76.10687022900764,14.183206106870228,19.068702290076335,150,4
44,0.566162109375,-0.00390625,-0.27685546875,-70.6412213740458,1.6488549618320612,26.610687022900763,150,4
45,0.6181640625,0.09814453125,-0.315185546875,-79.25190839694656,-15.587786259541986,21.480916030534353,150,4
46,0.53955078125,0.15380859375,-0.282470703125,-68.76335877862596,-37.06870229007634,15.267175572519085,150,4
47,0.63916015625,0.146484375,-0.206787109375,-53.11450381679389,-43.25190839694657,-5.770992366412214,150,4
48,0.74609375,0.090576171875,-0.17578125,-44.58015267175573,-44.19847328244275,-17.450381679389313,150,4
49,0.7939453125,0.0029296875,-0.111572265625,-45.32824427480916,-37.55725190839695,-24.12213740458015,150,4
50,0.75439453125,-0.082763671875,-0.12353515625,-49.55725190839695,-20.748091603053435,-25.14503816793893,150,4
51,0.667236328125,-0.132080078125,-0.1767578125,-62.38167938931298,-19.236641221374047,-27.251908396946565,150,4
52,0.67138671875,-0.165771484375,-0.26171875,-68.90076335877863,-20.244274809160306,-27.129770992366414,150,4
53,0.7451171875,-0.1279296875,-0.258056640625,-74.45801526717557,-22.702290076335878,-23.46564885496183,150,4
54,0.814697265625,-0.18017578125,-0.333740234375,-83.16030534351145,-31.96946564885496,-12.625954198473282,150,4
55,0.85888671875,-0.18505859375,-0.32568359375,-72.44274809160305,-50.51908396946565,-1.4198473282442747,150,4
56,0.854736328125,-0.185791015625,-0.27734375,-58.44274809160305,-62.54961832061068,7.358778625954199,150,4
57,0.836669921875,-0.181884765625,-0.213623046875,-27.419847328244273,-72.50381679389314,21.129770992366414,150,4
58,0.830322265625,-0.143798828125,-0.150390625,13.725190839694656,-67.70992366412214,34.48854961832061,150,4
59,0.75341796875,-0.18212890625,-0.1240234375,48.47328244274809,-63.38931297709924,31.96946564885496,150,4
60,0.70556640625,-0.07080078125,-0.05810546875,49.541984732824424,-58.06106870229008,20.091603053435115,150,4
61,0.6201171875,0.017578125,0.172607421875,-2.6106870229007635,-116.53435114503817,4.717557251908397,150,4
62,0.736083984375,0.079833984375,0.310302734375,-49.86259541984733,-65.02290076335878,-12.534351145038167,150,4
63,0.76806640625,0.0341796875,0.3583984375,-66.25954198473282,-6.366412213740458,-28.702290076335878,150,4
64,0.78857421875,-0.009033203125,0.2919921875,-105.00763358778626,59.14503816793893,-46.18320610687023,150,4
65,0.806884765625,-0.0400390625,0.1669921875,-149.0381679389313,103.25190839694656,-51.02290076335878,150,4
66,0.819091796875,-0.073486328125,0.024658203125,-176.54961832061068,127.23664122137404,-48.87022900763359,150,4
67,0.8046875,-0.126220703125,-0.2060546875,-182.70229007633588,131.75572519083968,-34.13740458015267,150,4
68,0.770263671875,-0.17431640625,-0.33544921875,-157.22137404580153,108.4885496183206,-22.564885496183205,150,4
69,0.795166015625,-0.16552734375,-0.468017578125,-130.25954198473283,73.37404580152672,-4.33587786259542,150,4
70,0.80322265625,-0.140625,-0.463134765625,-87.6030534351145,38.80916030534351,6.33587786259542,150,4
71,0.80517578125,-0.095458984375,-0.398193359375,-52.656488549618324,9.83206106870229,9.954198473282442,150,4
72,0.785400390625,-0.0478515625,-0.325927734375,-39.02290076335878,-0.6106870229007634,7.0534351145038165,150,4
73,0.788818359375,-0.022705078125,-0.263916015625,-29.572519083969464,-6.33587786259542,-5.038167938931298,150,4
74,0.812255859375,0.00146484375,-0.217041015625,-53.37404580152672,-3.053435114503817,-21.61832061068702,150,4
75,0.81787109375,-0.033935546875,-0.20947265625,-67.70992366412214,3.801526717557252,-25.129770992366414,150,4
76,0.805908203125,-0.0751953125,-0.212158203125,-68.4885496183206,8.717557251908397,-27.267175572519083,150,4
77,0.779541015625,-0.111572265625,-0.230712890625,-62.595419847328245,10.610687022900763,-17.72519083969466,150,4
78,0.75244140625,-0.135498046875,-0.24951171875,-67.22137404580153,5.221374045801527,-11.954198473282442,150,4
79,0.737548828125,-0.14111328125,-0.26025390625,-62.396946564885496,-2.6564885496183206,-7.129770992366412,150,4
80,0.7431640625,-0.139892578125,-0.31005859375,-48.030534351145036,-8.473282442748092,-7.633587786259542,150,4
81,0.7392578125,-0.14111328125,-0.22314453125,-42.94656488549618,-20.931297709923665,2.1068702290076335,150,4
82,0.73095703125,-0.152099609375,-0.18359375,-32.42748091603053,-25.450381679389313,3.3587786259541983,150,4
83,0.74755859375,-0.14404296875,-0.140380859375,-24.12213740458015,-23.6793893129771,6.290076335877862,150,4
84,0.760009765625,-0.1171875,-0.110595703125,-28.16793893129771,-21.022900763358777,6.106870229007634,150,4
85,0.75537109375,-0.109130859375,-0.10400390625,-26.580152671755727,-18.580152671755727,4.549618320610687,150,4
86,0.73095703125,-0.128662109375,-0.063232421875,-27.557251908396946,-16.65648854961832,5.358778625954199,150,4
87,0.717041015625,-0.187255859375,-0.024658203125,-25.297709923664122,-15.206106870229007,11.312977099236642,150,4
88,0.71044921875,-0.207275390625,-0.02392578125,-23.251908396946565,-1.83206106870229,17.908396946564885,150,4
89,0.734130859375,-0.18310546875,-0.031005859375,-23.740458015267176,4.152671755725191,18.717557251908396,150,4
90,0.717041015625,-0.136474609375,-0.05810546875,-39.908396946564885,15.129770992366412,14.748091603053435,150,4
91,0.779296875,-0.097900390625,-0.085693359375,-48.3206106870229,18.38167938931298,16.931297709923665,150,4
92,0.8232421875,-0.124267578125,-0.101318359375,-54.36641221374046,19.61832061068702,13.679389312977099,150,4
93,0.774658203125,-0.13427734375,-0.142333984375,-43.099236641221374,16.946564885496183,8.045801526717558,150,4
94,0.7626953125,-0.155029296875,-0.157958984375,-46.93129770992366,13.49618320610687,4.977099236641221,150,4
95,0.771728515625,-0.180908203125,-0.140380859375,-50.67175572519084,12.229007633587786,6.885496183206107,150,4
96,0.796142578125,-0.1875,-0.1484375,-41.587786259541986,10.16793893129771,8.702290076335878,150,4
97,0.79150390625,-0.1796875,-0.145751953125,-38.42748091603053,6.534351145038168,9.206106870229007,150,4
98,0.763671875,-0.24853515625,-0.11767578125,-31.267175572519083,4.106870229007634,8.335877862595419,150,4
99,0.8056640625,-0.193359375,-0.083251953125,-25.17557251908397,0.0916030534351145,6.99236641221374,150,4
100,0.724853515625,-0.229736328125,-0.118408203125,-23.00763358778626,9.053435114503817,6.8396946564885495,150,4
101,0.66845703125,-0.260009765625,-0.05126953125,-20.50381679389313,14.793893129770993,5.893129770992366,150,4
102,0.65478515625,-0.27734375,-0.0556640625,-16.9618320610687,23.358778625954198,5.4961832061068705,150,4
103,0.675537109375,-0.27783203125,-0.057373046875,-15.633587786259541,30.18320610687023,5.435114503816794,150,4
104,0.728515625,-0.2529296875,-0.083984375,-8.412213740458014,34.12213740458015,4.5038167938931295,150,4
105,0.7744140625,-0.196533203125,-0.079345703125,-7.908396946564886,38.916030534351144,1.251908396946565,150,4
106,0.79736328125,-0.179443359375,-0.112548828125,-22.290076335877863,38.18320610687023,-6.534351145038168,150,4
107,0.79931640625,-0.17578125,-0.1435546875,-30.671755725190838,34.29007633587786,-10.717557251908397,150,4
108,0.815185546875,-0.18115234375,-0.17041015625,-35.81679389312977,29.114503816793892,-15.297709923664122,150,4
109,0.840576171875,-0.2119140625,-0.189697265625,-36.99236641221374,23.801526717557252,-8.82442748091603,150,4
110,0.873046875,-0.242431640625,-0.19677734375,-40.44274809160305,16.763358778625953,-5.633587786259542,150,4
111,0.75732421875,-0.2724609375,-0.204345703125,-42.47328244274809,11.129770992366412,-0.04580152671755725,150,4
112,0.7490234375,-0.294189453125,-0.170654296875,-38.97709923664122,-1.4809160305343512,6.793893129770993,150,4
113,0.744384765625,-0.27685546875,-0.147705078125,-27.34351145038168,-4.305343511450381,14.290076335877863,150,4
114,0.73876953125,-0.267822265625,-0.088134765625,-19.114503816793892,-11.16030534351145,18.137404580152673,150,4
115,0.695556640625,-0.258056640625,-0.056884765625,-18.717557251908396,-10.65648854961832,13.98473282442748,150,4
116,0.628173828125,-0.2451171875,-0.023193359375,-16.015267175572518,-4.748091603053435,7.969465648854962,150,4
117,0.6181640625,-0.239013671875,-0.0048828125,-20.15267175572519,3.114503816793893,3.1755725190839694,150,4
118,0.63330078125,-0.195068359375,-0.0087890625,-27.374045801526716,8.106870229007633,0.2900763358778626,150,4
119,0.640380859375,-0.2900390625,-0.014892578125,-41.11450381679389,18.977099236641223,0.32061068702290074,150,4
120,0.646728515625,-0.370361328125,-0.00146484375,-47.770992366412216,21.404580152671755,2.732824427480916,150,4
121,0.729248046875,-0.2919921875,-0.073486328125,-50.36641221374046,18.977099236641223,7.526717557251908,150,4
122,0.8466796875,-0.266357421875,-0.072998046875,-44.916030534351144,19.96946564885496,11.511450381679388,150,4
123,0.855224609375,-0.220458984375,-0.114501953125,-42.732824427480914,23.221374045801525,6.793893129770993,150,4
124,0.8125,-0.17822265625,-0.152587890625,-51.74045801526717,16.290076335877863,-3.4656488549618323,150,4
125,0.820068359375,-0.18701171875,-0.154541015625,-60.50381679389313,2.2595419847328246,-9.053435114503817,150,4
126,0.8720703125,-0.2705078125,-0.154296875,-48.06106870229008,-9.16030534351145,-5.4961832061068705,150,4
127,0.80615234375,-0.334716796875,-0.129150390625,-28.427480916030536,-14.412213740458014,0.015267175572519083,150,4
128,0.779052734375,-0.33154296875,-0.129150390625,-16.30534351145038,-19.236641221374047,9.068702290076336,150,4
129,0.71728515625,-0.290771484375,-0.123779296875,-24.65648854961832,-25.6793893129771,7.435114503816794,150,4
130,0.7431640625,-0.2646484375,-0.123291015625,-31.603053435114504,-27.572519083969464,5.740458015267175,150,4
131,0.6826171875,-0.282958984375,-0.099365234375,-37.43511450381679,-25.022900763358777,5.190839694656488,150,4
132,0.693115234375,-0.286376953125,-0.0712890625,-39.83206106870229,-22.290076335877863,5.3893129770992365,150,4
133,0.68115234375,-0.280029296875,-0.083984375,-39.343511450381676,-19.81679389312977,6.519083969465649,150,4
134,0.7060546875,-0.28369140625,-0.109619140625,-54.54961832061068,-19.328244274809162,2.9618320610687023,150,4
135,0.71923828125,-0.2939453125,-0.09912109375,-52.48854961832061,-15.954198473282442,3.3740458015267176,150,4
136,0.75390625,-0.292724609375,-0.09326171875,-50.12213740458015,-18.35114503816794,4.198473282442748,150,4
137,0.77197265625,-0.29150390625,-0.064208984375,-56.030534351145036,-21.221374045801525,4.0458015267175576,150,4
138,0.793701171875,-0.26611328125,-0.054931640625,-54.229007633587784,-15.648854961832061,0.8702290076335878,150,4
139,0.796142578125,-0.248291015625,-0.092529296875,-50.88549618320611,-9.603053435114504,-2.900763358778626,150,4
140,0.8017578125,-0.219482421875,-0.062744140625,-63.61832061068702,-9.709923664122137,-6.625954198473282,150,4
141,0.81884765625,-0.225341796875,-0.172607421875,-64.61068702290076,-14.51908396946565,-8.213740458015268,150,4
142,0.82568359375,-0.24755859375,-0.194091796875,-52.534351145038165,-15.664122137404581,-4.030534351145038,150,4
143,0.857421875,-0.234619140625,-0.2177734375,-40.97709923664122,-34.74809160305343,-6.0458015267175576,150,4
144,0.817626953125,-0.26025390625,-0.255126953125,-41.3587786259542,-52.51908396946565,-2.2442748091603053,150,4
145,0.794921875,-0.289306640625,-0.20458984375,-34.70229007633588,-56.79389312977099,3.5572519083969465,150,4
146,0.773681640625,-0.286865234375,-0.1591796875,-25.984732824427482,-57.404580152671755,7.786259541984733,150,4
147,0.748779296875,-0.2705078125,-0.140869140625,-38.99236641221374,-57.786259541984734,10.381679389312977,150,4
148,0.746337890625,-0.2705078125,-0.135009765625,-40.19847328244275,-52.01526717557252,12.748091603053435,150,4
149,0.773193359375,-0.25244140625,-0.1298828125,-39.43511450381679,-49.06870229007634,12.595419847328245,150,4
150,0.759521484375,-0.244873046875,-0.146728515625,-44.33587786259542,-52.534351145038165,12.412213740458014,150,4
151,0.800048828125,-0.2421875,-0.14794921875,-42.58015267175573,-52.717557251908396,15.038167938931299,150,4
152,0.851806640625,-0.219970703125,-0.0654296875,-27.61832061068702,-50.76335877862596,19.374045801526716,150,4
153,0.826171875,-0.189453125,-0.115234375,-28.946564885496183,-56.85496183206107,15.587786259541986,150,4
154,0.80615234375,-0.21142578125,-0.06103515625,-28.35114503816794,-57.87786259541985,10.412213740458014,150,4
155,0.793212890625,-0.2578125,0.010009765625,-23.46564885496183,-50.56488549618321,11.86259541984733,150,4
156,0.76220703125,-0.27734375,0.044189453125,-24.229007633587788,-34.47328244274809,11.908396946564885,150,4
157,0.732177734375,-0.2724609375,0.05810546875,-32.97709923664122,-16.045801526717558,8.412213740458014,150,4
158,0.729248046875,-0.2666015625,0.047119140625,-36.2442748091603,-3.3587786259541983,4.519083969465649,150,4
159,0.70263671875,-0.289794921875,-0.027587890625,-51.14503816793893,7.9541984732824424,2.122137404580153,150,4
160,0.76416015625,-0.342529296875,-0.1865234375,-58.38167938931298,8.427480916030534,10.83969465648855,150,4
161,0.8369140625,-0.302001953125,-0.30908203125,-45.81679389312977,-8.335877862595419,16.53435114503817,150,4
162,0.8583984375,-0.20751953125,-0.348388671875,-28.778625954198475,-31.14503816793893,8.80916030534351,150,4
163,0.765625,-0.2060546875,-0.34765625,-28.290076335877863,-54.10687022900763,4.641221374045801,150,4
164,0.790283203125,-0.241943359375,-0.259765625,-14.793893129770993,-70.01526717557252,4.580152671755725,150,4
165,0.80615234375,-0.245849609375,-0.156494140625,4.625954198473282,-72.79389312977099,3.3740458015267176,150,4
166,0.800048828125,-0.224365234375,-0.12255859375,-3.282442748091603,-57.41984732824427,-2.2442748091603053,150,4
167,0.77001953125,-0.224365234375,-0.052490234375,-15.923664122137405,-23.862595419847327,-6.748091603053435,150,4
168,0.775634765625,-0.20654296875,-0.121337890625,-30.229007633587788,-17.755725190839694,-7.9541984732824424,150,4
169,0.781005859375,-0.208251953125,-0.171630859375,-15.969465648854962,-17.221374045801525,-8.351145038167939,150,4
170,0.752197265625,-0.212158203125,-0.1767578125,-15.251908396946565,-18.27480916030534,-18.137404580152673,150,4
171,0.703125,-0.310302734375,-0.180419921875,-18.946564885496183,-13.282442748091603,-14.732824427480915,150,4
172,0.746337890625,-0.341796875,-0.181396484375,-9.603053435114504,-3.8473282442748094,3.0229007633587788,150,4
173,0.66943359375,-0.330810546875,-0.1005859375,-9.755725190839694,1.5572519083969465,18.610687022900763,150,4
174,0.765625,-0.220947265625,-0.0947265625,-3.3282442748091605,19.206106870229007,26.80916030534351,150,4
175,0.714599609375,-0.131103515625,-0.09423828125,-20.106870229007633,30.259541984732824,13.083969465648854,150,4
176,0.7265625,-0.1396484375,-0.099365234375,-17.862595419847327,42.274809160305345,7.419847328244275,150,4
177,0.65380859375,-0.194091796875,-0.181884765625,-20.366412213740457,48.030534351145036,4.702290076335878,150,4
178,0.579345703125,-0.21142578125,-0.2822265625,-22.732824427480917,48.778625954198475,8.183206106870228,150,4
179,0.622802734375,-0.244140625,-0.373046875,-23.69465648854962,27.053435114503817,14.396946564885496,150,4
180,0.5771484375,-0.26416015625,-0.361328125,-5.770992366412214,7.587786259541985,22.671755725190838,150,4
181,0.620849609375,-0.2197265625,-0.30712890625,-7.66412213740458,-8.610687022900763,26.83969465648855,150,4
182,0.705810546875,-0.190673828125,-0.065673828125,4.580152671755725,9.725190839694656,17.435114503816795,150,4
183,0.7685546875,-0.16064453125,-0.125732421875,-22.977099236641223,34.87022900763359,2.183206106870229,150,4
184,0.813720703125,-0.17822265625,-0.281005859375,-30.916030534351144,46.6412213740458,-5.740458015267175,150,4
185,0.899658203125,-0.212646484375,-0.32373046875,-31.00763358778626,12.870229007633588,-2.763358778625954,150,4
186,0.885498046875,-0.285888671875,-0.321533203125,6.6106870229007635,-4.763358778625954,11.923664122137405,150,4
187,0.868896484375,-0.173095703125,-0.234619140625,16.076335877862597,-3.572519083969466,15.618320610687023,150,4
188,0.82666015625,-0.0830078125,-0.1357421875,-4.061068702290076,30.259541984732824,-0.6564885496183206,150,4
189,0.70751953125,-0.09814453125,-0.20458984375,-22.65648854961832,65.25190839694656,-4.0458015267175576,150,4
190,0.65380859375,-0.116943359375,-0.32861328125,-47.9236641221374,55.05343511450382,-7.099236641221374,150,4
191,0.58544921875,-0.259521484375,-0.44970703125,-38.152671755725194,41.29770992366412,14.427480916030534,150,4
192,0.578125,-0.244384765625,-0.39892578125,-29.129770992366414,24.015267175572518,22.580152671755727,150,4
193,0.5029296875,-0.221923828125,-0.328857421875,-28.091603053435115,14.229007633587786,23.00763358778626,150,4
194,0.5595703125,-0.243408203125,-0.2744140625,-29.221374045801525,14.320610687022901,25.297709923664122,150,4
195,0.603759765625,-0.253173828125,-0.25927734375,-31.923664122137403,12.625954198473282,27.557251908396946,150,4
196,0.67138671875,-0.242919921875,-0.2060546875,-26.85496183206107,8.381679389312977,29.114503816793892,150,4
197,0.780517578125,-0.256591796875,-0.14599609375,-18.977099236641223,18.85496183206107,29.984732824427482,150,4
198,0.82861328125,-0.16455078125,-0.147216796875,-25.541984732824428,28.50381679389313,23.083969465648856,150,4
199,0.84228515625,-0.173828125,-0.161376953125,-37.64885496183206,45.70992366412214,12.778625954198473,150,4
200,0.8232421875,-0.223388671875,-0.238037109375,-46.16793893129771,51.19083969465649,10.473282442748092,150,4
201,0.7841796875,-0.276123046875,-0.287109375,-48.62595419847328,41.55725190839695,13.694656488549619,150,4
202,0.758544921875,-0.294921875,-0.27490234375,-37.51145038167939,34.50381679389313,21.480916030534353,150,4
203,0.84619140625,-0.2265625,-0.219482421875,-25.541984732824428,23.34351145038168,20.18320610687023,150,4
204,0.85595703125,-0.2490234375,-0.154296875,-26.946564885496183,31.068702290076335,12.931297709923664,150,4
205,0.80029296875,-0.22802734375,-0.147216796875,-35.29770992366412,40.778625954198475,8.50381679389313,150,4
206,0.7705078125,-0.3154296875,-0.17724609375,-39.099236641221374,42.87022900763359,19.068702290076335,150,4
207,0.751953125,-0.348876953125,-0.193115234375,-26.458015267175572,41.25190839694657,29.587786259541986,150,4
208,0.87158203125,-0.287353515625,-0.178955078125,-25.81679389312977,42.717557251908396,31.66412213740458,150,4
209,0.91455078125,-0.270751953125,-0.16259765625,-28.9618320610687,48.06106870229008,34.51908396946565,150,4
210,0.980224609375,-0.2109375,-0.13818359375,-26.732824427480917,59.86259541984733,34.93129770992366,150,4
211,0.99853515625,-0.139404296875,-0.16796875,-34.595419847328245,68.0,26.442748091603054,150,4
212,1.03076171875,-0.10302734375,-0.1748046875,-35.969465648854964,75.26717557251908,23.251908396946565,150,4
213,1.062255859375,-0.1015625,-0.15966796875,-40.29007633587786,74.59541984732824,11.938931297709924,150,4
214,0.9140625,-0.2041015625,-0.074462890625,-39.51145038167939,74.12213740458016,11.557251908396946,150,4
215,0.85302734375,-0.30322265625,-0.003662109375,-35.89312977099237,80.8854961832061,14.916030534351146,150,4
216,0.825927734375,-0.30029296875,0.021728515625,-25.984732824427482,87.38931297709924,15.099236641221374,150,4
217,0.84765625,-0.231689453125,-0.00048828125,-25.435114503816795,88.12213740458016,8.274809160305344,150,4
218,0.8212890625,-0.218994140625,-0.067626953125,-28.885496183206108,92.51908396946565,5.1603053435114505,150,4
219,0.824951171875,-0.173095703125,-0.14306640625,-27.480916030534353,91.55725190839695,-0.7938931297709924,150,4
220,0.7841796875,-0.16455078125,-0.2265625,-40.85496183206107,87.54198473282443,-2.900763358778626,150,4
221,0.779052734375,-0.177001953125,-0.275390625,-43.908396946564885,82.3206106870229,-1.4351145038167938,150,4
222,0.77099609375,-0.14111328125,-0.311279296875,-53.06870229007634,64.13740458015268,-6.549618320610687,150,4
223,0.7421875,-0.244873046875,-0.214599609375,-49.49618320610687,43.23664122137404,-3.0381679389312977,150,4
224,0.748779296875,-0.39453125,-0.003173828125,-24.137404580152673,31.51145038167939,18.229007633587788,150,4
225,0.792236328125,-0.358154296875,0.140869140625,-19.297709923664122,49.221374045801525,23.557251908396946,150,4
226,0.852294921875,-0.254150390625,0.305908203125,-23.893129770992367,78.6412213740458,19.0381679389313,150,4
227,0.9365234375,-0.244873046875,0.29833984375,-54.38167938931298,110.16793893129771,1.5419847328244274,150,4
228,0.85986328125,-0.23193359375,0.2373046875,-66.3206106870229,126.19847328244275,-1.0229007633587786,150,4
229,0.82275390625,-0.2646484375,0.111328125,-59.725190839694655,116.01526717557252,1.8778625954198473,150,4
230,0.768310546875,-0.267822265625,0.01123046875,-49.32824427480916,110.18320610687023,7.267175572519084,150,4
231,0.7431640625,-0.207763671875,-0.012939453125,-55.98473282442748,112.27480916030534,0.6412213740458015,150,4
232,0.592529296875,-0.212890625,-0.062744140625,-78.77862595419847,102.73282442748092,-3.9389312977099236,150,4
233,0.618896484375,-0.302490234375,-0.066650390625,-69.23664122137404,84.30534351145039,-6.473282442748092,150,4
234,0.628662109375,-0.34130859375,-0.031005859375,-54.534351145038165,58.42748091603053,-3.2061068702290076,150,4
235,0.634521484375,-0.321533203125,0.09912109375,-35.282442748091604,46.656488549618324,-3.3893129770992365,150,4
236,0.657470703125,-0.28759765625,0.186279296875,-47.83206106870229,52.732824427480914,-7.801526717557252,150,4
237,0.672607421875,-0.345703125,0.28076171875,-51.12977099236641,63.81679389312977,-4.290076335877862,150,4
238,0.72509765625,-0.40771484375,0.356689453125,-49.083969465648856,79.72519083969466,6.1679389312977095,150,4
239,0.753173828125,-0.401123046875,0.395263671875,-51.6793893129771,92.3206106870229,11.267175572519085,150,4
240,0.77587890625,-0.39892578125,0.474365234375,-44.61068702290076,120.51908396946565,13.34351145038168,150,4
241,0.865234375,-0.346435546875,0.40673828125,-51.038167938931295,141.16030534351145,13.83206106870229,150,4
242,0.92333984375,-0.264404296875,0.300537109375,-49.93893129770992,146.38167938931298,8.030534351145038,150,4
243,0.933349609375,-0.192138671875,0.250244140625,-60.10687022900763,145.00763358778627,-0.7938931297709924,150,4
244,0.857177734375,-0.165283203125,0.1875,-65.63358778625954,160.0,-19.51145038167939,150,4
245,0.75244140625,-0.142822265625,0.021240234375,-80.33587786259542,142.10687022900763,-34.36641221374046,150,4
246,0.685302734375,-0.23583984375,-0.085205078125,-79.23664122137404,107.81679389312977,-38.76335877862596,150,4
247,0.53564453125,-0.336669921875,-0.050537109375,-60.396946564885496,72.62595419847328,-27.755725190839694,150,4
248,0.471923828125,-0.347412109375,0.009521484375,-54.25954198473283,46.30534351145038,-27.938931297709924,150,4
249,0.410400390625,-0.443115234375,0.2041015625,-51.404580152671755,29.053435114503817,-16.763358778625953,150,4
250,0.52490234375,-0.51025390625,0.420654296875,-33.93893129770992,45.17557251908397,-7.083969465648855,150,4
251,0.620361328125,-0.43115234375,0.477294921875,-53.32824427480916,60.19847328244275,-14.213740458015268,150,4
252,0.725830078125,-0.332275390625,0.468994140625,-62.10687022900763,70.03053435114504,-15.709923664122137,150,4
253,0.8173828125,-0.35302734375,0.47998046875,-55.465648854961835,69.19083969465649,-18.18320610687023,150,4
254,0.933349609375,-0.316650390625,0.57373046875,-41.89312977099237,75.63358778625954,-22.458015267175572,150,4
255,0.991455078125,-0.251953125,0.634765625,-47.52671755725191,100.21374045801527,-36.99236641221374,150,4
256,0.863525390625,-0.282958984375,0.594970703125,-65.52671755725191,133.6946564885496,-46.0763358778626,150,4
257,0.78955078125,-0.2890625,0.39306640625,-74.18320610687023,148.21374045801528,-54.29007633587786,150,4
258,0.677734375,-0.340087890625,0.21044921875,-67.69465648854961,126.85496183206106,-54.12213740458015,150,4
259,0.610107421875,-0.3671875,0.130859375,-51.19083969465649,100.80916030534351,-50.06106870229008,150,4
260,0.600341796875,-0.319580078125,0.099365234375,-58.58015267175573,74.41221374045801,-57.7557251908397,150,4
261,0.55126953125,-0.32666015625,0.09375,-46.99236641221374,55.37404580152672,-59.969465648854964,150,4
262,0.531005859375,-0.25244140625,0.173583984375,-42.152671755725194,34.10687022900763,-64.33587786259542,150,4
263,0.51318359375,-0.38671875,0.280517578125,-42.3206106870229,27.603053435114504,-61.66412213740458,150,4
264,0.50634765625,-0.387939453125,0.313232421875,-43.282442748091604,36.88549618320611,-62.030534351145036,150,4
265,0.51318359375,-0.353759765625,0.290771484375,-58.25954198473283,33.63358778625954,-67.69465648854961,150,4
266,0.548828125,-0.406494140625,0.29833984375,-54.030534351145036,20.427480916030536,-62.68702290076336,150,4
267,0.573486328125,-0.41015625,0.33837890625,-40.99236641221374,5.923664122137405,-59.587786259541986,150,4
268,0.548583984375,-0.41552734375,0.465087890625,-34.10687022900763,4.8396946564885495,-57.14503816793893,150,4
269,0.561279296875,-0.406982421875,0.547607421875,-33.969465648854964,15.801526717557252,-57.038167938931295,150,4
270,0.568603515625,-0.3642578125,0.5498046875,-42.656488549618324,36.67175572519084,-60.2442748091603,150,4
271,0.580322265625,-0.33984375,0.481201171875,-51.9236641221374,50.56488549618321,-62.38167938931298,150,4
272,0.590087890625,-0.3388671875,0.398681640625,-53.725190839694655,49.38931297709924,-62.045801526717554,150,4
273,0.60888671875,-0.319580078125,0.43505859375,-52.595419847328245,43.603053435114504,-62.85496183206107,150,4
274,0.593505859375,-0.28955078125,0.33984375,-52.88549618320611,36.33587786259542,-63.969465648854964,150,4
275,0.59326171875,-0.298583984375,0.33154296875,-54.62595419847328,29.83206106870229,-63.12977099236641,150,4
276,0.5634765625,-0.250244140625,0.324462890625,-51.69465648854962,22.82442748091603,-66.33587786259542,150,4
277,0.538818359375,-0.324462890625,0.352783203125,-54.36641221374046,4.732824427480916,-57.969465648854964,150,4
278,0.5693359375,-0.48193359375,0.454345703125,-42.10687022900763,-2.366412213740458,-37.00763358778626,150,4
279,0.618896484375,-0.496337890625,0.5947265625,-36.87022900763359,5.572519083969466,-24.18320610687023,150,4
280,0.67041015625,-0.486328125,0.667724609375,-45.05343511450382,25.587786259541986,-19.221374045801525,150,4
281,0.78564453125,-0.43798828125,0.748779296875,-47.19083969465649,50.152671755725194,-8.244274809160306,150,4
282,0.880126953125,-0.296630859375,0.6806640625,-52.87022900763359,61.63358778625954,-23.0381679389313,150,4
283,0.944091796875,-0.26953125,0.513916015625,-53.63358778625954,65.49618320610686,-27.72519083969466,150,4
284,0.97021484375,-0.242431640625,0.414794921875,-50.33587786259542,61.267175572519086,-42.35114503816794,150,4
285,0.938232421875,-0.217529296875,0.31103515625,-49.81679389312977,44.732824427480914,-53.00763358778626,150,4
286,0.884033203125,-0.266845703125,0.250732421875,-41.64885496183206,30.900763358778626,-58.06106870229008,150,4
287,0.799560546875,-0.32568359375,0.372802734375,-39.81679389312977,18.595419847328245,-59.81679389312977,150,4
288,0.68798828125,-0.350341796875,0.376220703125,-41.74045801526717,19.893129770992367,-57.69465648854962,150,4
289,0.595947265625,-0.398681640625,0.5185546875,-46.0,24.106870229007633,-51.00763358778626,150,4
290,0.54931640625,-0.396728515625,0.571533203125,-46.152671755725194,41.465648854961835,-45.55725190839695,150,4
291,0.54248046875,-0.3515625,0.5947265625,-50.213740458015266,54.54961832061068,-44.916030534351144,150,4
292,0.5810546875,-0.332275390625,0.589111328125,-49.969465648854964,59.12977099236641,-44.045801526717554,150,4
293,0.658935546875,-0.314697265625,0.57177734375,-37.786259541984734,60.961832061068705,-41.32824427480916,150,4
294,0.736328125,-0.235107421875,0.5693359375,-34.2442748091603,63.541984732824424,-45.6793893129771,150,4
295,0.721435546875,-0.21533203125,0.565185546875,-37.19083969465649,73.37404580152672,-50.76335877862596,150,4
296,0.7158203125,-0.21728515625,0.544677734375,-38.595419847328245,81.89312977099236,-46.534351145038165,150,4
297,0.68017578125,-0.1904296875,0.501953125,-40.900763358778626,84.06106870229007,-48.44274809160305,150,4
298,0.613525390625,-0.210693359375,0.46533203125,-43.57251908396947,81.05343511450381,-47.541984732824424,150,4
299,0.5654296875,-0.23974609375,0.4404296875,-40.42748091603053,74.53435114503817,-43.74045801526717,150,4
300,0.530029296875,-0.2255859375,0.39208984375,-39.969465648854964,59.603053435114504,-44.0763358778626,150,4
301,0.51171875,-0.222412109375,0.348876953125,-37.14503816793893,46.595419847328245,-44.58015267175573,150,4
302,0.468505859375,-0.201904296875,0.354736328125,-37.404580152671755,23.6793893129771,-45.725190839694655,150,4
303,0.4287109375,-0.22509765625,0.41357421875,-34.06106870229008,7.3893129770992365,-43.465648854961835,150,4
304,0.40087890625,-0.29052734375,0.52880859375,-22.68702290076336,-3.267175572519084,-38.3206106870229,150,4
305,0.427734375,-0.258056640625,0.62890625,-22.748091603053435,0.2900763358778626,-38.36641221374046,150,4
306,0.492431640625,-0.217529296875,0.678466796875,-28.763358778625953,11.709923664122137,-39.25190839694657,150,4
307,0.662841796875,-0.18798828125,0.694580078125,-27.114503816793892,18.12213740458015,-38.18320610687023,150,4
308,0.795654296875,-0.114013671875,0.693115234375,-18.427480916030536,28.045801526717558,-46.396946564885496,150,4
309,0.81298828125,-0.05078125,0.78271484375,-25.893129770992367,52.732824427480914,-59.87786259541985,150,4
310,0.796875,-0.080810546875,0.711669921875,-41.69465648854962,77.7557251908397,-68.73282442748092,150,4
311,0.6318359375,-0.1669921875,0.607421875,-42.10687022900763,83.93893129770993,-68.83969465648855,150,4
312,0.53271484375,-0.171630859375,0.424072265625,-37.6793893129771,63.587786259541986,-67.87786259541984,150,4
313,0.475341796875,-0.189208984375,0.29052734375,-20.99236641221374,33.25190839694657,-65.92366412213741,150,4
314,0.457763671875,-0.20849609375,0.33740234375,-2.732824427480916,10.030534351145038,-54.97709923664122,150,4
315,0.4697265625,-0.104736328125,0.3876953125,-4.763358778625954,5.099236641221374,-59.70992366412214,150,4
316,0.46826171875,-0.052978515625,0.4091796875,-22.671755725190838,-0.916030534351145,-65.89312977099236,150,4
317,0.47216796875,-0.068603515625,0.414306640625,-20.30534351145038,-9.19083969465649,-68.6412213740458,150,4
318,0.48828125,-0.021240234375,0.448486328125,-24.717557251908396,-12.244274809160306,-78.06106870229007,150,4
319,0.491943359375,0.047607421875,0.449951171875,-27.984732824427482,-29.87786259541985,-92.83969465648855,150,4
320,0.443115234375,-0.0185546875,0.52197265625,-19.81679389312977,-41.31297709923664,-98.38167938931298,150,4
321,0.386474609375,-0.09423828125,0.5986328125,-9.664122137404581,-46.67175572519084,-99.90839694656489,150,4
322,0.326904296875,-0.1572265625,0.657470703125,-7.480916030534351,-48.76335877862596,-95.70992366412214,150,4
323,0.4140625,-0.243896484375,0.7470703125,9.694656488549619,-40.54961832061068,-79.96946564885496,150,4
324,0.57421875,-0.245849609375,0.83544921875,15.954198473282442,-23.51145038167939,-71.40458015267176,150,4
325,0.638916015625,-0.03515625,0.922119140625,14.916030534351146,3.8625954198473282,-75.64885496183206,150,4
326,0.6376953125,-0.00341796875,0.924560546875,-4.137404580152672,53.221374045801525,-79.19083969465649,150,4
327,0.617431640625,0.0546875,0.8095703125,-27.282442748091604,77.16030534351145,-97.69465648854961,150,4
328,0.5458984375,0.044189453125,0.54150390625,-15.938931297709924,63.282442748091604,-104.83969465648855,150,4
329,0.470703125,-0.0361328125,0.4423828125,-0.44274809160305345,43.74045801526717,-101.29770992366412,150,4
330,0.432861328125,-0.01318359375,0.373291015625,9.465648854961833,22.48854961832061,-101.83206106870229,150,4
331,0.429931640625,-0.007080078125,0.390380859375,16.564885496183205,3.404580152671756,-105.29770992366412,150,4
332,0.328857421875,-0.05859375,0.45263671875,4.717557251908397,-11.312977099236642,-102.8854961832061,150,4
333,0.21533203125,-0.10546875,0.44677734375,1.5725190839694656,-8.854961832061068,-101.61832061068702,150,4
334,0.162841796875,-0.085205078125,0.37158203125,-0.5190839694656488,-19.206106870229007,-90.3969465648855,150,4
335,0.1796875,-0.058349609375,0.3701171875,-2.2442748091603053,-29.83206106870229,-90.77862595419847,150,4
336,0.178955078125,0.076904296875,0.308837890625,-8.396946564885496,-41.786259541984734,-95.58778625954199,150,4
337,0.10205078125,0.04443359375,0.227783203125,-18.732824427480917,-61.11450381679389,-94.76335877862596,150,4
338,0.08837890625,-0.03369140625,0.227783203125,-12.83969465648855,-81.02290076335878,-89.66412213740458,150,4
339,0.138671875,-0.0078125,0.226318359375,-6.5038167938931295,-99.19083969465649,-80.38167938931298,150,4
340,0.230712890625,0.070068359375,0.238037109375,-8.687022900763358,-127.09923664122137,-81.3587786259542,150,4
341,0.294677734375,0.048095703125,0.33642578125,-5.801526717557252,-145.26717557251908,-76.25954198473282,150,4
342,0.41943359375,-0.070068359375,0.51953125,6.931297709923665,-148.53435114503816,-61.847328244274806,150,4
343,0.55712890625,-0.02197265625,0.66357421875,9.083969465648854,-129.1908396946565,-52.732824427480914,150,4
344,0.64990234375,0.0283203125,0.804443359375,-1.5114503816793894,-92.35114503816794,-51.48091603053435,150,4
345,0.702392578125,0.1240234375,0.8017578125,-18.916030534351144,-44.61068702290076,-55.786259541984734,150,4
346,0.6787109375,0.230712890625,0.513427734375,-37.49618320610687,-22.931297709923665,-76.3206106870229,150,4
347,0.6455078125,0.211181640625,0.266357421875,-33.52671755725191,-40.2442748091603,-82.56488549618321,150,4
348,0.534912109375,0.087646484375,0.190673828125,-12.244274809160306,-74.09160305343511,-75.16030534351145,150,4
349,0.49169921875,0.057373046875,0.206298828125,1.4198473282442747,-93.02290076335878,-69.70992366412214,150,4
350,0.465087890625,0.091552734375,0.286865234375,-0.33587786259541985,-96.51908396946565,-70.77862595419847,150,4
351,0.448974609375,0.10107421875,0.37158203125,-12.610687022900763,-92.80916030534351,-69.63358778625954,150,4
352,0.455322265625,0.1005859375,0.27978515625,-23.14503816793893,-86.70229007633588,-64.41221374045801,150,4
353,0.484375,0.142822265625,0.172119140625,-37.20610687022901,-89.77099236641222,-61.32824427480916,150,4
354,0.515869140625,0.187255859375,0.064208984375,-37.06870229007634,-104.82442748091603,-60.0763358778626,150,4
355,0.48046875,0.148681640625,0.04736328125,-35.63358778625954,-126.54961832061069,-58.25954198473283,150,4
356,0.45751953125,0.0947265625,0.109375,-28.33587786259542,-137.46564885496184,-45.725190839694655,150,4
357,0.427734375,0.077880859375,0.146484375,-25.557251908396946,-145.206106870229,-39.19083969465649,150,4
358,0.375,0.0517578125,0.177001953125,-22.519083969465647,-142.27480916030535,-27.96946564885496,150,4
359,0.51806640625,0.07568359375,0.166259765625,-26.33587786259542,-137.70992366412213,-26.946564885496183,150,4
360,0.63037109375,0.1962890625,0.092041015625,-31.801526717557252,-141.3740458015267,-27.755725190839694,150,4
361,0.7490234375,0.21142578125,0.071044921875,-36.35114503816794,-150.54961832061068,-29.64885496183206,150,4
362,0.845703125,0.270751953125,0.0791015625,-41.267175572519086,-154.33587786259542,-33.83206106870229,150,4
363,0.89306640625,0.260009765625,0.06689453125,-54.61068702290076,-147.2824427480916,-41.02290076335878,150,4
364,0.82861328125,0.287109375,0.01953125,-76.41221374045801,-154.1679389312977,-52.19847328244275,150,4
365,0.73291015625,0.09912109375,0.07177734375,-79.96946564885496,-161.38931297709922,-42.97709923664122,150,4
366,0.773681640625,-0.051025390625,0.17431640625,-63.89312977099237,-157.2824427480916,-10.335877862595419,150,4
367,0.749267578125,0.02783203125,0.221923828125,-56.48854961832061,-144.5648854961832,-13.17557251908397,150,4
368,0.64892578125,0.132568359375,0.19287109375,-92.12213740458016,-116.6412213740458,-17.14503816793893,150,4
369,0.6611328125,0.084228515625,0.051513671875,-100.93129770992367,-107.6793893129771,-13.053435114503817,150,4
370,0.669189453125,0.052978515625,-0.122802734375,-82.87022900763358,-134.3053435114504,-5.374045801526718,150,4
371,0.626708984375,-0.016357421875,-0.021484375,-47.93893129770992,-156.38167938931298,5.893129770992366,150,4
372,0.737548828125,0.03759765625,0.087890625,-37.770992366412216,-147.08396946564886,5.251908396946565,150,4
373,0.760986328125,0.07080078125,0.031005859375,-66.41221374045801,-113.90839694656489,-0.6564885496183206,150,4
374,0.799072265625,0.141845703125,-0.141845703125,-88.36641221374046,-110.07633587786259,-11.557251908396946,150,4
375,0.855712890625,0.127197265625,-0.3193359375,-87.0381679389313,-145.9236641221374,-14.748091603053435,150,4
376,0.8173828125,-0.001708984375,-0.13037109375,-57.7557251908397,-177.2824427480916,5.114503816793893,150,4
377,1.01171875,0.049072265625,0.178955078125,-41.969465648854964,-152.8854961832061,15.16030534351145,150,4
378,1.08837890625,0.234619140625,0.361083984375,-68.51908396946565,-94.56488549618321,-8.244274809160306,150,4
379,0.9931640625,0.160400390625,0.319580078125,-112.90076335877863,-31.34351145038168,-19.61832061068702,150,4
380,0.897705078125,0.05908203125,0.103271484375,-130.42748091603053,-4.5038167938931295,-19.129770992366414,150,4
381,0.7841796875,0.051513671875,-0.14404296875,-113.70992366412214,-17.14503816793893,-9.877862595419847,150,4
382,0.677490234375,0.03955078125,-0.347412109375,-101.38931297709924,-55.37404580152672,-3.877862595419847,150,4
383,0.5986328125,0.023681640625,-0.33837890625,-66.85496183206106,-86.45801526717557,8.320610687022901,150,4
384,0.600341796875,0.10107421875,-0.263671875,-58.56488549618321,-99.83206106870229,10.687022900763358,150,4
385,0.58349609375,0.15771484375,-0.2587890625,-68.35114503816794,-99.20610687022901,5.114503816793893,150,4
386,0.5439453125,0.125,-0.295654296875,-80.07633587786259,-96.99236641221374,6.931297709923665,150,4
387,0.597412109375,0.1162109375,-0.365234375,-87.64885496183206,-104.91603053435115,9.206106870229007,150,4
388,0.643798828125,0.0927734375,-0.379150390625,-90.47328244274809,-118.65648854961832,14.045801526717558,150,4
389,0.796142578125,0.129638671875,-0.350830078125,-87.5114503816794,-130.65648854961833,17.404580152671755,150,4
390,0.8466796875,0.186279296875,-0.190673828125,-86.67175572519083,-138.7175572519084,12.030534351145038,150,4
391,0.783203125,0.06298828125,0.05029296875,-82.80916030534351,-128.9618320610687,11.969465648854962,150,4
392,0.7421875,-0.04296875,0.196044921875,-71.09923664122137,-101.00763358778626,21.587786259541986,150,4
393,0.626953125,-0.00439453125,0.304443359375,-64.36641221374046,-61.45038167938932,24.977099236641223,150,4
394,0.590087890625,-0.06591796875,0.259765625,-68.79389312977099,-10.900763358778626,30.412213740458014,150,4
395,0.623046875,0.029052734375,0.046630859375,-78.18320610687023,26.83969465648855,29.893129770992367,150,4
396,0.677001953125,0.1630859375,-0.33154296875,-93.20610687022901,26.259541984732824,22.412213740458014,150,4
397,0.69140625,0.175048828125,-0.54345703125,-86.29007633587786,-17.69465648854962,22.519083969465647,150,4
398,0.646240234375,0.116455078125,-0.54443359375,-57.6793893129771,-62.83969465648855,35.541984732824424,150,4
399,0.646484375,-0.003662109375,-0.31005859375,-35.02290076335878,-68.0,51.57251908396947,150,4
400,0.712646484375,0.095458984375,-0.11279296875,-49.80152671755725,-39.25190839694657,44.229007633587784,150,4
401,0.752197265625,0.16845703125,-0.11328125,-67.57251908396947,-20.82442748091603,33.86259541984733,150,4
402,0.7685546875,0.109130859375,-0.1611328125,-69.63358778625954,-10.305343511450381,32.656488549618324,150,4
403,0.718994140625,0.076171875,-0.22265625,-59.541984732824424,-19.51145038167939,32.97709923664122,150,4
404,0.652587890625,0.018310546875,-0.231201171875,-46.717557251908396,-24.99236641221374,40.97709923664122,150,4
405,0.629150390625,0.067626953125,-0.22412109375,-36.2442748091603,-23.14503816793893,34.56488549618321,150,4
406,0.630859375,0.06103515625,-0.20654296875,-43.70992366412214,-9.618320610687023,35.38931297709924,150,4
407,0.711181640625,0.06787109375,-0.218994140625,-50.48854961832061,-11.816793893129772,31.954198473282442,150,4
408,0.663330078125,0.01220703125,-0.2001953125,-43.541984732824424,-20.702290076335878,31.6793893129771,150,4
409,0.579345703125,-0.00732421875,-0.182861328125,-40.961832061068705,-8.458015267175572,40.47328244274809,150,4
410,0.527587890625,0.07763671875,-0.246337890625,-57.98473282442748,-6.656488549618321,33.7557251908397,150,4
411,0.48291015625,0.0029296875,-0.3359375,-66.38167938931298,-17.221374045801525,36.091603053435115,150,4
412,0.517333984375,-0.10498046875,-0.357177734375,-55.02290076335878,-28.38167938931298,47.6793893129771,150,4
413,0.564453125,-0.11376953125,-0.321044921875,-40.0,-59.66412213740458,58.30534351145038,150,4
414,0.679931640625,-0.16552734375,-0.141845703125,-10.488549618320612,-73.43511450381679,72.35114503816794,150,4
415,0.770751953125,-0.094970703125,0.036865234375,-0.7938931297709924,-53.23664122137404,67.46564885496183,150,4
416,0.755615234375,-0.01708984375,0.074951171875,-31.236641221374047,-18.870229007633586,55.37404580152672,150,4
417,0.847900390625,-0.02490234375,-0.063232421875,-40.29007633587786,2.8091603053435112,49.70992366412214,150,4
418,0.87158203125,-0.02001953125,-0.217529296875,-41.98473282442748,2.885496183206107,44.33587786259542,150,4
419,0.867919921875,-0.061767578125,-0.32958984375,-48.42748091603053,5.969465648854962,32.961832061068705,150,4
420,0.777099609375,0.055908203125,-0.384033203125,-64.1526717557252,-5.847328244274809,12.473282442748092,150,4
421,0.629150390625,-0.088134765625,-0.503173828125,-60.274809160305345,-39.49618320610687,12.427480916030534,150,4
422,0.5078125,-0.29443359375,-0.436279296875,-32.412213740458014,-74.74809160305344,37.603053435114504,150,4
423,0.4736328125,-0.330322265625,-0.21533203125,-3.6793893129770994,-87.38931297709924,50.56488549618321,150,4
424,0.505615234375,-0.268310546875,-0.090576171875,-1.5572519083969465,-67.66412213740458,54.2442748091603,150,4
425,0.549072265625,-0.2099609375,-0.1162109375,-26.931297709923665,-43.3587786259542,52.10687022900763,150,4
426,0.572265625,-0.216552734375,-0.268310546875,-40.18320610687023,-53.80152671755725,55.87786259541985,150,4
427,0.656494140625,-0.20166015625,-0.3642578125,-19.61832061068702,-71.89312977099236,58.396946564885496,150,4
428,0.753173828125,-0.16357421875,-0.37158203125,-5.633587786259542,-99.29770992366412,58.38167938931298,150,4
429,0.85400390625,-0.191162109375,-0.127197265625,1.4351145038167938,-97.49618320610686,59.05343511450382,150,4
430,0.844970703125,-0.21630859375,0.04052734375,-11.526717557251908,-81.49618320610686,55.603053435114504,150,4
431,0.84375,-0.333251953125,0.189453125,-11.603053435114504,-58.29007633587786,59.89312977099237,150,4
432,0.83154296875,-0.385498046875,0.2880859375,1.8473282442748091,-32.48854961832061,64.70229007633588,150,4
433,0.834716796875,-0.337158203125,0.3115234375,6.229007633587786,-11.16030534351145,59.770992366412216,150,4
434,0.852783203125,-0.2587890625,0.123046875,1.8625954198473282,6.015267175572519,51.43511450381679,150,4
435,0.8203125,-0.267578125,-0.18017578125,-1.6030534351145038,-3.267175572519084,50.36641221374046,150,4
436,0.791259765625,-0.30322265625,-0.32568359375,4.229007633587786,-25.938931297709924,51.20610687022901,150,4
437,0.76904296875,-0.299072265625,-0.431884765625,15.572519083969466,-43.11450381679389,47.282442748091604,150,4
438,0.763916015625,-0.299072265625,-0.471435546875,9.83206106870229,-70.2442748091603,47.3587786259542,150,4
439,0.68994140625,-0.352294921875,-0.45556640625,17.51145038167939,-89.19083969465649,49.51145038167939,150,4
440,0.791259765625,-0.38037109375,-0.414794921875,17.389312977099237,-98.73282442748092,55.37404580152672,150,4
441,0.8046875,-0.34228515625,-0.359130859375,19.297709923664122,-116.33587786259542,56.656488549618324,150,4
442,0.814453125,-0.4052734375,-0.133056640625,29.282442748091604,-126.77862595419847,65.23664122137404,150,4
443,0.91357421875,-0.488525390625,0.081298828125,43.45038167938932,-103.06870229007633,77.17557251908397,150,4
444,0.9501953125,-0.369140625,0.2451171875,34.13740458015267,-51.541984732824424,63.786259541984734,150,4
445,0.946533203125,-0.284912109375,0.099365234375,6.763358778625954,-8.916030534351146,49.63358778625954,150,4
446,0.882080078125,-0.31884765625,-0.196044921875,-4.870229007633588,-8.305343511450381,47.16030534351145,150,4
447,0.837890625,-0.383056640625,-0.3642578125,15.282442748091603,-36.48854961832061,52.25954198473283,150,4
448,0.74951171875,-0.401611328125,-0.384033203125,31.16030534351145,-60.61068702290076,54.595419847328245,150,4
449,0.751953125,-0.35009765625,-0.3515625,30.9618320610687,-54.12213740458015,47.786259541984734,150,4
450,0.7294921875,-0.248291015625,-0.37890625,11.404580152671755,-64.77862595419847,34.58015267175573,150,4
451,0.744873046875,-0.3955078125,-0.305419921875,13.022900763358779,-74.62595419847328,43.05343511450382,150,4
452,0.655517578125,-0.509521484375,-0.14013671875,40.534351145038165,-77.66412213740458,55.954198473282446,150,4
453,0.658203125,-0.4306640625,-0.004150390625,27.72519083969466,-65.55725190839695,54.56488549618321,150,4
454,0.688232421875,-0.44921875,-0.081298828125,22.045801526717558,-50.229007633587784,57.48091603053435,150,4
455,0.794189453125,-0.435546875,-0.128662109375,22.03053435114504,-44.36641221374046,59.83206106870229,150,4
456,0.82861328125,-0.4619140625,-0.150390625,26.458015267175572,-43.786259541984734,65.05343511450381,150,4
457,0.890380859375,-0.455810546875,-0.14306640625,32.732824427480914,-46.62595419847328,65.87786259541984,150,4
458,0.927490234375,-0.4755859375,-0.0859375,42.732824427480914,-47.587786259541986,67.61832061068702,150,4
459,0.950927734375,-0.51904296875,-0.04541015625,51.969465648854964,-36.93129770992366,69.29770992366412,150,4
460,1.0771484375,-0.4296875,-0.078125,51.19083969465649,-19.557251908396946,55.541984732824424,150,4
461,1.148681640625,-0.265380859375,-0.13330078125,35.93893129770992,-6.229007633587786,39.20610687022901,150,4
462,1.060302734375,-0.326904296875,-0.30908203125,31.19083969465649,-3.282442748091603,29.83206106870229,150,4
463,0.896484375,-0.38427734375,-0.431640625,25.51145038167939,-4.244274809160306,23.541984732824428,150,4
464,0.8017578125,-0.454833984375,-0.50537109375,27.908396946564885,-24.519083969465647,37.05343511450382,150,4
465,0.73583984375,-0.443115234375,-0.40673828125,47.7557251908397,-42.16793893129771,45.9236641221374,150,4
466,0.740478515625,-0.423583984375,-0.3115234375,40.717557251908396,-29.419847328244273,46.97709923664122,150,4
467,0.802734375,-0.346923828125,-0.37451171875,28.80916030534351,-26.702290076335878,39.51145038167939,150,4
468,0.819091796875,-0.391845703125,-0.26171875,35.9236641221374,-28.931297709923665,39.14503816793893,150,4
469,0.764892578125,-0.483154296875,-0.20947265625,40.85496183206107,-8.045801526717558,51.29770992366412,150,4
470,0.810302734375,-0.42578125,-0.24072265625,25.46564885496183,14.244274809160306,42.091603053435115,150,4
471,0.71533203125,-0.345947265625,-0.313720703125,10.320610687022901,14.763358778625955,39.81679389312977,150,4
472,0.728759765625,-0.43017578125,-0.42138671875,21.374045801526716,8.916030534351146,44.10687022900763,150,4
473,0.788330078125,-0.379150390625,-0.4013671875,22.748091603053435,10.687022900763358,39.37404580152672,150,4
474,0.80517578125,-0.3330078125,-0.427734375,21.786259541984734,6.580152671755725,32.778625954198475,150,4
475,0.7841796875,-0.401123046875,-0.420166015625,23.64885496183206,-0.7022900763358778,35.038167938931295,150,4
476,0.82861328125,-0.4443359375,-0.355712890625,33.38931297709924,1.3282442748091603,38.67175572519084,150,4
477,0.91259765625,-0.3291015625,-0.345703125,30.0,-3.0381679389312977,34.6412213740458,150,4
478,0.94091796875,-0.30029296875,-0.32275390625,23.480916030534353,5.633587786259542,23.19083969465649,150,4
479,0.872802734375,-0.3662109375,-0.3330078125,11.49618320610687,13.389312977099237,25.14503816793893,150,4
480,0.872314453125,-0.38330078125,-0.362060546875,16.641221374045802,11.251908396946565,26.50381679389313,150,4
481,0.775146484375,-0.367919921875,-0.382080078125,20.229007633587788,13.465648854961833,26.03053435114504,150,4
482,0.686767578125,-0.3369140625,-0.3876953125,14.305343511450381,21.0381679389313,22.85496183206107,150,4
483,0.62939453125,-0.3359375,-0.556884765625,7.374045801526718,15.893129770992367,22.748091603053435,150,4
484,0.624755859375,-0.367431640625,-0.60205078125,11.938931297709924,1.816793893129771,23.480916030534353,150,4
485,0.65966796875,-0.3291015625,-0.548583984375,22.396946564885496,-3.2213740458015265,25.83206106870229,150,4
486,0.680419921875,-0.29443359375,-0.5029296875,16.870229007633586,3.3587786259541983,18.290076335877863,150,4
487,0.70166015625,-0.2939453125,-0.4931640625,9.16030534351145,10.290076335877863,15.603053435114504,150,4
488,0.69091796875,-0.337646484375,-0.5478515625,7.465648854961832,9.572519083969466,15.770992366412214,150,4
489,0.719970703125,-0.31787109375,-0.566650390625,13.954198473282442,8.763358778625955,14.412213740458014,150,4
490,0.808349609375,-0.271728515625,-0.5830078125,9.618320610687023,9.511450381679388,10.229007633587786,150,4
491,0.73046875,-0.256103515625,-0.5771484375,5.984732824427481,9.007633587786259,5.022900763358779,150,4
492,0.7109375,-0.245849609375,-0.732666015625,7.603053435114504,-3.801526717557252,2.549618320610687,150,4
493,0.677734375,-0.28173828125,-0.708740234375,7.190839694656488,-20.870229007633586,1.1145038167938932,150,4
494,0.62841796875,-0.3115234375,-0.608642578125,1.3435114503816794,-17.938931297709924,-0.7175572519083969,150,4
495,0.678466796875,-0.365478515625,-0.58837890625,-5.435114503816794,-3.984732824427481,-1.618320610687023,150,4
496,0.665771484375,-0.336669921875,-0.64697265625,-15.755725190839694,1.9083969465648856,-6.916030534351145,150,4
497,0.667724609375,-0.370849609375,-0.736328125,-21.51145038167939,-4.290076335877862,-6.2748091603053435,150,4
498,0.67626953125,-0.409423828125,-0.73974609375,-10.580152671755725,-25.770992366412212,-5.00763358778626,150,4
499,0.654052734375,-0.462646484375,-0.64794921875,-4.732824427480916,-33.37404580152672,-1.6030534351145038,150,4
500,0.6962890625,-0.521484375,-0.54150390625,-2.5343511450381677,-29.984732824427482,1.2213740458015268,150,4
501,0.72607421875,-0.558349609375,-0.4833984375,-5.603053435114504,-26.900763358778626,3.5267175572519083,150,4
502,0.7822265625,-0.58154296875,-0.4501953125,-5.541984732824427,-19.267175572519083,6.8396946564885495,150,4
503,0.809814453125,-0.622802734375,-0.434326171875,-4.687022900763359,-6.488549618320611,10.900763358778626,150,4
504,0.82958984375,-0.611572265625,-0.44189453125,-4.33587786259542,3.1603053435114505,9.282442748091603,150,4
505,0.824951171875,-0.59033203125,-0.490234375,-5.9541984732824424,9.557251908396946,5.587786259541985,150,4
506,0.793212890625,-0.597900390625,-0.549072265625,-1.1908396946564885,15.053435114503817,5.633587786259542,150,4
507,0.77880859375,-0.580810546875,-0.597900390625,-2.4580152671755724,22.748091603053435,6.198473282442748,150,4
508,0.777587890625,-0.54443359375,-0.65576171875,-8.778625954198473,26.83969465648855,3.068702290076336,150,4
509,0.742919921875,-0.507568359375,-0.72705078125,-16.16793893129771,21.52671755725191,0.1984732824427481,150,4
510,0.72509765625,-0.561279296875,-0.80859375,-14.183206106870228,5.297709923664122,-3.145038167938931,150,4
511,0.689208984375,-0.539794921875,-0.74072265625,-7.511450381679389,-15.908396946564885,-3.5419847328244276,150,4
512,0.67041015625,-0.61376953125,-0.53564453125,14.16793893129771,-29.862595419847327,5.786259541984733,150,4
513,0.68798828125,-0.5634765625,-0.40234375,12.274809160305344,-23.282442748091604,1.3129770992366412,150,4
514,0.692626953125,-0.550048828125,-0.370361328125,0.4732824427480916,-4.717557251908397,-2.6717557251908395,150,4
515,0.6923828125,-0.603515625,-0.399658203125,-2.0916030534351147,1.6793893129770991,-2.519083969465649,150,4
516,0.71337890625,-0.5869140625,-0.4345703125,2.8702290076335877,6.122137404580153,-5.572519083969466,150,4
517,0.732177734375,-0.568359375,-0.44970703125,5.7251908396946565,6.1679389312977095,-8.381679389312977,150,4
518,0.773681640625,-0.59228515625,-0.448486328125,8.259541984732824,3.2213740458015265,-10.458015267175572,150,4
519,0.7783203125,-0.591552734375,-0.477783203125,14.916030534351146,1.5267175572519085,-14.290076335877863,150,4
520,0.75439453125,-0.598388671875,-0.4775390625,9.801526717557252,0.07633587786259542,-16.748091603053435,150,4
521,0.718994140625,-0.6357421875,-0.48095703125,8.564885496183207,-1.2213740458015268,-12.50381679389313,150,4
522,0.707763671875,-0.62939453125,-0.479248046875,15.908396946564885,0.9618320610687023,-13.740458015267176,150,4
523,0.658935546875,-0.587158203125,-0.510986328125,12.992366412213741,-4.5038167938931295,-15.17557251908397,150,4
524,0.619873046875,-0.6201171875,-0.440185546875,15.969465648854962,-10.687022900763358,-10.778625954198473,150,4
525,0.598388671875,-0.56298828125,-0.460693359375,23.480916030534353,-19.16030534351145,-5.862595419847328,150,4
526,0.590087890625,-0.583984375,-0.382080078125,36.62595419847328,-13.877862595419847,-4.152671755725191,150,4
527,0.5693359375,-0.541748046875,-0.364013671875,25.419847328244273,-11.435114503816793,-5.694656488549619,150,4
528,0.57763671875,-0.52978515625,-0.335205078125,27.221374045801525,6.122137404580153,-7.3893129770992365,150,4
529,0.58154296875,-0.456298828125,-0.32080078125,20.213740458015266,12.01526717557252,-16.625954198473284,150,4
530,0.521240234375,-0.437744140625,-0.468994140625,12.229007633587786,11.664122137404581,-18.595419847328245,150,4
531,0.483642578125,-0.537841796875,-0.5048828125,25.83206106870229,-2.2290076335877864,-14.061068702290076,150,4
532,0.482666015625,-0.5439453125,-0.49169921875,34.458015267175576,-10.366412213740459,-11.83206106870229,150,4
533,0.466796875,-0.536865234375,-0.419921875,41.00763358778626,-10.213740458015268,-12.488549618320612,150,4
534,0.457275390625,-0.570068359375,-0.38623046875,38.900763358778626,-5.206106870229007,-10.412213740458014,150,4
535,0.503173828125,-0.55859375,-0.39208984375,39.49618320610687,-6.641221374045801,-10.335877862595419,150,4
536,0.509033203125,-0.5556640625,-0.401611328125,43.80152671755725,-6.885496183206107,-4.809160305343512,150,4
537,0.530517578125,-0.519775390625,-0.39306640625,40.2442748091603,-0.8091603053435115,-6.99236641221374,150,4
538,0.546630859375,-0.464599609375,-0.417236328125,32.62595419847328,-2.366412213740458,-14.427480916030534,150,4
539,0.536865234375,-0.495849609375,-0.416748046875,34.85496183206107,-4.259541984732825,-14.763358778625955,150,4
540,0.537353515625,-0.50537109375,-0.428466796875,44.54961832061068,-9.98473282442748,-13.755725190839694,150,4
541,0.55810546875,-0.451416015625,-0.41064453125,48.656488549618324,-10.396946564885496,-15.435114503816793,150,4
542,0.49365234375,-0.44091796875,-0.419921875,48.48854961832061,-3.786259541984733,-16.15267175572519,150,4
543,0.559326171875,-0.449951171875,-0.4765625,40.25954198473283,-3.2061068702290076,-17.66412213740458,150,4
544,0.52197265625,-0.48486328125,-0.482177734375,45.48091603053435,-7.404580152671755,-12.977099236641221,150,4
545,0.5517578125,-0.485107421875,-0.441162109375,50.274809160305345,-5.877862595419847,-8.045801526717558,150,4
546,0.56201171875,-0.434326171875,-0.4951171875,47.847328244274806,3.0229007633587788,-18.748091603053435,150,4
547,0.572509765625,-0.427978515625,-0.48486328125,41.81679389312977,5.312977099236641,-23.893129770992367,150,4
548,0.57177734375,-0.467041015625,-0.48193359375,43.19083969465649,4.656488549618321,-23.221374045801525,150,4
549,0.591064453125,-0.48193359375,-0.46044921875,48.67175572519084,5.3893129770992365,-25.480916030534353,150,4
550,0.585205078125,-0.4892578125,-0.456787109375,47.29770992366412,4.183206106870229,-26.366412213740457,150,4
551,0.579345703125,-0.5048828125,-0.466796875,56.48854961832061,2.7480916030534353,-25.389312977099237,150,4
552,0.58251953125,-0.51025390625,-0.46044921875,57.61832061068702,3.114503816793893,-25.557251908396946,150,4
553,0.5791015625,-0.518310546875,-0.45654296875,58.25954198473283,5.526717557251908,-27.114503816793892,150,4
554,0.58056640625,-0.555419921875,-0.443115234375,57.63358778625954,6.396946564885496,-26.519083969465647,150,4
555,0.59619140625,-0.5966796875,-0.462158203125,61.89312977099237,8.748091603053435,-24.900763358778626,150,4
556,0.568359375,-0.606201171875,-0.51953125,63.31297709923664,7.8320610687022905,-22.595419847328245,150,4
557,0.554443359375,-0.634521484375,-0.528076171875,66.13740458015268,5.923664122137405,-18.106870229007633,150,4
558,0.563720703125,-0.65185546875,-0.54150390625,66.54961832061069,4.6106870229007635,-15.16030534351145,150,4
559,0.558349609375,-0.637451171875,-0.541015625,70.09160305343511,3.236641221374046,-15.267175572519085,150,4
560,0.561279296875,-0.65771484375,-0.536376953125,71.96946564885496,1.1755725190839694,-15.908396946564885,150,4
561,0.551025390625,-0.6669921875,-0.538818359375,73.58778625954199,-1.6793893129770991,-16.427480916030536,150,4
562,0.551025390625,-0.669677734375,-0.5625,78.10687022900764,-4.213740458015267,-15.694656488549619,150,4
563,0.565673828125,-0.64599609375,-0.562255859375,83.96946564885496,-14.351145038167939,-16.35114503816794,150,4
564,0.5859375,-0.60009765625,-0.552490234375,84.0,-19.17557251908397,-17.862595419847327,150,4
565,0.613037109375,-0.573974609375,-0.52392578125,84.33587786259542,-21.419847328244273,-18.916030534351144,150,4
566,0.63671875,-0.5439453125,-0.502685546875,82.42748091603053,-22.244274809160306,-20.748091603053435,150,4
567,0.646728515625,-0.5322265625,-0.48876953125,80.12213740458016,-24.213740458015266,-20.931297709923665,150,4
568,0.655517578125,-0.52978515625,-0.462890625,81.92366412213741,-28.106870229007633,-20.16793893129771,150,4
569,0.669189453125,-0.53662109375,-0.40234375,83.66412213740458,-35.14503816793893,-18.977099236641223,150,4
570,0.6796875,-0.529541015625,-0.347900390625,84.21374045801527,-24.015267175572518,-18.595419847328245,150,4
571,0.6845703125,-0.5185546875,-0.35009765625,74.59541984732824,-17.083969465648856,-20.03053435114504,150,4
572,0.6796875,-0.521240234375,-0.3642578125,69.06870229007633,-16.198473282442748,-22.076335877862597,150,4
573,0.642333984375,-0.501708984375,-0.371337890625,67.26717557251908,-16.748091603053435,-22.549618320610687,150,4
574,0.61376953125,-0.662109375,-0.394287109375,61.02290076335878,-12.67175572519084,-18.641221374045802,150,4
575,0.60107421875,-0.698974609375,-0.45947265625,56.534351145038165,-16.900763358778626,-14.427480916030534,150,4
576,0.59716796875,-0.7568359375,-0.47119140625,59.17557251908397,-26.244274809160306,-5.282442748091603,150,4
577,0.6298828125,-0.782958984375,-0.43212890625,64.77862595419847,-30.290076335877863,1.3893129770992367,150,4
578,0.6708984375,-0.807861328125,-0.375,63.25190839694657,-29.49618320610687,3.1908396946564888,150,4
579,0.697998046875,-0.72412109375,-0.333740234375,61.64885496183206,-24.65648854961832,5.7251908396946565,150,4
580,0.743896484375,-0.673583984375,-0.32861328125,61.267175572519086,-21.46564885496183,5.267175572519084,150,4
581,0.776123046875,-0.615966796875,-0.3291015625,58.2442748091603,-19.740458015267176,4.061068702290076,150,4
582,0.79736328125,-0.570068359375,-0.335693359375,56.19847328244275,-19.251908396946565,2.16793893129771,150,4
583,0.79443359375,-0.55126953125,-0.318115234375,53.93893129770992,-21.31297709923664,2.6564885496183206,150,4
584,0.810791015625,-0.530517578125,-0.28076171875,56.3206106870229,-20.12213740458015,3.5114503816793894,150,4
585,0.843505859375,-0.46484375,-0.2294921875,51.770992366412216,-9.83206106870229,-0.732824427480916,150,4
586,0.826904296875,-0.4306640625,-0.225830078125,39.20610687022901,2.6259541984732824,-5.099236641221374,150,4
587,0.787353515625,-0.454833984375,-0.272216796875,33.16030534351145,9.84732824427481,-5.236641221374046,150,4
588,0.74853515625,-0.45654296875,-0.308349609375,29.64885496183206,8.83969465648855,-4.687022900763359,150,4
589,0.7158203125,-0.45361328125,-0.3330078125,31.923664122137403,7.038167938931298,-5.0534351145038165,150,4
590,0.6748046875,-0.464111328125,-0.340576171875,29.557251908396946,3.1603053435114505,-2.564885496183206,150,4
591,0.66162109375,-0.4619140625,-0.329833984375,34.656488549618324,5.679389312977099,-1.9083969465648856,150,4
592,0.649658203125,-0.499755859375,-0.337158203125,24.50381679389313,5.877862595419847,-1.83206106870229,150,4
593,0.660888671875,-0.44091796875,-0.324951171875,23.480916030534353,5.374045801526718,-0.5038167938931297,150,4
594,0.664306640625,-0.499267578125,-0.3232421875,21.83206106870229,4.900763358778626,-1.9541984732824427,150,4
595,0.644775390625,-0.4794921875,-0.30322265625,15.694656488549619,3.801526717557252,3.5267175572519083,150,4
596,0.686279296875,-0.541748046875,-0.242431640625,28.564885496183205,1.6030534351145038,11.572519083969466,150,4
597,0.633056640625,-0.515380859375,-0.173828125,30.717557251908396,4.5038167938931295,11.786259541984732,150,4
598,0.629638671875,-0.54833984375,-0.183837890625,32.70229007633588,12.229007633587786,11.893129770992367,150,4
599,0.621337890625,-0.62353515625,-0.125732421875,28.549618320610687,25.61832061068702,19.083969465648856,150,4
600,0.6123046875,-0.53955078125,-0.154052734375,24.35114503816794,32.33587786259542,17.328244274809162,150,4
601,0.620361328125,-0.515869140625,-0.1923828125,21.984732824427482,36.67175572519084,14.564885496183207,150,4
602,0.5927734375,-0.548828125,-0.24462890625,18.977099236641223,33.32824427480916,12.625954198473282,150,4
603,0.554931640625,-0.578369140625,-0.2841796875,23.068702290076335,28.106870229007633,14.061068702290076,150,4
604,0.541748046875,-0.564208984375,-0.335693359375,20.99236641221374,22.946564885496183,14.106870229007633,150,4
605,0.556396484375,-0.52978515625,-0.32080078125,19.908396946564885,9.801526717557252,12.290076335877863,150,4
606,0.553466796875,-0.546875,-0.28759765625,19.328244274809162,3.3282442748091605,13.603053435114504,150,4
607,0.557373046875,-0.572998046875,-0.21044921875,18.763358778625953,6.625954198473282,15.648854961832061,150,4
608,0.557373046875,-0.547607421875,-0.173095703125,13.404580152671755,13.49618320610687,15.068702290076336,150,4
609,0.5634765625,-0.539306640625,-0.1259765625,6.122137404580153,21.603053435114504,14.15267175572519,150,4
610,0.58544921875,-0.50439453125,-0.194580078125,-1.7099236641221374,22.50381679389313,10.931297709923664,150,4
611,0.572998046875,-0.511474609375,-0.297607421875,-2.7480916030534353,19.17557251908397,9.83206106870229,150,4
612,0.553466796875,-0.518798828125,-0.313232421875,-0.9923664122137404,4.870229007633588,9.908396946564885,150,4
613,0.574951171875,-0.507080078125,-0.296142578125,1.4198473282442747,-0.6259541984732825,9.877862595419847,150,4
614,0.591064453125,-0.4814453125,-0.277099609375,-1.2671755725190839,-3.3740458015267176,6.412213740458015,150,4
615,0.595703125,-0.497802734375,-0.26513671875,-3.954198473282443,-2.8396946564885495,7.145038167938932,150,4
616,0.615478515625,-0.504638671875,-0.2568359375,-4.183206106870229,-1.816793893129771,7.251908396946565,150,4
617,0.65234375,-0.497802734375,-0.244873046875,-7.603053435114504,2.7480916030534353,5.312977099236641,150,4
618,0.65185546875,-0.502685546875,-0.25634765625,-12.763358778625955,4.977099236641221,3.984732824427481,150,4
619,0.658203125,-0.53271484375,-0.282470703125,-11.358778625954198,5.404580152671755,5.755725190839694,150,4
620,0.6513671875,-0.528076171875,-0.310546875,-10.732824427480915,2.3053435114503817,6.2748091603053435,150,4
621,0.65966796875,-0.509521484375,-0.289794921875,-4.1679389312977095,-3.450381679389313,10.442748091603054,150,4
622,0.6796875,-0.597900390625,-0.251953125,1.7404580152671756,2.045801526717557,15.267175572519085,150,4
623,0.724609375,-0.515625,-0.26611328125,-3.2061068702290076,10.412213740458014,11.129770992366412,150,4
624,0.739013671875,-0.48291015625,-0.336181640625,-12.51908396946565,11.83206106870229,6.290076335877862,150,4
625,0.744140625,-0.488525390625,-0.380859375,-12.061068702290076,0.9465648854961832,4.931297709923665,150,4
626,0.710693359375,-0.523681640625,-0.343505859375,-4.259541984732825,-9.389312977099237,6.5038167938931295,150,4
627,0.683837890625,-0.5400390625,-0.270751953125,-1.9694656488549618,-8.625954198473282,6.3816793893129775,150,4
628,0.658447265625,-0.5341796875,-0.24560546875,-6.6106870229007635,-0.9007633587786259,5.435114503816794,150,4
629,0.646240234375,-0.53564453125,-0.260498046875,-12.641221374045802,6.091603053435114,5.175572519083969,150,4
630,0.638671875,-0.512451171875,-0.301513671875,-17.480916030534353,7.282442748091603,3.9236641221374047,150,4
631,0.63818359375,-0.508056640625,-0.349609375,-17.893129770992367,1.099236641221374,2.7938931297709924,150,4
632,0.62451171875,-0.519287109375,-0.365234375,-14.549618320610687,-4.885496183206107,4.702290076335878,150,4
633,0.638671875,-0.514404296875,-0.334716796875,-12.183206106870228,-7.786259541984733,7.6183206106870225,150,4
634,0.5654296875,-0.5068359375,-0.328125,-21.221374045801525,-3.3740458015267176,1.3740458015267176,150,4
635,0.5703125,-0.53857421875,-0.32080078125,-21.419847328244273,-3.4656488549618323,2.687022900763359,150,4
636,0.630126953125,-0.560791015625,-0.30419921875,-19.755725190839694,-4.106870229007634,4.106870229007634,150,4
637,0.641845703125,-0.542236328125,-0.30224609375,-18.946564885496183,-5.633587786259542,2.1374045801526718,150,4
638,0.635498046875,-0.56005859375,-0.299072265625,-18.702290076335878,-5.480916030534351,1.5267175572519085,150,4
639,0.658935546875,-0.56494140625,-0.294189453125,-16.748091603053435,-4.99236641221374,2.030534351145038,150,4
640,0.672119140625,-0.552001953125,-0.316650390625,-16.885496183206108,-3.6946564885496183,2.2900763358778624,150,4
641,0.710205078125,-0.515869140625,-0.330322265625,-19.49618320610687,0.5190839694656488,3.7557251908396947,150,4
642,0.7109375,-0.50927734375,-0.363525390625,-26.595419847328245,2.50381679389313,-3.7404580152671754,150,4
643,0.711181640625,-0.525634765625,-0.39208984375,-27.51145038167939,0.5190839694656488,-4.33587786259542,150,4
644,0.6923828125,-0.56201171875,-0.40380859375,-24.65648854961832,-3.0839694656488548,-1.7557251908396947,150,4
645,0.69091796875,-0.57373046875,-0.385498046875,-20.870229007633586,-2.5343511450381677,-0.6870229007633588,150,4
646,0.6923828125,-0.5703125,-0.36669921875,-22.885496183206108,3.633587786259542,-0.42748091603053434,150,4
647,0.690673828125,-0.547119140625,-0.38232421875,-24.671755725190838,5.938931297709924,-1.3893129770992367,150,4
648,0.681396484375,-0.55419921875,-0.402587890625,-24.412213740458014,6.961832061068702,0.1984732824427481,150,4
649,0.676025390625,-0.5341796875,-0.4150390625,-23.923664122137403,8.122137404580153,0.33587786259541985,150,4
650,0.664794921875,-0.51171875,-0.41064453125,-24.595419847328245,5.465648854961832,-0.9923664122137404,150,4
651,0.6591796875,-0.51806640625,-0.394287109375,-20.198473282442748,3.3587786259541983,-0.061068702290076333,150,4
652,0.66259765625,-0.51220703125,-0.369873046875,-17.633587786259543,6.442748091603053,-0.42748091603053434,150,4
653,0.655517578125,-0.485595703125,-0.367431640625,-19.328244274809162,9.877862595419847,-3.6030534351145036,150,4
654,0.655029296875,-0.491943359375,-0.37939453125,-21.114503816793892,7.8320610687022905,-4.0,150,4
655,0.638916015625,-0.517822265625,-0.385498046875,-18.427480916030536,12.885496183206106,-2.5801526717557253,150,4
656,0.621826171875,-0.53466796875,-0.397216796875,-16.442748091603054,11.786259541984732,-0.8702290076335878,150,4
657,0.610595703125,-0.546875,-0.402587890625,-16.045801526717558,21.587786259541986,0.42748091603053434,150,4
658,0.60693359375,-0.52197265625,-0.45556640625,-17.206106870229007,23.923664122137403,-0.015267175572519083,150,4
659,0.61083984375,-0.530517578125,-0.51708984375,-15.938931297709924,20.244274809160306,1.2366412213740459,150,4
660,0.5625,-0.54638671875,-0.544677734375,-9.877862595419847,12.793893129770993,3.435114503816794,150,4
661,0.64013671875,-0.546142578125,-0.551025390625,-7.694656488549619,10.106870229007633,5.083969465648855,150,4
662,0.673583984375,-0.514892578125,-0.55078125,-4.244274809160306,10.106870229007633,2.687022900763359,150,4
663,0.672119140625,-0.505859375,-0.56396484375,-7.175572519083969,9.083969465648854,0.5190839694656488,150,4
664,0.672119140625,-0.522705078125,-0.57177734375,-5.7251908396946565,6.488549618320611,0.9007633587786259,150,4
665,0.663818359375,-0.529052734375,-0.581298828125,-3.3282442748091605,4.977099236641221,1.3893129770992367,150,4
666,0.662109375,-0.514404296875,-0.56591796875,-3.0229007633587788,4.534351145038168,-0.061068702290076333,150,4
667,0.652099609375,-0.510986328125,-0.566162109375,-4.030534351145038,3.236641221374046,-1.4198473282442747,150,4
668,0.628173828125,-0.509765625,-0.572265625,-3.2977099236641223,-0.6106870229007634,-1.618320610687023,150,4
669,0.611328125,-0.521484375,-0.569580078125,0.366412213740458,-0.3511450381679389,-0.7786259541984732,150,4
670,0.625244140625,-0.512451171875,-0.53955078125,3.3282442748091605,-7.557251908396947,-0.7175572519083969,150,4
671,0.65966796875,-0.486572265625,-0.522216796875,6.213740458015267,-9.633587786259541,-1.8778625954198473,150,4
672,0.66748046875,-0.47119140625,-0.4814453125,8.091603053435115,-10.458015267175572,-4.5038167938931295,150,4
673,0.649658203125,-0.486083984375,-0.4375,6.580152671755725,-5.557251908396947,-4.229007633587786,150,4
674,0.63720703125,-0.490478515625,-0.43359375,5.816793893129771,2.6717557251908395,-3.8473282442748094,150,4
675,0.622314453125,-0.470703125,-0.43603515625,2.763358778625954,4.1679389312977095,-5.358778625954199,150,4
676,0.6142578125,-0.464111328125,-0.469970703125,0.7022900763358778,9.511450381679388,-6.076335877862595,150,4
677,0.6015625,-0.4775390625,-0.503173828125,5.099236641221374,4.244274809160306,-4.458015267175573,150,4
678,0.59814453125,-0.47119140625,-0.490966796875,11.465648854961833,-2.50381679389313,-2.732824427480916,150,4
679,0.607421875,-0.4755859375,-0.442138671875,16.595419847328245,-1.8473282442748091,-1.3893129770992367,150,4
680,0.6298828125,-0.44482421875,-0.41357421875,19.16030534351145,6.030534351145038,-3.1755725190839694,150,4
681,0.6318359375,-0.42236328125,-0.4072265625,8.427480916030534,10.213740458015268,-8.305343511450381,150,4
682,0.646240234375,-0.4580078125,-0.414794921875,11.129770992366412,7.8320610687022905,-8.80916030534351,150,4
683,0.658935546875,-0.449462890625,-0.4384765625,17.297709923664122,16.16793893129771,-7.908396946564886,150,4
684,0.62646484375,-0.40234375,-0.49658203125,10.854961832061068,15.19083969465649,-17.419847328244273,150,4
685,0.61376953125,-0.439208984375,-0.531982421875,9.145038167938932,13.053435114503817,-16.061068702290076,150,4
686,0.612548828125,-0.46484375,-0.52685546875,7.893129770992366,6.931297709923665,-16.641221374045802,150,4
687,0.58056640625,-0.5068359375,-0.498291015625,14.244274809160306,2.717557251908397,-13.358778625954198,150,4
688,0.58935546875,-0.540283203125,-0.46142578125,15.84732824427481,5.66412213740458,-9.34351145038168,150,4
689,0.572265625,-0.53369140625,-0.444580078125,17.587786259541986,13.526717557251908,-7.740458015267175,150,4
690,0.592041015625,-0.52294921875,-0.496337890625,16.213740458015266,15.129770992366412,-7.129770992366412,150,4
691,0.60595703125,-0.503662109375,-0.567626953125,18.229007633587788,6.488549618320611,-7.938931297709924,150,4
692,0.598876953125,-0.52685546875,-0.567626953125,22.83969465648855,-1.7404580152671756,-5.358778625954199,150,4
693,0.6376953125,-0.53466796875,-0.525146484375,29.19083969465649,-10.229007633587786,-4.809160305343512,150,4
694,0.636962890625,-0.539306640625,-0.474365234375,33.63358778625954,-9.007633587786259,-4.137404580152672,150,4
695,0.65966796875,-0.53125,-0.438232421875,30.30534351145038,3.49618320610687,-4.5038167938931295,150,4
696,0.658935546875,-0.521240234375,-0.45654296875,20.977099236641223,12.274809160305344,-5.801526717557252,150,4
697,0.652099609375,-0.5283203125,-0.503662109375,19.770992366412212,13.34351145038168,-4.030534351145038,150,4
698,0.653076171875,-0.5078125,-0.5341796875,21.129770992366414,12.412213740458014,-3.8473282442748094,150,4
699,0.698974609375,-0.4423828125,-0.5546875,21.206106870229007,1.9236641221374047,-11.282442748091603,150,4
700,0.69140625,-0.466796875,-0.520751953125,25.770992366412212,-3.2519083969465647,-12.16793893129771,150,4
701,0.654296875,-0.49560546875,-0.50537109375,26.549618320610687,-6.977099236641221,-13.32824427480916,150,4
702,0.62646484375,-0.49951171875,-0.45556640625,23.69465648854962,-13.374045801526718,-13.694656488549619,150,4
703,0.588623046875,-0.505615234375,-0.39990234375,28.641221374045802,-12.106870229007633,-10.01526717557252,150,4
704,0.576416015625,-0.57421875,-0.36279296875,31.282442748091604,-8.580152671755725,-7.1603053435114505,150,4
705,0.591064453125,-0.5576171875,-0.3330078125,37.12977099236641,-2.366412213740458,-6.015267175572519,150,4
706,0.61962890625,-0.543701171875,-0.3271484375,31.267175572519083,7.633587786259542,-7.00763358778626,150,4
707,0.634765625,-0.52099609375,-0.37255859375,24.3206106870229,5.801526717557252,-10.67175572519084,150,4
708,0.61083984375,-0.5908203125,-0.37255859375,30.427480916030536,-1.297709923664122,-6.106870229007634,150,4
709,0.62548828125,-0.619140625,-0.345458984375,41.23664122137404,-3.0381679389312977,-2.1068702290076335,150,4
710,0.6796875,-0.59326171875,-0.321533203125,38.83969465648855,-0.8396946564885496,-7.755725190839694,150,4
711,0.59619140625,-0.604248046875,-0.31884765625,34.274809160305345,6.137404580152672,-3.7099236641221376,150,4
712,0.597412109375,-0.58349609375,-0.350341796875,25.435114503816795,19.19083969465649,-3.83206106870229,150,4
713,0.583251953125,-0.52001953125,-0.393310546875,26.35114503816794,19.46564885496183,-7.206106870229007,150,4
714,0.5947265625,-0.485595703125,-0.53662109375,26.778625954198475,5.3893129770992365,-10.916030534351146,150,4
715,0.609619140625,-0.468505859375,-0.572509765625,23.633587786259543,-17.72519083969466,-15.236641221374045,150,4
716,0.586669921875,-0.530029296875,-0.50341796875,36.0,-27.72519083969466,-15.374045801526718,150,4
717,0.568359375,-0.5322265625,-0.421142578125,40.778625954198475,-36.19847328244275,-8.900763358778626,150,4
718,0.554443359375,-0.520263671875,-0.337646484375,37.23664122137404,-32.595419847328245,-7.00763358778626,150,4
719,0.587890625,-0.529052734375,-0.271484375,28.916030534351144,-27.0381679389313,-5.603053435114504,150,4
720,0.5654296875,-0.516845703125,-0.240478515625,21.61832061068702,-16.076335877862597,-5.603053435114504,150,4
721,0.66015625,-0.515625,-0.217041015625,16.885496183206108,-11.404580152671755,-6.290076335877862,150,4
722,0.683837890625,-0.50927734375,-0.214599609375,13.587786259541986,-2.519083969465649,-8.0,150,4
723,0.67724609375,-0.5537109375,-0.222412109375,13.83206106870229,-3.6030534351145036,-6.396946564885496,150,4
724,0.67919921875,-0.572509765625,-0.20947265625,14.870229007633588,5.343511450381679,-7.66412213740458,150,4
725,0.684814453125,-0.568603515625,-0.22021484375,13.709923664122137,13.49618320610687,-2.946564885496183,150,4
726,0.707275390625,-0.5517578125,-0.2177734375,9.954198473282442,18.03053435114504,-4.854961832061068,150,4
727,0.7353515625,-0.54052734375,-0.228515625,6.8396946564885495,25.083969465648856,-5.679389312977099,150,4
728,0.76171875,-0.51708984375,-0.300537109375,2.6717557251908395,23.52671755725191,-10.67175572519084,150,4
729,0.71826171875,-0.539794921875,-0.34765625,4.931297709923665,17.374045801526716,-10.442748091603054,150,4
730,0.7109375,-0.586669921875,-0.333740234375,11.145038167938932,13.49618320610687,-6.0458015267175576,150,4
731,0.696533203125,-0.573486328125,-0.356201171875,6.122137404580153,1.2213740458015268,-6.320610687022901,150,4
732,0.70849609375,-0.589111328125,-0.325439453125,17.740458015267176,-3.4656488549618323,-4.305343511450381,150,4
733,0.7060546875,-0.5791015625,-0.26611328125,12.229007633587786,-1.9541984732824427,-5.022900763358779,150,4
734,0.748779296875,-0.572265625,-0.2763671875,11.923664122137405,4.564885496183206,-5.343511450381679,150,4
735,0.689208984375,-0.5712890625,-0.287109375,4.763358778625954,7.633587786259542,-5.862595419847328,150,4
736,0.663818359375,-0.578369140625,-0.324951171875,0.15267175572519084,1.6641221374045803,-6.488549618320611,150,4
737,0.630615234375,-0.615966796875,-0.339599609375,6.625954198473282,-4.152671755725191,-2.122137404580153,150,4
738,0.60205078125,-0.643798828125,-0.308349609375,8.335877862595419,-15.312977099236642,4.3816793893129775,150,4
739,0.607421875,-0.61083984375,-0.233154296875,13.374045801526718,-7.893129770992366,5.267175572519084,150,4
740,0.6318359375,-0.570068359375,-0.225830078125,4.366412213740458,-3.877862595419847,3.786259541984733,150,4
741,0.664306640625,-0.55517578125,-0.250732421875,0.7786259541984732,2.5801526717557253,2.4732824427480917,150,4
742,0.67431640625,-0.53369140625,-0.26025390625,-1.5419847328244274,1.6030534351145038,0.5038167938931297,150,4
743,0.66943359375,-0.527099609375,-0.273681640625,-7.6183206106870225,-3.068702290076336,-1.786259541984733,150,4
744,0.6337890625,-0.54248046875,-0.31103515625,-4.076335877862595,-3.648854961832061,-1.633587786259542,150,4
745,0.607666015625,-0.5458984375,-0.23193359375,-5.893129770992366,1.6793893129770991,-1.8473282442748091,150,4
746,0.579833984375,-0.51904296875,-0.236328125,-12.290076335877863,3.801526717557252,-0.183206106870229,150,4
747,0.580078125,-0.521728515625,-0.2607421875,-16.015267175572518,1.6488549618320612,-5.297709923664122,150,4
748,0.59326171875,-0.519287109375,-0.28173828125,-12.534351145038167,-0.4732824427480916,-5.7251908396946565,150,4
749,0.58349609375,-0.549560546875,-0.2568359375,-9.114503816793894,-17.206106870229007,-3.0381679389312977,150,4
750,0.596435546875,-0.560546875,-0.21044921875,1.3893129770992367,-20.83969465648855,1.4045801526717556,150,4
751,0.624755859375,-0.513916015625,-0.169189453125,1.9236641221374047,-13.557251908396946,0.32061068702290074,150,4
752,0.625732421875,-0.45849609375,-0.18115234375,-10.0,-2.595419847328244,-4.854961832061068,150,4
753,0.640869140625,-0.468017578125,-0.260986328125,-20.549618320610687,-0.4122137404580153,-6.732824427480916,150,4
754,0.638916015625,-0.50048828125,-0.289794921875,-18.65648854961832,-0.21374045801526717,-4.931297709923665,150,4
755,0.637939453125,-0.495361328125,-0.30712890625,-17.87786259541985,-10.67175572519084,-5.099236641221374,150,4
756,0.625244140625,-0.445068359375,-0.275146484375,-15.694656488549619,-10.534351145038167,-3.1908396946564888,150,4
757,0.63427734375,-0.501220703125,-0.18896484375,-17.862595419847327,-3.9389312977099236,-2.732824427480916,150,4
758,0.666259765625,-0.4638671875,-0.2685546875,-24.549618320610687,0.22900763358778625,-8.82442748091603,150,4
759,0.61376953125,-0.490234375,-0.281494140625,-33.64885496183206,3.4656488549618323,-11.465648854961833,150,4
760,0.650146484375,-0.528076171875,-0.278564453125,-24.564885496183205,11.221374045801527,-3.6946564885496183,150,4
761,0.638427734375,-0.48779296875,-0.33544921875,-33.70992366412214,6.8396946564885495,-8.351145038167939,150,4
762,0.606201171875,-0.53515625,-0.37158203125,-31.450381679389313,-11.923664122137405,-7.374045801526718,150,4
763,0.56640625,-0.581298828125,-0.33056640625,-13.709923664122137,-15.770992366412214,5.068702290076335,150,4
764,0.64013671875,-0.491943359375,-0.29443359375,-23.358778625954198,-15.603053435114504,-1.5267175572519085,150,4
765,0.615966796875,-0.471435546875,-0.299072265625,-31.450381679389313,-7.419847328244275,-6.183206106870229,150,4
766,0.684814453125,-0.5419921875,-0.334228515625,-35.14503816793893,-0.8854961832061069,-1.8778625954198473,150,4
767,0.6181640625,-0.543212890625,-0.366943359375,-25.862595419847327,-4.900763358778626,3.6946564885496183,150,4
768,0.636474609375,-0.5263671875,-0.353271484375,-25.083969465648856,-4.9465648854961835,7.603053435114504,150,4
769,0.642333984375,-0.5146484375,-0.34423828125,-32.732824427480914,-3.5572519083969465,3.1603053435114505,150,4
770,0.6572265625,-0.552978515625,-0.331298828125,-34.93129770992366,-2.763358778625954,7.282442748091603,150,4
771,0.686767578125,-0.544677734375,-0.3349609375,-27.69465648854962,0.48854961832061067,11.633587786259541,150,4
772,0.6806640625,-0.509033203125,-0.34619140625,-34.13740458015267,0.22900763358778625,3.4656488549618323,150,4
773,0.641845703125,-0.56396484375,-0.3759765625,-32.50381679389313,-6.656488549618321,7.32824427480916,150,4
774,0.64599609375,-0.621337890625,-0.3525390625,-21.81679389312977,-10.961832061068701,14.412213740458014,150,4
775,0.6396484375,-0.612548828125,-0.296630859375,-17.083969465648856,-9.86259541984733,15.251908396946565,150,4
776,0.651123046875,-0.597900390625,-0.278564453125,-15.16030534351145,-2.564885496183206,14.82442748091603,150,4
777,0.7138671875,-0.565673828125,-0.26220703125,-15.16030534351145,11.083969465648854,12.412213740458014,150,4
778,0.72802734375,-0.5244140625,-0.30712890625,-19.770992366412212,15.282442748091603,5.297709923664122,150,4
779,0.677001953125,-0.572509765625,-0.36083984375,-25.34351145038168,21.954198473282442,6.549618320610687,150,4
780,0.691162109375,-0.618896484375,-0.361328125,-22.946564885496183,33.083969465648856,4.641221374045801,150,4
781,0.667724609375,-0.555908203125,-0.40380859375,-37.083969465648856,31.083969465648856,2.8244274809160306,150,4
782,0.678466796875,-0.612060546875,-0.432861328125,-16.427480916030536,28.778625954198475,11.557251908396946,150,4
783,0.6630859375,-0.551513671875,-0.446533203125,-21.282442748091604,28.763358778625953,9.770992366412214,150,4
784,0.653564453125,-0.5048828125,-0.49853515625,-24.65648854961832,23.572519083969464,8.763358778625955,150,4
785,0.63916015625,-0.54052734375,-0.52197265625,-18.03053435114504,13.694656488549619,13.526717557251908,150,4
786,0.64013671875,-0.5703125,-0.4716796875,-13.770992366412214,8.122137404580153,18.702290076335878,150,4
787,0.679931640625,-0.5224609375,-0.443115234375,-8.702290076335878,7.893129770992366,17.46564885496183,150,4
788,0.74755859375,-0.472412109375,-0.454833984375,-7.984732824427481,13.16030534351145,11.725190839694656,150,4
789,0.6708984375,-0.44970703125,-0.459716796875,-10.198473282442748,14.732824427480915,13.19083969465649,150,4
790,0.679443359375,-0.52685546875,-0.451904296875,-8.625954198473282,18.27480916030534,14.80916030534351,150,4
791,0.697509765625,-0.481201171875,-0.473388671875,-8.946564885496183,18.610687022900763,10.13740458015267,150,4
792,0.691162109375,-0.456787109375,-0.5068359375,-11.938931297709924,12.580152671755725,7.679389312977099,150,4
793,0.672607421875,-0.5078125,-0.505859375,-8.13740458015267,5.801526717557252,4.564885496183206,150,4
794,0.66064453125,-0.5400390625,-0.450439453125,-1.4961832061068703,6.854961832061068,6.290076335877862,150,4
795,0.6435546875,-0.5400390625,-0.39013671875,-3.1297709923664123,14.916030534351146,8.396946564885496,150,4
796,0.6015625,-0.538818359375,-0.40673828125,-0.12213740458015267,24.748091603053435,12.061068702290076,150,4
797,0.576904296875,-0.513671875,-0.517333984375,-5.6183206106870225,23.938931297709924,12.732824427480915,150,4
798,0.59130859375,-0.468505859375,-0.592529296875,-5.419847328244275,9.709923664122137,11.633587786259541,150,4
799,0.5859375,-0.43798828125,-0.556396484375,2.732824427480916,-1.1603053435114503,16.717557251908396,150,4
800,0.597900390625,-0.500732421875,-0.4619140625,7.908396946564886,-3.5877862595419847,17.328244274809162,150,4
801,0.62353515625,-0.46826171875,-0.386962890625,6.366412213740458,13.664122137404581,14.290076335877863,150,4
802,0.67236328125,-0.451904296875,-0.37158203125,0.42748091603053434,19.6793893129771,10.763358778625955,150,4
803,0.70458984375,-0.431640625,-0.403076171875,-2.0,32.47328244274809,5.893129770992366,150,4
804,0.700439453125,-0.42578125,-0.435791015625,-7.190839694656488,37.05343511450382,3.3740458015267176,150,4
805,0.693603515625,-0.375732421875,-0.522705078125,-7.00763358778626,31.81679389312977,2.564885496183206,150,4
806,0.6962890625,-0.44580078125,-0.545654296875,-7.435114503816794,20.198473282442748,3.053435114503817,150,4
807,0.704345703125,-0.447998046875,-0.543701171875,1.099236641221374,17.709923664122137,2.0916030534351147,150,4
808,0.6845703125,-0.4150390625,-0.513916015625,-2.2748091603053435,18.045801526717558,-2.16793893129771,150,4
809,0.699951171875,-0.432373046875,-0.488037109375,-5.32824427480916,24.3206106870229,-2.8702290076335877,150,4
810,0.707275390625,-0.455078125,-0.490966796875,-2.6106870229007635,31.206106870229007,-0.8244274809160306,150,4
811,0.688720703125,-0.42822265625,-0.511962890625,-0.07633587786259542,24.442748091603054,-1.1908396946564885,150,4
812,0.708740234375,-0.465087890625,-0.467529296875,9.801526717557252,37.969465648854964,4.427480916030534,150,4
813,0.77490234375,-0.385009765625,-0.39892578125,-0.12213740458015267,58.732824427480914,-3.9389312977099236,150,4
814,0.718017578125,-0.358642578125,-0.625732421875,-42.030534351145036,27.87786259541985,-19.389312977099237,150,4
815,0.659912109375,-0.560546875,-0.873291015625,11.770992366412214,-23.786259541984734,4.6106870229007635,150,4
816,0.65673828125,-0.56005859375,-0.566650390625,30.946564885496183,-42.74809160305343,15.297709923664122,150,4
817,0.680908203125,-0.360595703125,-0.412841796875,8.335877862595419,-36.88549618320611,-1.4809160305343512,150,4
818,0.713134765625,-0.412109375,-0.3310546875,25.099236641221374,-21.923664122137403,-4.3816793893129775,150,4
819,0.656494140625,-0.468994140625,-0.309814453125,11.923664122137405,1.8931297709923665,-4.656488549618321,150,4
820,0.60400390625,-0.475830078125,-0.373779296875,4.412213740458015,15.19083969465649,-5.068702290076335,150,4
821,0.572265625,-0.475341796875,-0.465087890625,1.618320610687023,14.80916030534351,-4.900763358778626,150,4
822,0.55859375,-0.47119140625,-0.560546875,5.770992366412214,2.3206106870229006,-2.030534351145038,150,4
823,0.54443359375,-0.4833984375,-0.585693359375,25.938931297709924,-18.85496183206107,4.885496183206107,150,4
824,0.569091796875,-0.46240234375,-0.492431640625,29.52671755725191,-12.977099236641221,5.633587786259542,150,4
825,0.56884765625,-0.433837890625,-0.465576171875,20.15267175572519,-4.473282442748092,1.984732824427481,150,4
826,0.5478515625,-0.457275390625,-0.46826171875,23.068702290076335,-1.9389312977099236,2.1526717557251906,150,4
827,0.527099609375,-0.51806640625,-0.481689453125,17.068702290076335,1.9236641221374047,4.244274809160306,150,4
828,0.531982421875,-0.56103515625,-0.49853515625,18.977099236641223,9.618320610687023,10.396946564885496,150,4
829,0.54931640625,-0.4560546875,-0.520263671875,7.343511450381679,8.320610687022901,9.969465648854962,150,4
830,0.578369140625,-0.45849609375,-0.54296875,7.648854961832061,15.618320610687023,8.732824427480915,150,4
831,0.6328125,-0.39599609375,-0.565185546875,-1.9389312977099236,7.633587786259542,3.7709923664122136,150,4
832,0.63623046875,-0.4091796875,-0.66455078125,2.687022900763359,-12.625954198473282,-2.366412213740458,150,4
833,0.65185546875,-0.4267578125,-0.603515625,15.404580152671755,-28.27480916030534,-3.1755725190839694,150,4
834,0.639892578125,-0.416015625,-0.50830078125,14.778625954198473,-27.282442748091604,-6.473282442748092,150,4
835,0.659912109375,-0.385498046875,-0.48193359375,8.198473282442748,-11.877862595419847,-11.511450381679388,150,4
836,0.638671875,-0.389892578125,-0.44091796875,-0.3053435114503817,-5.465648854961832,-16.778625954198475,150,4
837,0.60693359375,-0.4482421875,-0.552734375,-11.465648854961833,-9.297709923664122,-15.694656488549619,150,4
838,0.6005859375,-0.496826171875,-0.572265625,2.732824427480916,-20.48854961832061,-10.625954198473282,150,4
839,0.57421875,-0.509521484375,-0.537841796875,11.709923664122137,-34.595419847328245,-7.709923664122138,150,4
840,0.563232421875,-0.510498046875,-0.486572265625,11.786259541984732,-36.80916030534351,-7.6183206106870225,150,4
841,0.55615234375,-0.491943359375,-0.440185546875,19.6793893129771,-36.30534351145038,-1.7404580152671756,150,4
842,0.5849609375,-0.482177734375,-0.39208984375,20.229007633587788,-30.50381679389313,-2.6564885496183206,150,4
843,0.60498046875,-0.4716796875,-0.375732421875,16.48854961832061,-22.290076335877863,-5.923664122137405,150,4
844,0.582763671875,-0.486572265625,-0.429931640625,11.801526717557252,-18.65648854961832,-6.67175572519084,150,4
845,0.5595703125,-0.48291015625,-0.490234375,19.64885496183206,-18.946564885496183,-6.229007633587786,150,4
846,0.564697265625,-0.4677734375,-0.537109375,17.068702290076335,-24.53435114503817,-4.3816793893129775,150,4
847,0.581298828125,-0.4423828125,-0.552001953125,21.572519083969464,-29.709923664122137,-0.030534351145038167,150,4
848,0.543701171875,-0.468994140625,-0.54052734375,17.557251908396946,-42.213740458015266,-0.04580152671755725,150,4
849,0.552734375,-0.52197265625,-0.451416015625,24.83969465648855,-46.79389312977099,6.580152671755725,150,4
850,0.536376953125,-0.506103515625,-0.393310546875,34.6412213740458,-35.7557251908397,9.48091603053435,150,4
851,0.529296875,-0.46630859375,-0.3662109375,12.290076335877863,-26.442748091603054,7.694656488549619,150,4
852,0.508056640625,-0.4853515625,-0.431884765625,3.9236641221374047,-18.702290076335878,1.083969465648855,150,4
853,0.503173828125,-0.510986328125,-0.484130859375,10.320610687022901,-24.137404580152673,3.6030534351145036,150,4
854,0.497802734375,-0.505126953125,-0.494384765625,12.442748091603054,-41.31297709923664,6.213740458015267,150,4
855,0.5068359375,-0.50390625,-0.4912109375,23.954198473282442,-48.74809160305343,8.442748091603054,150,4
856,0.509521484375,-0.511962890625,-0.327880859375,28.47328244274809,-41.89312977099237,10.51908396946565,150,4
857,0.514404296875,-0.53271484375,-0.3125,24.35114503816794,-30.900763358778626,12.580152671755725,150,4
858,0.5107421875,-0.552001953125,-0.199951171875,22.33587786259542,-7.679389312977099,16.106870229007633,150,4
859,0.564697265625,-0.5380859375,-0.228759765625,14.335877862595419,20.80916030534351,15.389312977099237,150,4
860,0.64501953125,-0.4560546875,-0.4091796875,2.351145038167939,29.69465648854962,9.145038167938932,150,4
861,0.64111328125,-0.4111328125,-0.50146484375,0.3816793893129771,17.893129770992367,2.7022900763358777,150,4
862,0.563720703125,-0.443115234375,-0.56982421875,1.5572519083969465,-3.83206106870229,1.8625954198473282,150,4
863,0.564697265625,-0.465087890625,-0.61767578125,14.183206106870228,-23.6793893129771,3.2977099236641223,150,4
864,0.563720703125,-0.482421875,-0.548095703125,22.763358778625953,-42.99236641221374,3.9083969465648853,150,4
865,0.6328125,-0.524169921875,-0.33056640625,23.358778625954198,-27.862595419847327,4.977099236641221,150,4
866,0.61962890625,-0.531005859375,-0.269287109375,12.534351145038167,-10.213740458015268,4.091603053435114,150,4
867,0.598876953125,-0.53564453125,-0.29638671875,2.3206106870229006,4.6106870229007635,0.2900763358778626,150,4
868,0.56982421875,-0.572998046875,-0.356201171875,4.030534351145038,5.603053435114504,11.435114503816793,150,4
869,0.580322265625,-0.576171875,-0.3984375,9.801526717557252,4.0,11.84732824427481,150,4
870,0.593017578125,-0.505615234375,-0.4169921875,12.198473282442748,1.7557251908396947,16.47328244274809,150,4
871,0.59521484375,-0.569580078125,-0.42578125,11.98473282442748,-2.3969465648854964,19.00763358778626,150,4
872,0.596435546875,-0.594970703125,-0.426513671875,13.587786259541986,-3.6946564885496183,20.15267175572519,150,4
873,0.638671875,-0.573974609375,-0.439208984375,9.618320610687023,-4.549618320610687,17.31297709923664,150,4
874,0.639892578125,-0.532470703125,-0.440185546875,7.786259541984733,-9.83206106870229,15.404580152671755,150,4
875,0.638916015625,-0.548828125,-0.421630859375,2.122137404580153,-16.015267175572518,10.473282442748092,150,4
876,0.640625,-0.5810546875,-0.361328125,6.106870229007634,-16.35114503816794,12.732824427480915,150,4
877,0.643798828125,-0.570068359375,-0.324462890625,1.4961832061068703,-12.870229007633588,10.244274809160306,150,4
878,0.638916015625,-0.584716796875,-0.30126953125,-0.366412213740458,-6.8396946564885495,10.80916030534351,150,4
879,0.641357421875,-0.62158203125,-0.294189453125,3.83206106870229,-1.7251908396946565,14.213740458015268,150,4
880,0.63916015625,-0.5966796875,-0.33935546875,7.312977099236641,-0.7938931297709924,14.106870229007633,150,4
881,0.63134765625,-0.591796875,-0.364013671875,-2.2290076335877864,0.2595419847328244,14.641221374045802,150,4
882,0.68603515625,-0.577880859375,-0.42822265625,-6.9465648854961835,2.2290076335877864,12.534351145038167,150,4
883,0.597900390625,-0.561279296875,-0.490234375,-5.358778625954199,-14.83969465648855,12.213740458015268,150,4
884,0.591796875,-0.59716796875,-0.4453125,1.9083969465648856,-28.610687022900763,13.938931297709924,150,4
885,0.595703125,-0.6416015625,-0.352783203125,2.1374045801526718,-27.14503816793893,17.87786259541985,150,4
886,0.64794921875,-0.620361328125,-0.36962890625,2.900763358778626,-8.213740458015268,14.183206106870228,150,4
887,0.677734375,-0.5546875,-0.25048828125,-22.610687022900763,0.3053435114503817,4.809160305343512,150,4
888,0.6787109375,-0.66259765625,-0.367431640625,-22.900763358778626,-6.702290076335878,11.389312977099237,150,4
889,0.7041015625,-0.74560546875,-0.35302734375,-5.984732824427481,-12.961832061068701,16.427480916030536,150,4
890,0.697021484375,-0.663330078125,-0.279052734375,-5.145038167938932,-6.564885496183206,19.51145038167939,150,4
891,0.70849609375,-0.651611328125,-0.2392578125,-6.5038167938931295,10.13740458015267,20.244274809160306,150,4
892,0.72265625,-0.622314453125,-0.298583984375,-17.52671755725191,26.931297709923665,17.984732824427482,150,4
893,0.72021484375,-0.598388671875,-0.3984375,-23.49618320610687,27.52671755725191,14.458015267175572,150,4
894,0.71875,-0.60546875,-0.47900390625,-26.580152671755727,17.572519083969464,13.633587786259541,150,4
895,0.703857421875,-0.615478515625,-0.49951171875,-23.480916030534353,7.6183206106870225,13.557251908396946,150,4
896,0.67529296875,-0.6376953125,-0.43994140625,-15.893129770992367,-4.854961832061068,15.221374045801527,150,4
897,0.66650390625,-0.674560546875,-0.380859375,-10.992366412213741,-4.183206106870229,18.3206106870229,150,4
898,0.664306640625,-0.669677734375,-0.313720703125,-13.801526717557252,0.6870229007633588,18.916030534351144,150,4
899,0.672607421875,-0.654541015625,-0.302490234375,-15.98473282442748,13.786259541984732,17.709923664122137,150,4
900,0.68603515625,-0.652587890625,-0.339599609375,-20.12213740458015,17.541984732824428,17.633587786259543,150,4
901,0.682861328125,-0.648193359375,-0.351806640625,-18.610687022900763,15.877862595419847,17.6793893129771,150,4
902,0.688232421875,-0.658447265625,-0.3544921875,-13.19083969465649,16.12213740458015,19.709923664122137,150,4
903,0.692138671875,-0.635498046875,-0.360595703125,-10.274809160305344,16.595419847328245,17.954198473282442,150,4
904,0.677734375,-0.619140625,-0.36572265625,-8.870229007633588,16.045801526717558,18.12213740458015,150,4
905,0.69775390625,-0.59619140625,-0.36083984375,-6.580152671755725,16.83969465648855,17.099236641221374,150,4
906,0.681396484375,-0.576171875,-0.37890625,-6.396946564885496,15.206106870229007,14.0,150,4
907,0.67626953125,-0.561279296875,-0.433349609375,-4.580152671755725,14.610687022900763,12.412213740458014,150,4
908,0.66650390625,-0.55712890625,-0.364501953125,-1.3893129770992367,16.68702290076336,10.320610687022901,150,4
909,0.64013671875,-0.559326171875,-0.348876953125,-1.8778625954198473,20.198473282442748,7.4961832061068705,150,4
910,0.614990234375,-0.57666015625,-0.3427734375,0.6870229007633588,19.633587786259543,6.732824427480916,150,4
911,0.603759765625,-0.577392578125,-0.343505859375,2.9923664122137406,26.0,4.870229007633588,150,4
912,0.57763671875,-0.5791015625,-0.355712890625,3.7251908396946565,28.702290076335878,3.786259541984733,150,4
913,0.5703125,-0.5908203125,-0.3896484375,4.8396946564885495,30.519083969465647,4.900763358778626,150,4
914,0.55810546875,-0.583740234375,-0.42724609375,4.1679389312977095,29.236641221374047,5.709923664122138,150,4
915,0.566650390625,-0.58203125,-0.45166015625,13.86259541984733,34.13740458015267,5.8320610687022905,150,4
916,0.5107421875,-0.57275390625,-0.44140625,11.679389312977099,33.11450381679389,4.625954198473282,150,4
917,0.5009765625,-0.575927734375,-0.553466796875,6.900763358778626,31.00763358778626,5.893129770992366,150,4
918,0.594482421875,-0.62158203125,-0.559326171875,6.748091603053435,29.053435114503817,3.9236641221374047,150,4
919,0.599853515625,-0.540283203125,-0.578857421875,5.8320610687022905,24.229007633587788,-0.6717557251908397,150,4
920,0.582763671875,-0.575439453125,-0.590576171875,10.717557251908397,19.221374045801525,-1.6946564885496183,150,4
921,0.58984375,-0.59765625,-0.56494140625,17.389312977099237,10.977099236641221,-1.3282442748091603,150,4
922,0.58447265625,-0.57470703125,-0.5458984375,19.770992366412212,14.198473282442748,-5.4961832061068705,150,4
923,0.54931640625,-0.571044921875,-0.5625,14.50381679389313,14.641221374045802,-8.641221374045802,150,4
924,0.528564453125,-0.603515625,-0.600341796875,15.404580152671755,13.923664122137405,-4.885496183206107,150,4
925,0.53271484375,-0.59423828125,-0.636962890625,14.83969465648855,13.236641221374045,-1.984732824427481,150,4
926,0.527587890625,-0.567138671875,-0.66796875,11.099236641221374,12.01526717557252,-0.15267175572519084,150,4
927,0.51318359375,-0.577880859375,-0.678955078125,8.534351145038167,4.625954198473282,-5.679389312977099,150,4
928,0.513427734375,-0.60791015625,-0.67236328125,13.48091603053435,-1.5725190839694656,-1.3587786259541985,150,4
929,0.537841796875,-0.5966796875,-0.644775390625,19.435114503816795,-2.0610687022900764,0.4122137404580153,150,4
930,0.55029296875,-0.551025390625,-0.642333984375,16.65648854961832,-1.2671755725190839,-2.198473282442748,150,4
931,0.546875,-0.5302734375,-0.655517578125,13.541984732824428,-0.4122137404580153,-4.931297709923665,150,4
932,0.5517578125,-0.54296875,-0.6611328125,12.488549618320612,-6.702290076335878,-5.480916030534351,150,4
933,0.560302734375,-0.564208984375,-0.6552734375,13.893129770992367,-8.50381679389313,-3.053435114503817,150,4
934,0.572265625,-0.531005859375,-0.634033203125,15.129770992366412,-8.091603053435115,-3.4198473282442747,150,4
935,0.587646484375,-0.53466796875,-0.684814453125,6.427480916030534,-7.923664122137405,-4.67175572519084,150,4
936,0.572265625,-0.522705078125,-0.617431640625,8.564885496183207,-10.82442748091603,-5.4961832061068705,150,4
937,0.558349609375,-0.544189453125,-0.61962890625,10.16793893129771,-14.351145038167939,-4.0,150,4
938,0.5576171875,-0.5517578125,-0.601318359375,13.083969465648854,-15.068702290076336,-2.0763358778625953,150,4
939,0.561279296875,-0.535888671875,-0.586669921875,12.67175572519084,-15.389312977099237,-2.3053435114503817,150,4
940,0.54833984375,-0.519775390625,-0.5869140625,11.16030534351145,-14.13740458015267,-2.366412213740458,150,4
941,0.548828125,-0.537841796875,-0.57421875,9.541984732824428,-12.931297709923664,-0.3816793893129771,150,4
942,0.570068359375,-0.542724609375,-0.541259765625,8.488549618320612,-11.740458015267176,1.7099236641221374,150,4
943,0.58154296875,-0.53125,-0.510009765625,4.534351145038168,-7.969465648854962,1.6488549618320612,150,4
944,0.582275390625,-0.530517578125,-0.50439453125,0.10687022900763359,-4.0,0.9007633587786259,150,4
945,0.564453125,-0.546142578125,-0.5205078125,-0.3816793893129771,-0.9923664122137404,2.4885496183206106,150,4
946,0.56201171875,-0.552490234375,-0.514404296875,-0.8396946564885496,-4.442748091603053,4.259541984732825,150,4
947,0.501953125,-0.5517578125,-0.4970703125,2.595419847328244,-3.1908396946564888,6.183206106870229,150,4
948,0.563232421875,-0.555419921875,-0.4755859375,-2.0763358778625953,2.045801526717557,7.343511450381679,150,4
949,0.58056640625,-0.531494140625,-0.47900390625,-5.419847328244275,5.358778625954199,7.00763358778626,150,4
950,0.57958984375,-0.537841796875,-0.555908203125,-7.923664122137405,5.099236641221374,6.33587786259542,150,4
951,0.573486328125,-0.541259765625,-0.488037109375,-6.702290076335878,2.9160305343511452,6.687022900763359,150,4
952,0.578369140625,-0.565673828125,-0.486572265625,-5.312977099236641,-0.3511450381679389,8.305343511450381,150,4
953,0.56591796875,-0.57373046875,-0.47314453125,-1.8778625954198473,1.8015267175572518,9.755725190839694,150,4
954,0.5654296875,-0.558349609375,-0.46630859375,-4.290076335877862,4.137404580152672,8.549618320610687,150,4
955,0.5791015625,-0.552734375,-0.463623046875,-3.9236641221374047,3.618320610687023,7.770992366412214,150,4
956,0.58203125,-0.57470703125,-0.46337890625,-6.305343511450381,4.213740458015267,8.687022900763358,150,4
957,0.595947265625,-0.568603515625,-0.45556640625,-7.343511450381679,2.4427480916030535,6.778625954198473,150,4
958,0.597412109375,-0.57666015625,-0.45166015625,-5.862595419847328,2.0610687022900764,6.183206106870229,150,4
959,0.605224609375,-0.57958984375,-0.4482421875,-4.595419847328245,1.0076335877862594,5.404580152671755,150,4
960,0.57763671875,-0.605224609375,-0.453369140625,-3.7404580152671754,-1.0534351145038168,5.648854961832061,150,4
961,0.57080078125,-0.61376953125,-0.422607421875,-1.2061068702290076,-1.633587786259542,6.961832061068702,150,4
962,0.558349609375,-0.630615234375,-0.390380859375,-1.1297709923664123,0.48854961832061067,8.01526717557252,150,4
963,0.57470703125,-0.6220703125,-0.382568359375,-1.2061068702290076,4.732824427480916,7.236641221374046,150,4
964,0.584228515625,-0.59716796875,-0.3955078125,-1.8625954198473282,8.580152671755725,4.717557251908397,150,4
965,0.5869140625,-0.59912109375,-0.427978515625,-3.435114503816794,9.129770992366412,2.7022900763358777,150,4
966,0.57958984375,-0.605224609375,-0.44482421875,-2.931297709923664,5.709923664122138,2.6717557251908395,150,4
967,0.570556640625,-0.613037109375,-0.446533203125,0.5343511450381679,2.7938931297709924,2.9618320610687023,150,4
968,0.554443359375,-0.61376953125,-0.440673828125,1.3129770992366412,1.984732824427481,1.9083969465648856,150,4
969,0.538330078125,-0.5634765625,-0.4326171875,0.12213740458015267,2.6412213740458017,1.3435114503816794,150,4
970,0.5400390625,-0.62939453125,-0.382568359375,-0.6717557251908397,2.4885496183206106,2.1374045801526718,150,4
971,0.537109375,-0.629638671875,-0.4580078125,0.9618320610687023,1.984732824427481,3.236641221374046,150,4
972,0.5341796875,-0.62060546875,-0.4775390625,1.3435114503816794,-0.5038167938931297,2.50381679389313,150,4
973,0.530517578125,-0.6171875,-0.478759765625,2.564885496183206,-6.213740458015267,1.0229007633587786,150,4
974,0.53271484375,-0.652587890625,-0.46044921875,7.251908396946565,-9.83206106870229,0.22900763358778625,150,4
975,0.53564453125,-0.6494140625,-0.411865234375,11.038167938931299,-6.564885496183206,5.572519083969466,150,4
976,0.543212890625,-0.613037109375,-0.429931640625,5.709923664122138,-0.8244274809160306,3.0229007633587788,150,4
977,0.548095703125,-0.615966796875,-0.4541015625,0.4580152671755725,0.0,1.5725190839694656,150,4
978,0.55810546875,-0.629150390625,-0.48095703125,1.2366412213740459,-2.4885496183206106,2.687022900763359,150,4
979,0.561279296875,-0.614990234375,-0.471435546875,3.5877862595419847,-7.480916030534351,1.83206106870229,150,4
980,0.56787109375,-0.609619140625,-0.45947265625,5.786259541984733,-12.625954198473282,0.061068702290076333,150,4
981,0.574951171875,-0.6181640625,-0.4296875,6.885496183206107,-13.145038167938932,0.2595419847328244,150,4
982,0.5654296875,-0.624755859375,-0.421142578125,6.870229007633588,-12.076335877862595,-0.13740458015267176,150,4
983,0.5595703125,-0.617919921875,-0.413818359375,7.8320610687022905,-11.938931297709924,-1.297709923664122,150,4
984,0.57275390625,-0.56396484375,-0.399169921875,7.480916030534351,-9.908396946564885,-0.7633587786259542,150,4
985,0.570556640625,-0.611572265625,-0.391845703125,7.6183206106870225,-8.351145038167939,-1.3282442748091603,150,4
986,0.55078125,-0.6298828125,-0.3828125,7.740458015267175,-6.702290076335878,-0.2595419847328244,150,4
987,0.557373046875,-0.64990234375,-0.375732421875,8.702290076335878,-0.9312977099236641,2.4885496183206106,150,4
988,0.55859375,-0.625244140625,-0.384765625,5.1603053435114505,0.21374045801526717,1.3129770992366412,150,4
989,0.548583984375,-0.6220703125,-0.4189453125,0.8244274809160306,0.4732824427480916,-0.4580152671755725,150,4
990,0.53955078125,-0.658935546875,-0.42529296875,5.221374045801527,-5.00763358778626,2.595419847328244,150,4
991,0.528564453125,-0.6806640625,-0.388671875,10.793893129770993,-4.076335877862595,5.068702290076335,150,4
992,0.521728515625,-0.676513671875,-0.371337890625,12.534351145038167,-6.99236641221374,5.587786259541985,150,4
993,0.5283203125,-0.685791015625,-0.33544921875,12.687022900763358,-0.3969465648854962,7.175572519083969,150,4
994,0.55224609375,-0.677734375,-0.3564453125,9.740458015267176,6.824427480916031,6.916030534351145,150,4
995,0.56689453125,-0.654296875,-0.388671875,6.519083969465649,8.961832061068701,5.419847328244275,150,4
996,0.566650390625,-0.654541015625,-0.4189453125,7.541984732824427,6.0458015267175576,6.076335877862595,150,4
997,0.5625,-0.662841796875,-0.428466796875,10.244274809160306,3.312977099236641,7.297709923664122,150,4
998,0.551025390625,-0.6611328125,-0.419921875,9.83206106870229,1.6488549618320612,7.923664122137405,150,4
999,0.550537109375,-0.677978515625,-0.368408203125,14.030534351145038,2.2442748091603053,9.603053435114504,150,4
1000,0.56396484375,-0.673583984375,-0.3359375,13.419847328244275,9.603053435114504,10.106870229007633,150,4
1001,0.576904296875,-0.647216796875,-0.351806640625,11.587786259541986,15.83206106870229,7.038167938931298,150,4
1002,0.551513671875,-0.65966796875,-0.3564453125,7.648854961832061,14.977099236641221,6.6106870229007635,150,4
1003,0.539794921875,-0.721923828125,-0.341796875,9.312977099236642,21.954198473282442,13.740458015267176,150,4
1004,0.549072265625,-0.705810546875,-0.373779296875,9.83206106870229,26.27480916030534,15.312977099236642,150,4
1005,0.5224609375,-0.69775390625,-0.35986328125,-0.5648854961832062,24.68702290076336,9.786259541984732,150,4
1006,0.549072265625,-0.7646484375,-0.345703125,6.595419847328245,28.33587786259542,15.603053435114504,150,4
1007,0.518798828125,-0.783935546875,-0.285888671875,8.51908396946565,24.18320610687023,19.083969465648856,150,4
1008,0.51806640625,-0.868896484375,-0.18505859375,25.374045801526716,28.229007633587788,29.022900763358777,150,4
1009,0.529296875,-0.84765625,-0.11328125,30.83969465648855,47.20610687022901,33.32824427480916,150,4
1010,0.51611328125,-0.818115234375,-0.140625,25.358778625954198,69.57251908396947,34.458015267175576,150,4
1011,0.5390625,-0.806884765625,-0.22705078125,23.740458015267176,77.69465648854961,37.63358778625954,150,4
1012,0.595703125,-0.778076171875,-0.325927734375,27.068702290076335,81.45038167938931,38.229007633587784,150,4
1013,0.615966796875,-0.739013671875,-0.448486328125,22.33587786259542,74.58015267175573,37.23664122137404,150,4
1014,0.627197265625,-0.669677734375,-0.547607421875,14.65648854961832,68.93129770992367,28.12213740458015,150,4
1015,0.63671875,-0.634765625,-0.60791015625,7.175572519083969,56.38167938931298,18.763358778625953,150,4
1016,0.625732421875,-0.641845703125,-0.642578125,7.3893129770992365,31.358778625954198,15.511450381679388,150,4
1017,0.60400390625,-0.635009765625,-0.60400390625,13.816793893129772,7.435114503816794,11.083969465648854,150,4
1018,0.58349609375,-0.736328125,-0.557373046875,28.091603053435115,-12.870229007633588,13.877862595419847,150,4
1019,0.5498046875,-0.7431640625,-0.32373046875,35.541984732824424,-10.045801526717558,14.351145038167939,150,4
1020,0.5244140625,-0.74365234375,-0.232421875,31.053435114503817,5.206106870229007,12.610687022900763,150,4
1021,0.489501953125,-0.7392578125,-0.24169921875,16.641221374045802,27.328244274809162,15.618320610687023,150,4
1022,0.4873046875,-0.692626953125,-0.31787109375,19.297709923664122,35.14503816793893,17.267175572519083,150,4
1023,0.51025390625,-0.738525390625,-0.39697265625,26.18320610687023,28.33587786259542,23.114503816793892,150,4
1024,0.486572265625,-0.74560546875,-0.369384765625,20.564885496183205,23.404580152671755,20.229007633587788,150,4
1025,0.542724609375,-0.654541015625,-0.34326171875,22.946564885496183,27.206106870229007,14.732824427480915,150,4
1026,0.562744140625,-0.6123046875,-0.3857421875,15.786259541984732,27.755725190839694,5.923664122137405,150,4
1027,0.55517578125,-0.611083984375,-0.428955078125,16.717557251908396,24.916030534351144,2.8396946564885495,150,4
1028,0.543212890625,-0.62646484375,-0.4755859375,17.450381679389313,11.541984732824428,1.816793893129771,150,4
1029,0.529296875,-0.6220703125,-0.4609375,31.053435114503817,-2.213740458015267,-0.24427480916030533,150,4
1030,0.516845703125,-0.628662109375,-0.3955078125,24.38167938931298,-4.33587786259542,-2.6106870229007635,150,4
1031,0.537109375,-0.6494140625,-0.382080078125,25.740458015267176,-4.99236641221374,-1.8625954198473282,150,4
1032,0.535888671875,-0.655029296875,-0.393310546875,27.49618320610687,0.9312977099236641,0.07633587786259542,150,4
1033,0.51318359375,-0.60888671875,-0.4658203125,14.305343511450381,8.076335877862595,-4.656488549618321,150,4
1034,0.5029296875,-0.63427734375,-0.55517578125,12.961832061068701,-3.145038167938931,-7.465648854961832,150,4
1035,0.5068359375,-0.670654296875,-0.622314453125,22.48854961832061,-15.053435114503817,0.3816793893129771,150,4
1036,0.52001953125,-0.641357421875,-0.533935546875,23.893129770992367,-18.061068702290076,-0.183206106870229,150,4
1037,0.556396484375,-0.631103515625,-0.5126953125,19.69465648854962,-20.50381679389313,-3.6946564885496183,150,4
1038,0.597412109375,-0.684326171875,-0.44775390625,22.35114503816794,-23.633587786259543,-4.030534351145038,150,4
1039,0.617919921875,-0.76513671875,-0.32275390625,25.51145038167939,-18.290076335877863,-1.083969465648855,150,4
1040,0.652587890625,-0.7685546875,-0.2861328125,25.64885496183206,4.106870229007634,0.7633587786259542,150,4
1041,0.676025390625,-0.70751953125,-0.39404296875,18.763358778625953,25.251908396946565,-2.045801526717557,150,4
1042,0.674560546875,-0.65380859375,-0.51416015625,5.175572519083969,28.38167938931298,-5.465648854961832,150,4
1043,0.668212890625,-0.658935546875,-0.63037109375,4.763358778625954,22.442748091603054,-9.282442748091603,150,4
1044,0.64208984375,-0.626708984375,-0.67578125,15.053435114503817,-4.015267175572519,-6.137404580152672,150,4
1045,0.6513671875,-0.74951171875,-0.6044921875,32.229007633587784,-10.931297709923664,-0.015267175572519083,150,4
1046,0.608154296875,-0.62939453125,-0.56005859375,17.16030534351145,-3.145038167938931,-10.50381679389313,150,4
1047,0.58203125,-0.6376953125,-0.57177734375,7.8320610687022905,-0.183206106870229,-11.053435114503817,150,4
1048,0.56396484375,-0.670166015625,-0.5947265625,9.49618320610687,-5.877862595419847,-7.312977099236641,150,4
1049,0.54296875,-0.66845703125,-0.586181640625,10.80916030534351,-15.633587786259541,-5.9541984732824424,150,4
1050,0.572021484375,-0.633544921875,-0.478515625,11.465648854961833,-10.80916030534351,-8.564885496183207,150,4
1051,0.55322265625,-0.6572265625,-0.45068359375,3.9236641221374047,-6.030534351145038,-9.541984732824428,150,4
1052,0.54296875,-0.735595703125,-0.422119140625,13.801526717557252,3.145038167938931,1.0229007633587786,150,4
1053,0.55615234375,-0.665283203125,-0.416748046875,5.297709923664122,13.374045801526718,3.648854961832061,150,4
1054,0.5625,-0.599853515625,-0.499755859375,-3.49618320610687,16.015267175572518,-4.152671755725191,150,4
1055,0.571044921875,-0.6337890625,-0.542236328125,-3.2213740458015265,8.458015267175572,-1.0229007633587786,150,4
1056,0.566162109375,-0.640380859375,-0.542236328125,4.900763358778626,0.183206106870229,2.6412213740458017,150,4
1057,0.577880859375,-0.615478515625,-0.55810546875,5.251908396946565,-0.8396946564885496,1.1908396946564885,150,4
1058,0.574951171875,-0.59423828125,-0.474609375,2.5343511450381677,-0.7786259541984732,-1.2061068702290076,150,4
1059,0.586181640625,-0.60205078125,-0.46240234375,3.3282442748091605,0.9007633587786259,-1.5419847328244274,150,4
1060,0.5859375,-0.60693359375,-0.461181640625,1.8778625954198473,1.0381679389312977,-1.0687022900763359,150,4
1061,0.598388671875,-0.60107421875,-0.46337890625,-0.7175572519083969,2.6717557251908395,-2.8702290076335877,150,4
1062,0.61083984375,-0.598876953125,-0.457275390625,-3.877862595419847,0.07633587786259542,-3.633587786259542,150,4
1063,0.60693359375,-0.612548828125,-0.47412109375,-4.717557251908397,2.717557251908397,-3.267175572519084,150,4
1064,0.6083984375,-0.634765625,-0.458740234375,-3.7099236641221376,2.8396946564885495,-2.6412213740458017,150,4
1065,0.60888671875,-0.63330078125,-0.4443359375,-6.33587786259542,3.2061068702290076,-4.320610687022901,150,4
1066,0.59228515625,-0.663330078125,-0.41357421875,-4.854961832061068,2.0916030534351147,-2.0763358778625953,150,4
1067,0.58642578125,-0.677978515625,-0.388671875,-2.5801526717557253,4.977099236641221,0.6412213740458015,150,4
1068,0.56884765625,-0.66259765625,-0.392822265625,-9.068702290076336,5.358778625954199,-2.2595419847328246,150,4
1069,0.541259765625,-0.68212890625,-0.3876953125,-8.80916030534351,3.3282442748091605,0.9007633587786259,150,4
1070,0.554931640625,-0.6962890625,-0.316650390625,5.145038167938932,1.4045801526717556,6.351145038167939,150,4
1071,0.560302734375,-0.626708984375,-0.3349609375,3.099236641221374,4.9465648854961835,2.366412213740458,150,4
1072,0.554443359375,-0.631103515625,-0.332275390625,-6.793893129770993,13.007633587786259,1.251908396946565,150,4
1073,0.572265625,-0.63916015625,-0.328125,-11.572519083969466,15.694656488549619,-0.7633587786259542,150,4
1074,0.50048828125,-0.64892578125,-0.330322265625,-10.351145038167939,8.687022900763358,-1.9236641221374047,150,4
1075,0.547607421875,-0.6259765625,-0.3681640625,-2.2290076335877864,5.145038167938932,-0.5343511450381679,150,4
1076,0.538818359375,-0.667236328125,-0.27880859375,-0.8702290076335878,9.068702290076336,-2.7480916030534353,150,4
1077,0.533447265625,-0.65625,-0.303466796875,-5.541984732824427,11.312977099236642,-5.404580152671755,150,4
1078,0.5166015625,-0.689208984375,-0.33642578125,-4.67175572519084,8.0,-3.572519083969466,150,4
1079,0.49560546875,-0.706787109375,-0.337890625,-1.1145038167938932,4.198473282442748,-3.7404580152671754,150,4
1080,0.503662109375,-0.689208984375,-0.3369140625,0.9465648854961832,3.633587786259542,0.3816793893129771,150,4
1081,0.509765625,-0.694091796875,-0.303466796875,5.450381679389313,-3.969465648854962,3.3893129770992365,150,4
1082,0.552490234375,-0.679443359375,-0.278564453125,8.885496183206106,-3.7404580152671754,2.3969465648854964,150,4
1083,0.56640625,-0.628173828125,-0.272216796875,2.50381679389313,4.030534351145038,-3.450381679389313,150,4
1084,0.580322265625,-0.563720703125,-0.296142578125,-5.145038167938932,12.396946564885496,-3.9389312977099236,150,4
1085,0.557373046875,-0.645263671875,-0.329345703125,-6.305343511450381,6.442748091603053,-10.65648854961832,150,4
1086,0.52685546875,-0.71337890625,-0.372314453125,-0.9770992366412213,2.595419847328244,-7.969465648854962,150,4
