,Ax,Ay,Az,Gx,Gy,Gz,distance,shot_type
0,0.68115234375,-0.5400390625,-0.2626953125,12.256097560975611,6.646341463414635,-8.231707317073171,125,6
1,0.6640625,-0.55224609375,-0.25830078125,8.963414634146343,8.841463414634147,-7.682926829268293,125,6
2,0.6669921875,-0.55810546875,-0.2734375,6.585365853658537,10.30487804878049,-6.890243902439025,125,6
3,0.65625,-0.56591796875,-0.25537109375,5.670731707317073,10.182926829268293,-6.158536585365854,125,6
4,0.63134765625,-0.58984375,-0.236328125,6.707317073170732,8.78048780487805,-5.121951219512195,125,6
5,0.6318359375,-0.6015625,-0.23486328125,7.743902439024391,7.073170731707318,-4.695121951219512,125,6
6,0.6259765625,-0.59765625,-0.26025390625,8.170731707317074,6.036585365853659,-3.4756097560975614,125,6
7,0.61328125,-0.6044921875,-0.26025390625,10.30487804878049,3.048780487804878,-2.682926829268293,125,6
8,0.6123046875,-0.61328125,-0.28076171875,13.29268292682927,0.6097560975609757,-2.1951219512195124,125,6
9,0.6171875,-0.59716796875,-0.2822265625,14.207317073170733,-1.0975609756097562,-2.073170731707317,125,6
10,0.66259765625,-0.537109375,-0.294921875,12.195121951219512,0.3658536585365854,-2.073170731707317,125,6
11,0.66943359375,-0.509765625,-0.2958984375,7.195121951219513,3.8414634146341466,-2.1341463414634148,125,6
12,0.67431640625,-0.51513671875,-0.28564453125,1.707317073170732,7.439024390243903,-1.9512195121951221,125,6
13,0.6650390625,-0.53173828125,-0.25244140625,-1.8902439024390245,9.51219512195122,-1.8902439024390245,125,6
14,0.6748046875,-0.5302734375,-0.22705078125,-2.9268292682926833,10.426829268292684,-1.6463414634146343,125,6
15,0.67626953125,-0.529296875,-0.21923828125,-3.4756097560975614,10.792682926829269,-1.7682926829268295,125,6
16,0.6884765625,-0.50244140625,-0.19970703125,-2.3170731707317076,8.048780487804878,-2.378048780487805,125,6
17,0.685546875,-0.498046875,-0.17041015625,3.231707317073171,2.439024390243903,-2.3170731707317076,125,6
18,0.64111328125,-0.52197265625,-0.18408203125,9.329268292682928,-3.4756097560975614,-0.7317073170731708,125,6
19,0.619140625,-0.55908203125,-0.220703125,13.170731707317074,-6.2804878048780495,1.0975609756097562,125,6
20,0.61328125,-0.580078125,-0.22119140625,14.756097560975611,-7.25609756097561,2.1951219512195124,125,6
21,0.650390625,-0.54296875,-0.21484375,15.000000000000002,-6.463414634146342,2.1951219512195124,125,6
22,0.69677734375,-0.50732421875,-0.21240234375,11.646341463414634,-3.353658536585366,2.3170731707317076,125,6
23,0.685546875,-0.50341796875,-0.2294921875,7.317073170731708,-15.609756097560977,2.439024390243903,125,6
24,0.65283203125,-0.52587890625,-0.23974609375,4.878048780487806,1.5853658536585367,1.7682926829268295,125,6
25,0.66455078125,-0.52099609375,-0.23291015625,3.8414634146341466,2.682926829268293,1.402439024390244,125,6
26,0.68359375,-0.5048828125,-0.212890625,3.658536585365854,3.780487804878049,0.9146341463414634,125,6
27,0.69921875,-0.49462890625,-0.21337890625,2.5,4.634146341463415,0.3658536585365854,125,6
28,0.70166015625,-0.4619140625,-0.22216796875,1.829268292682927,4.51219512195122,0.48780487804878053,125,6
29,0.67822265625,-0.47705078125,-0.212890625,3.8414634146341466,1.7682926829268295,1.2195121951219514,125,6
30,0.65625,-0.49560546875,-0.19970703125,7.25609756097561,-1.524390243902439,1.402439024390244,125,6
31,0.6865234375,-0.4638671875,-0.1796875,8.841463414634147,-1.8902439024390245,0.7317073170731708,125,6
32,0.6904296875,-0.4521484375,-0.1767578125,9.817073170731708,-2.0121951219512195,0.48780487804878053,125,6
33,0.6923828125,-0.455078125,-0.1748046875,10.060975609756099,-1.7682926829268295,0.12195121951219513,125,6
34,0.7041015625,-0.453125,-0.16943359375,10.182926829268293,-1.0975609756097562,-0.6707317073170732,125,6
35,0.7177734375,-0.4326171875,-0.1591796875,10.426829268292684,0.24390243902439027,-1.8902439024390245,125,6
36,0.7294921875,-0.41552734375,-0.16455078125,9.451219512195122,2.25609756097561,-3.2926829268292686,125,6
37,0.751953125,-0.40576171875,-0.16015625,6.7682926829268295,5.3048780487804885,-4.390243902439025,125,6
38,0.76708984375,-0.3984375,-0.1689453125,3.353658536585366,7.317073170731708,-5.548780487804878,125,6
39,0.7578125,-0.4072265625,-0.158203125,3.048780487804878,6.829268292682928,-5.7926829268292686,125,6
40,0.720703125,-0.4677734375,-0.16845703125,3.780487804878049,5.609756097560976,-5.975609756097562,125,6
41,0.70361328125,-0.48681640625,-0.15771484375,6.219512195121951,3.9024390243902443,-5.975609756097562,125,6
42,0.685546875,-0.51806640625,-0.16943359375,8.109756097560977,2.1341463414634148,-5.609756097560976,125,6
43,0.69921875,-0.51025390625,-0.18701171875,8.536585365853659,1.4634146341463417,-5.975609756097562,125,6
44,0.689453125,-0.505859375,-0.19140625,8.353658536585366,1.829268292682927,-5.731707317073171,125,6
45,0.6962890625,-0.498046875,-0.197265625,6.158536585365854,3.963414634146342,-5.853658536585367,125,6
46,0.71484375,-0.49365234375,-0.2080078125,2.1341463414634148,7.439024390243903,-5.182926829268293,125,6
47,0.7109375,-0.49267578125,-0.2001953125,-0.7926829268292683,9.634146341463415,-4.451219512195122,125,6
48,0.7109375,-0.48779296875,-0.20703125,-2.25609756097561,11.341463414634147,-3.658536585365854,125,6
49,0.71484375,-0.4951171875,-0.2109375,-2.6219512195121952,12.378048780487806,-2.804878048780488,125,6
50,0.69775390625,-0.517578125,-0.21044921875,-2.6219512195121952,13.231707317073171,-1.7682926829268295,125,6
51,0.69287109375,-0.5439453125,-0.2314453125,-3.4756097560975614,14.085365853658537,-1.0975609756097562,125,6
52,0.69287109375,-0.54833984375,-0.224609375,-4.573170731707317,14.390243902439027,-0.7317073170731708,125,6
53,0.6728515625,-0.58740234375,-0.20947265625,-1.7682926829268295,11.585365853658537,0.5487804878048781,125,6
54,0.619140625,-0.5087890625,-0.181640625,4.451219512195122,7.621951219512196,1.5853658536585367,125,6
55,0.603515625,-0.6123046875,-0.17626953125,8.902439024390244,5.182926829268293,2.0121951219512195,125,6
56,0.615234375,-0.57763671875,-0.17333984375,10.0,3.8414634146341466,2.3170731707317076,125,6
57,0.63330078125,-0.54833984375,-0.19189453125,10.426829268292684,3.353658536585366,2.5,125,6
58,0.646484375,-0.53955078125,-0.1904296875,10.975609756097562,2.5609756097560976,2.5,125,6
59,0.654296875,-0.54296875,-0.19482421875,10.792682926829269,2.3170731707317076,2.439024390243903,125,6
60,0.6640625,-0.52490234375,-0.20947265625,9.146341463414634,3.4756097560975614,2.439024390243903,125,6
61,0.67822265625,-0.62451171875,-0.2109375,6.219512195121951,5.365853658536586,2.3170731707317076,125,6
62,0.677734375,-0.5,-0.228515625,4.024390243902439,6.829268292682928,2.25609756097561,125,6
63,0.66748046875,-0.49951171875,-0.1943359375,2.804878048780488,7.621951219512196,1.707317073170732,125,6
64,0.6796875,-0.50048828125,-0.19091796875,1.8902439024390245,8.902439024390244,1.3414634146341464,125,6
65,0.68994140625,-0.4814453125,-0.17431640625,15.426829268292684,11.158536585365855,0.9146341463414634,125,6
66,0.70703125,-0.4560546875,-0.16845703125,-1.6463414634146343,12.01219512195122,0.426829268292683,125,6
67,0.6875,-0.4580078125,-0.17236328125,-2.1341463414634148,11.951219512195124,1.1585365853658538,125,6
68,0.67578125,-0.4794921875,-0.16748046875,-1.829268292682927,11.402439024390246,1.829268292682927,125,6
69,0.669921875,-0.48486328125,-0.16552734375,-1.6463414634146343,11.158536585365855,2.5609756097560976,125,6
70,0.6806640625,-0.48779296875,-0.1572265625,-0.3658536585365854,10.792682926829269,2.804878048780488,125,6
71,0.69189453125,-0.4697265625,-0.146484375,0.7317073170731708,11.036585365853659,3.2926829268292686,125,6
72,0.6962890625,-0.46337890625,-0.14697265625,0.7317073170731708,11.402439024390246,3.1097560975609757,125,6
73,0.68896484375,-0.47705078125,-0.14794921875,0.30487804878048785,12.621951219512196,3.231707317073171,125,6
74,0.68798828125,-0.48779296875,-0.150390625,-0.426829268292683,14.451219512195124,2.8658536585365857,125,6
75,0.703125,-0.47119140625,-0.14208984375,-2.0121951219512195,16.402439024390244,2.439024390243903,125,6
76,0.7255859375,-0.466796875,-0.1337890625,-3.1707317073170733,18.04878048780488,2.073170731707317,125,6
77,0.744140625,-0.49560546875,-0.24951171875,-3.963414634146342,19.634146341463417,2.1951219512195124,125,6
78,0.74169921875,-0.525390625,-0.10009765625,-3.7195121951219514,20.914634146341466,2.378048780487805,125,6
79,0.73388671875,-0.54052734375,-0.08935546875,-3.1097560975609757,21.585365853658537,2.5609756097560976,125,6
80,0.73779296875,-0.54052734375,-0.05859375,-2.804878048780488,24.207317073170735,2.804878048780488,125,6
81,0.71875,-0.54296875,-0.00927734375,-3.4756097560975614,27.378048780487806,2.804878048780488,125,6
82,0.72119140625,-0.53125,0.03369140625,-3.1707317073170733,29.634146341463417,2.9268292682926833,125,6
83,0.7177734375,-0.52734375,0.06982421875,-2.073170731707317,31.82926829268293,3.414634146341464,125,6
84,0.71630859375,-0.529296875,0.08642578125,-1.2195121951219514,34.57317073170732,3.4756097560975614,125,6
85,0.724609375,-0.51904296875,0.0888671875,-2.804878048780488,39.08536585365854,3.353658536585366,125,6
86,0.71923828125,-0.51708984375,0.10302734375,-4.329268292682928,42.987804878048784,3.658536585365854,125,6
87,0.7177734375,-0.5439453125,0.07861328125,-5.3048780487804885,46.03658536585366,4.878048780487806,125,6
88,0.68896484375,-0.568359375,0.06787109375,-4.878048780487806,47.6219512195122,6.158536585365854,125,6
89,0.68310546875,-0.57373046875,0.08203125,-2.378048780487805,48.35365853658537,7.682926829268293,125,6
90,0.66015625,-0.59033203125,0.1005859375,-1.0365853658536586,49.39024390243903,9.51219512195122,125,6
91,0.662109375,-0.5791015625,0.0908203125,1.402439024390244,49.451219512195124,10.182926829268293,125,6
92,0.66552734375,-0.57080078125,0.08740234375,4.878048780487806,47.86585365853659,11.463414634146343,125,6
93,0.6513671875,-0.5693359375,0.02490234375,9.573170731707318,42.43902439024391,12.439024390243903,125,6
94,0.697265625,-0.505859375,-0.05712890625,13.597560975609758,39.87804878048781,12.865853658536587,125,6
95,0.73583984375,-0.47119140625,-0.0673828125,13.658536585365855,40.91463414634147,13.414634146341465,125,6
96,0.7314453125,-0.51806640625,-0.07763671875,10.548780487804878,44.207317073170735,14.02439024390244,125,6
97,0.7333984375,-0.5009765625,-0.08740234375,2.9268292682926833,49.87804878048781,13.719512195121952,125,6
98,0.78466796875,-0.42431640625,-0.080078125,-4.634146341463415,56.463414634146346,13.353658536585368,125,6
99,0.7724609375,-0.4375,-0.09619140625,-12.317073170731708,60.67073170731708,12.74390243902439,125,6
100,0.775390625,-0.3974609375,-0.16015625,-15.853658536585368,46.82926829268293,12.317073170731708,125,6
101,0.79931640625,-0.357421875,-0.11328125,-19.573170731707318,64.9390243902439,12.195121951219512,125,6
102,0.7890625,-0.36572265625,-0.15380859375,-25.54878048780488,66.76829268292684,11.341463414634147,125,6
103,0.810546875,-0.328125,-0.216796875,-32.01219512195122,66.09756097560977,8.719512195121952,125,6
104,0.83837890625,-0.25732421875,-0.2880859375,-38.963414634146346,65.67073170731707,6.158536585365854,125,6
105,0.86865234375,-0.24462890625,-0.29541015625,-44.51219512195122,66.52439024390245,4.2682926829268295,125,6
106,0.86376953125,-0.2900390625,-0.28271484375,-48.84146341463415,68.96341463414635,1.6463414634146343,125,6
107,0.8251953125,-0.35107421875,-0.37451171875,-50.36585365853659,68.84146341463415,0.6097560975609757,125,6
108,0.79443359375,-0.38525390625,-0.2490234375,-49.085365853658544,66.34146341463415,-0.853658536585366,125,6
109,0.76904296875,-0.3818359375,-0.36572265625,-46.09756097560976,61.524390243902445,-1.829268292682927,125,6
110,0.7275390625,-0.41845703125,-0.22900390625,-42.926829268292686,57.743902439024396,-2.1341463414634148,125,6
111,0.701171875,-0.4169921875,-0.22705078125,-37.5,52.07317073170732,-2.439024390243903,125,6
112,0.70361328125,-0.37646484375,-0.23291015625,-32.01219512195122,47.5609756097561,-3.414634146341464,125,6
113,0.71240234375,-0.3369140625,-0.24072265625,-28.658536585365855,42.5609756097561,-4.085365853658537,125,6
114,0.69287109375,-0.32373046875,-0.2431640625,-26.158536585365855,38.78048780487805,-4.207317073170732,125,6
115,0.6796875,-0.318359375,-0.24951171875,-24.32926829268293,33.963414634146346,-5.731707317073171,125,6
116,0.71337890625,-0.24853515625,-0.30810546875,-22.743902439024392,28.84146341463415,-8.231707317073171,125,6
117,0.73583984375,-0.177734375,-0.33642578125,-25.853658536585368,26.158536585365855,-11.036585365853659,125,6
118,0.77001953125,-0.146484375,-0.34228515625,-32.743902439024396,27.5609756097561,-13.658536585365855,125,6
119,0.7802734375,-0.14404296875,-0.310546875,-39.87804878048781,29.32926829268293,-16.463414634146343,125,6
120,0.75146484375,-0.2021484375,-0.31201171875,-44.08536585365854,28.414634146341466,-18.963414634146343,125,6
121,0.72265625,-0.21337890625,-0.33056640625,-46.21951219512196,26.28048780487805,-21.03658536585366,125,6
122,0.71484375,-0.23095703125,-0.35107421875,-46.707317073170735,23.353658536585368,-22.5609756097561,125,6
123,0.7392578125,-0.19921875,-0.357421875,-31.402439024390247,20.60975609756098,-24.634146341463417,125,6
124,0.76806640625,-0.162109375,-0.38134765625,-51.03658536585366,20.0609756097561,-27.31707317073171,125,6
125,0.76904296875,-0.1591796875,-0.41259765625,-58.53658536585366,20.0609756097561,-29.75609756097561,125,6
126,0.75732421875,-0.14013671875,-0.3837890625,-65.48780487804879,20.48780487804878,-31.646341463414636,125,6
127,0.75732421875,-0.16552734375,-0.40185546875,-69.02439024390245,19.146341463414636,-33.90243902439025,125,6
128,0.7705078125,-0.16552734375,-0.40966796875,-72.5,17.134146341463417,-36.15853658536586,125,6
129,0.759765625,-0.1669921875,-0.43701171875,-77.19512195121952,14.634146341463415,-38.35365853658537,125,6
130,0.76171875,-0.154296875,-0.4501953125,-81.89024390243902,13.719512195121952,-41.21951219512196,125,6
131,0.77880859375,-0.15087890625,-0.4267578125,-86.76829268292684,14.451219512195124,-43.53658536585366,125,6
132,0.78759765625,-0.1708984375,-0.419921875,-91.40243902439025,14.634146341463415,-45.36585365853659,125,6
133,0.78173828125,-0.1767578125,-0.41845703125,-94.26829268292684,13.963414634146343,-47.804878048780495,125,6
134,0.79296875,-0.16796875,-0.41796875,-98.04878048780489,12.865853658536587,-50.1829268292683,125,6
135,0.76220703125,-0.18212890625,-0.41259765625,-100.3658536585366,11.52439024390244,-52.01219512195122,125,6
136,0.7802734375,-0.1865234375,-0.4033203125,-102.50000000000001,9.878048780487806,-54.085365853658544,125,6
137,0.8271484375,-0.14990234375,-0.43896484375,-108.17073170731709,10.0,-57.13414634146342,125,6
138,0.84716796875,-0.14794921875,-0.4736328125,-115.2439024390244,10.670731707317074,-59.69512195121952,125,6
139,0.859375,-0.15380859375,-0.48876953125,-122.13414634146342,12.560975609756099,-47.01219512195122,125,6
140,0.89990234375,-0.15869140625,-0.4931640625,-127.56097560975611,13.841463414634148,-65.67073170731707,125,6
141,0.9130859375,-0.17529296875,-0.48828125,-132.5609756097561,13.78048780487805,-68.65853658536587,125,6
142,0.9052734375,-0.2001953125,-0.50244140625,-137.4390243902439,15.121951219512196,-71.76829268292684,125,6
143,0.93115234375,-0.17822265625,-0.486328125,-141.64634146341464,15.060975609756099,-75.0609756097561,125,6
144,0.9873046875,-0.01025390625,-0.486328125,-146.46341463414635,16.70731707317073,-78.84146341463415,125,6
145,1.0126953125,-0.15380859375,-0.48779296875,-152.31707317073173,18.597560975609756,-81.70731707317074,125,6
146,1.0185546875,-0.14892578125,-0.5322265625,-158.90243902439025,20.54878048780488,-85.3658536585366,125,6
147,1.03515625,-0.1416015625,-0.52978515625,-162.9878048780488,21.707317073170735,-89.81707317073172,125,6
148,1.0625,-0.13330078125,-0.50244140625,-167.01219512195124,22.865853658536587,-93.41463414634147,125,6
149,1.0791015625,-0.16259765625,-0.5234375,-170.91463414634148,25.48780487804878,-96.46341463414635,125,6
150,1.07373046875,-0.18115234375,-0.52734375,-174.02439024390245,28.353658536585368,-99.26829268292684,125,6
151,1.10546875,-0.140625,-0.52392578125,-176.95121951219514,30.30487804878049,-103.35365853658537,125,6
152,1.16650390625,-0.099609375,-0.52978515625,-182.01219512195124,34.207317073170735,-106.64634146341464,125,6
153,1.21142578125,-0.05029296875,-0.525390625,-190.7926829268293,40.670731707317074,-109.87804878048782,125,6
154,1.2392578125,-0.048828125,-0.56201171875,-198.53658536585368,42.5609756097561,-113.90243902439025,125,6
155,1.263671875,-0.00830078125,-0.5888671875,-199.02439024390245,39.51219512195122,-119.87804878048782,125,6
156,1.298828125,0.01513671875,-0.64501953125,-196.28048780487808,32.19512195121951,-126.76829268292684,125,6
157,1.25048828125,0.068359375,-0.73486328125,-193.2926829268293,25.54878048780488,-136.82926829268294,125,6
158,1.44091796875,0.1533203125,-0.73828125,-194.87804878048783,24.207317073170735,-145.5487804878049,125,6
159,1.47900390625,0.11767578125,-0.69775390625,-198.2317073170732,23.353658536585368,-153.1707317073171,125,6
160,1.5234375,0.08642578125,-0.6279296875,-198.84146341463418,22.012195121951223,-160.609756097561,125,6
161,1.5283203125,0.03515625,-0.69189453125,-200.6707317073171,19.02439024390244,-167.43902439024393,125,6
162,1.515625,0.0478515625,-0.62744140625,-198.84146341463418,17.25609756097561,-174.69512195121953,125,6
163,1.5673828125,0.04736328125,-0.5849609375,-195.6707317073171,16.463414634146343,-181.40243902439025,125,6
164,1.62255859375,0.07177734375,-0.5234375,-193.96341463414635,17.5,-186.82926829268294,125,6
165,1.6591796875,0.072265625,-0.50341796875,-195.91463414634148,20.60975609756098,-192.07317073170734,125,6
166,1.673828125,0.06005859375,-0.51513671875,-197.25609756097563,23.353658536585368,-197.50000000000003,125,6
167,1.67431640625,0.0537109375,-0.49755859375,-194.87804878048783,24.146341463414636,-187.43902439024393,125,6
168,1.74951171875,0.11083984375,-0.51025390625,-189.81707317073173,23.59756097560976,-209.08536585365854,125,6
169,1.81298828125,0.150390625,-0.5185546875,-190.06097560975613,25.426829268292686,-214.93902439024393,125,6
170,1.8310546875,0.10888671875,-0.5751953125,-195.5487804878049,29.512195121951223,-222.13414634146343,125,6
171,1.81298828125,0.0634765625,-0.5869140625,-198.71951219512198,31.89024390243903,-227.56097560975613,125,6
172,1.81201171875,0.0087890625,-0.5087890625,-196.34146341463418,32.6829268292683,-231.95121951219514,125,6
173,1.826171875,-0.0546875,-0.49072265625,-191.34146341463418,32.6219512195122,-236.95121951219514,125,6
174,1.80810546875,-0.0283203125,-0.48388671875,-189.14634146341464,32.25609756097561,-240.5487804878049,125,6
175,1.73095703125,-0.0263671875,-0.43408203125,-189.45121951219514,35.30487804878049,-244.81707317073173,125,6
176,1.736328125,-0.0107421875,-0.3515625,-187.43902439024393,36.09756097560976,-247.43902439024393,125,6
177,1.67333984375,-0.06689453125,-0.28271484375,-183.2926829268293,34.63414634146342,-246.82926829268294,125,6
178,1.74755859375,-0.10302734375,-0.3115234375,-177.50000000000003,31.463414634146343,-246.89024390243904,125,6
179,1.55517578125,-0.064453125,-0.30517578125,-172.8658536585366,30.60975609756098,-234.26829268292684,125,6
180,1.58544921875,0.033203125,-0.2802734375,-166.21951219512198,28.353658536585368,-253.59756097560978,125,6
181,1.61328125,0.12255859375,-0.25927734375,-162.37804878048783,25.853658536585368,-257.8048780487805,125,6
182,1.61669921875,0.13232421875,-0.1259765625,-160.609756097561,25.426829268292686,-262.6219512195122,125,6
183,1.60400390625,0.099609375,-0.36767578125,-158.0487804878049,22.926829268292686,-267.07317073170736,125,6
184,1.60107421875,0.123046875,-0.14794921875,-151.15853658536588,21.03658536585366,-270.9146341463415,125,6
185,1.60107421875,0.13134765625,-0.06396484375,-142.19512195121953,19.75609756097561,-272.5,125,6
186,1.60595703125,0.19775390625,-0.0556640625,-139.57317073170734,21.402439024390247,-273.2926829268293,125,6
187,1.54638671875,0.1796875,-0.05126953125,-145.0,28.292682926829272,-274.63414634146346,125,6
188,1.4970703125,0.1669921875,0.01708984375,-147.8658536585366,35.1829268292683,-275.3658536585366,125,6
189,1.49169921875,0.1796875,0.1103515625,-143.59756097560978,42.13414634146342,-275.5487804878049,125,6
190,1.49658203125,0.17626953125,0.1630859375,-138.35365853658539,31.280487804878053,-274.69512195121956,125,6
191,1.4326171875,0.16552734375,0.2119140625,-132.6829268292683,51.524390243902445,-273.7804878048781,125,6
192,1.357421875,0.18017578125,0.24169921875,-125.54878048780489,53.90243902439025,-272.25609756097566,125,6
193,1.26416015625,0.1982421875,0.2392578125,-118.10975609756099,56.03658536585366,-271.82926829268297,125,6
194,1.17529296875,0.16845703125,0.19677734375,-111.89024390243904,57.926829268292686,-269.75609756097566,125,6
195,1.125,0.16357421875,0.21240234375,-105.42682926829269,60.426829268292686,-266.5853658536586,125,6
196,1.0693359375,0.111328125,0.1689453125,-98.10975609756099,61.89024390243903,-264.0243902439025,125,6
197,1.01171875,0.0673828125,0.01904296875,-93.90243902439025,64.75609756097562,-261.95121951219517,125,6
198,0.962890625,0.08154296875,0.02685546875,-90.3658536585366,66.52439024390245,-257.8658536585366,125,6
199,0.89306640625,0.02978515625,0.0234375,-88.90243902439025,68.53658536585367,-253.47560975609758,125,6
200,0.82861328125,-0.0166015625,0.0751953125,-85.79268292682927,71.64634146341464,-248.0487804878049,125,6
201,0.7392578125,-0.0634765625,0.07421875,-82.5609756097561,71.89024390243902,-242.43902439024393,125,6
202,0.697265625,-0.11865234375,0.0400390625,-78.23170731707317,72.5609756097561,-239.26829268292684,125,6
203,0.67333984375,-0.16357421875,0.05712890625,-74.02439024390245,72.6829268292683,-236.52439024390247,125,6
204,0.64111328125,-0.2080078125,0.10498046875,-68.65853658536587,72.07317073170732,-232.8048780487805,125,6
205,0.560546875,-0.3095703125,0.14013671875,-78.04878048780489,69.51219512195122,-228.2317073170732,125,6
206,0.45166015625,-0.396484375,0.0517578125,-56.82926829268293,64.02439024390245,-224.93902439024393,125,6
207,0.38232421875,-0.38427734375,0.08837890625,-47.07317073170732,55.00000000000001,-219.57317073170734,125,6
208,0.2529296875,-0.31591796875,0.12890625,-33.59756097560976,43.59756097560976,-212.9878048780488,125,6
209,0.33251953125,-0.30078125,0.169921875,-27.134146341463417,38.963414634146346,-206.89024390243904,125,6
210,0.228515625,-0.4150390625,0.14453125,-27.621951219512198,36.768292682926834,-200.4268292682927,125,6
211,0.205078125,-0.44189453125,0.09423828125,-28.231707317073173,36.40243902439025,-193.96341463414635,125,6
212,0.1318359375,-0.4697265625,0.1123046875,-28.231707317073173,36.951219512195124,-185.3658536585366,125,6
213,0.05078125,-0.37548828125,0.19580078125,-27.987804878048784,38.41463414634147,-175.7926829268293,125,6
214,-0.01953125,-0.6005859375,0.21142578125,-27.987804878048784,39.08536585365854,-165.7926829268293,125,6
215,-0.0908203125,-0.6640625,0.16552734375,-24.878048780487806,36.34146341463415,-154.14634146341464,125,6
216,-0.23779296875,-0.69580078125,0.3173828125,-17.25609756097561,33.59756097560976,-142.9878048780488,125,6
217,-0.2607421875,-0.740234375,0.3671875,-10.731707317073171,30.243902439024392,-128.53658536585368,125,6
218,-0.4599609375,-0.75,0.4287109375,-3.963414634146342,27.80487804878049,-116.40243902439025,125,6
219,-0.5029296875,-0.62744140625,0.4189453125,-4.024390243902439,26.52439024390244,-101.58536585365854,125,6
220,-0.58837890625,-0.78857421875,0.40673828125,-7.25609756097561,27.31707317073171,-88.53658536585367,125,6
221,-0.51025390625,-0.88134765625,0.4130859375,-8.170731707317074,28.170731707317074,-72.5,125,6
222,-0.7216796875,-1.02294921875,0.3955078125,-5.914634146341464,28.10975609756098,-52.01219512195122,125,6
223,-0.75927734375,-1.154296875,0.3447265625,-1.0975609756097562,27.500000000000004,-46.768292682926834,125,6
224,-0.81396484375,-1.20068359375,0.33447265625,0.30487804878048785,25.365853658536587,-11.951219512195124,125,6
225,-0.7802734375,-1.21435546875,0.27880859375,-2.9268292682926833,29.02439024390244,6.890243902439025,125,6
226,-0.73681640625,-1.2392578125,0.33642578125,-8.78048780487805,46.646341463414636,26.707317073170735,125,6
227,-0.740234375,-1.34423828125,0.36962890625,-8.658536585365855,33.109756097560975,46.768292682926834,125,6
228,-0.71142578125,-1.3935546875,0.40673828125,-4.695121951219512,32.987804878048784,66.15853658536587,125,6
229,-0.68798828125,-1.47265625,0.3486328125,-1.5853658536585367,30.121951219512198,86.03658536585367,125,6
230,-0.58056640625,-1.4853515625,0.373046875,6.2804878048780495,24.085365853658537,105.42682926829269,125,6
231,-0.46142578125,-1.5205078125,0.22802734375,10.609756097560977,23.59756097560976,110.91463414634147,125,6
232,-0.34814453125,-1.5859375,0.23291015625,13.353658536585368,21.585365853658537,149.14634146341464,125,6
233,-0.35009765625,-1.73193359375,0.16455078125,18.231707317073173,19.02439024390244,171.40243902439025,125,6
234,-0.2294921875,-1.7685546875,0.09814453125,24.939024390243905,14.02439024390244,190.6707317073171,125,6
235,-0.0517578125,-1.79833984375,-0.07080078125,29.207317073170735,7.25609756097561,207.8048780487805,125,6
236,0.00341796875,-1.84716796875,-0.18701171875,36.40243902439025,2.8658536585365857,226.03658536585368,125,6
237,0.275390625,-1.88232421875,-0.18994140625,41.34146341463415,15.487804878048783,246.28048780487808,125,6
238,0.39892578125,-2.228515625,-0.2685546875,44.390243902439025,-6.341463414634147,271.1585365853659,125,6
239,0.4990234375,-2.423828125,-0.33984375,44.268292682926834,-5.914634146341464,281.5243902439025,125,6
240,0.6669921875,-2.6005859375,-0.458984375,38.29268292682927,-7.621951219512196,312.31707317073176,125,6
241,0.76318359375,-2.841796875,-0.546875,28.963414634146343,-10.365853658536587,364.0853658536586,125,6
242,0.90673828125,-3.119140625,-0.50244140625,23.84146341463415,-14.085365853658537,402.8658536585366,125,6
243,1.0556640625,-3.4375,-0.67626953125,18.04878048780488,-23.29268292682927,445.9146341463415,125,6
244,1.15673828125,-3.708984375,-0.68212890625,18.10975609756098,-16.28048780487805,483.7804878048781,125,6
245,1.53955078125,-4.0234375,-0.8134765625,23.59756097560976,-51.707317073170735,529.329268292683,125,6
246,2.00732421875,-4.27001953125,-1.095703125,30.365853658536587,-84.26829268292684,564.8170731707318,125,6
247,2.66259765625,-4.74951171875,-1.37890625,55.487804878048784,-124.57317073170732,611.8902439024391,125,6
248,3.5361328125,-5.115234375,-1.94921875,81.95121951219512,-166.82926829268294,676.0975609756098,125,6
249,4.47021484375,-5.52587890625,-2.07666015625,183.84146341463415,-173.84146341463415,712.5609756097562,125,6
250,5.916015625,-5.88525390625,-2.1806640625,236.64634146341464,-151.03658536585368,737.3780487804879,125,6
251,6.87744140625,-5.83349609375,-1.95361328125,301.70731707317077,-116.76829268292684,783.3536585365854,125,6
252,7.8916015625,-5.8447265625,-1.86376953125,385.7317073170732,-116.52439024390245,821.219512195122,125,6
253,8.4599609375,-5.12548828125,-2.27783203125,457.62195121951225,-143.2317073170732,828.1097560975611,125,6
254,8.96875,-5.01953125,-2.95849609375,499.81707317073176,-183.96341463414635,877.7439024390245,125,6
255,9.89013671875,-4.83251953125,-4.06298828125,566.219512195122,-214.63414634146343,910.0609756097562,125,6
256,10.99267578125,-4.29736328125,-4.8095703125,650.609756097561,-259.0853658536586,934.6951219512196,125,6
257,11.7509765625,-3.45361328125,-5.29443359375,775.9146341463415,-334.45121951219517,938.2926829268293,125,6
258,12.439453125,-2.58251953125,-6.435546875,869.7560975609757,-365.7926829268293,917.6829268292684,125,6
259,12.541015625,-1.2685546875,-8.1552734375,899.939024390244,-329.1463414634147,841.3414634146342,125,6
260,11.8798828125,0.4296875,-9.73486328125,936.3414634146342,-275.4878048780488,763.4756097560976,125,6
261,10.82568359375,1.64697265625,-8.68798828125,1033.719512195122,-302.4390243902439,681.219512195122,125,6
262,8.794921875,0.65185546875,-7.75830078125,1117.0731707317075,-384.69512195121956,558.109756097561,125,6
263,8.13720703125,2.6923828125,-6.44677734375,899.7560975609757,-567.439024390244,914.5731707317074,125,6
264,7.91455078125,-9.8154296875,-15.97900390625,489.0853658536586,1779.4512195121952,-153.78048780487805,125,6
265,15.99951171875,15.99951171875,-1.8310546875,1939.0853658536587,-223.35365853658539,195.97560975609758,125,6
266,2.35107421875,-0.037109375,-15.47802734375,1640.487804878049,-1486.9512195121952,227.13414634146343,125,6
267,-1.2421875,-10.66845703125,1.62646484375,1015.548780487805,73.35365853658537,-140.7926829268293,125,6
268,10.9775390625,11.98828125,1.77490234375,925.6707317073171,135.7317073170732,-93.47560975609757,125,6
269,3.345703125,-6.19287109375,2.4970703125,1166.2804878048782,-411.70731707317077,-274.26829268292687,125,6
270,7.09912109375,2.08642578125,0.47509765625,1037.0731707317075,-151.70731707317074,-361.219512195122,125,6
271,3.2607421875,-2.712890625,-1.0283203125,900.2439024390245,-123.04878048780489,-394.51219512195127,125,6
272,2.36083984375,-3.88916015625,-2.73193359375,726.5853658536586,-123.59756097560977,-455.7317073170732,125,6
273,3.53662109375,-1.85498046875,-1.81640625,628.5975609756098,-100.06097560975611,-519.0853658536586,125,6
274,2.50439453125,-3.1474609375,-1.9130859375,570.4878048780488,-91.82926829268294,-596.7682926829269,125,6
275,2.23876953125,-2.423828125,-1.0908203125,445.36585365853665,-30.487804878048784,-627.1951219512196,125,6
276,1.1611328125,-2.12158203125,-0.3974609375,372.9878048780488,35.79268292682927,-625.8536585365854,125,6
277,1.302734375,-1.5615234375,-0.00146484375,323.109756097561,122.01219512195124,-611.0365853658537,125,6
278,1.765625,-1.25146484375,-0.1318359375,277.07317073170736,178.109756097561,-594.5731707317074,125,6
279,2.20556640625,-0.986328125,-0.115234375,193.109756097561,269.63414634146346,-551.829268292683,125,6
280,2.28955078125,-1.00244140625,-0.267578125,117.43902439024392,358.5975609756098,-529.939024390244,125,6
281,2.30615234375,-1.51025390625,-0.32666015625,63.10975609756098,388.8414634146342,-473.7804878048781,125,6
282,1.89501953125,-2.087890625,-0.361328125,41.524390243902445,392.25609756097566,-437.86585365853665,125,6
283,1.65576171875,-2.06689453125,-0.15625,35.426829268292686,378.4146341463415,-406.5853658536586,125,6
284,1.63427734375,-1.8076171875,-0.21630859375,18.475609756097562,362.37804878048786,-385.3048780487805,125,6
285,1.984375,-1.40869140625,-0.23291015625,-13.475609756097562,354.69512195121956,-363.8414634146342,125,6
286,1.8544921875,-1.3291015625,-0.486328125,-48.78048780487805,355.8536585365854,-345.6707317073171,125,6
287,1.72314453125,-1.27099609375,-0.6396484375,-98.53658536585367,361.82926829268297,-322.8048780487805,125,6
288,1.3759765625,-1.3291015625,-0.740234375,-111.82926829268294,363.5365853658537,-309.63414634146346,125,6
289,1.0927734375,-1.13671875,-0.8544921875,-105.97560975609757,357.43902439024396,-294.57317073170736,125,6
290,1.0009765625,-0.931640625,-0.8046875,-96.28048780487806,355.00000000000006,-277.9268292682927,125,6
291,0.80224609375,-0.99609375,-0.80224609375,-82.98780487804879,351.89024390243907,-280.7317073170732,125,6
292,0.81298828125,-0.6943359375,-0.80126953125,-68.71951219512195,345.00000000000006,-253.78048780487808,125,6
293,0.9140625,-0.3955078125,-0.8466796875,-66.52439024390245,338.109756097561,-242.07317073170734,125,6
294,0.98681640625,-0.166015625,-1.03759765625,-80.3658536585366,337.8658536585366,-230.3048780487805,125,6
295,0.95166015625,0.02490234375,-1.08935546875,-102.8658536585366,340.2439024390244,-214.39024390243904,125,6
296,0.6708984375,0.0126953125,-1.29296875,-123.23170731707319,335.00000000000006,-192.6829268292683,125,6
297,0.38671875,-0.14501953125,-1.57080078125,-138.96341463414635,324.0243902439025,-175.5487804878049,125,6
298,0.1943359375,-0.2978515625,-1.43701171875,-125.85365853658537,301.0975609756098,-154.14634146341464,125,6
299,-0.05224609375,-0.38037109375,-1.2216796875,-117.50000000000001,281.6463414634147,-143.35365853658539,125,6
300,-0.18310546875,-0.29931640625,-0.87109375,-109.81707317073172,265.9146341463415,-132.37804878048783,125,6
301,-0.21533203125,-0.18505859375,-0.78466796875,-112.6219512195122,254.39024390243904,-119.51219512195124,125,6
302,-0.17578125,-0.013671875,-0.80224609375,-114.32926829268294,239.57317073170734,-105.60975609756099,125,6
303,-0.23388671875,0.0546875,-0.7841796875,-111.70731707317074,222.43902439024393,-91.46341463414635,125,6
304,-0.43408203125,0.0556640625,-0.76953125,-109.14634146341464,210.06097560975613,-78.71951219512196,125,6
305,-0.55224609375,0.06591796875,-0.658203125,-106.52439024390245,201.28048780487808,-73.17073170731707,125,6
306,-0.60791015625,0.07958984375,-0.5390625,-100.3048780487805,189.93902439024393,-71.64634146341464,125,6
307,-0.58544921875,0.12158203125,-0.53857421875,-94.02439024390245,180.1829268292683,-71.52439024390245,125,6
308,-0.45947265625,0.18115234375,-0.55322265625,-94.51219512195122,173.78048780487808,-73.35365853658537,125,6
309,-0.31689453125,0.29296875,-0.56396484375,-99.20731707317074,169.57317073170734,-73.35365853658537,125,6
310,-0.33056640625,0.3486328125,-0.59814453125,-100.54878048780489,162.5,-70.0,125,6
311,-0.498046875,0.2861328125,-0.56982421875,-94.45121951219512,152.43902439024393,-63.78048780487806,125,6
312,-0.74169921875,0.21337890625,-0.57470703125,-84.14634146341464,141.28048780487805,-57.31707317073171,125,6
313,-0.96728515625,0.1875,-0.53369140625,-72.92682926829269,130.97560975609758,-50.304878048780495,125,6
314,-1.05859375,0.1875,-0.462890625,-64.02439024390245,123.84146341463416,-42.07317073170732,125,6
315,-1.080078125,0.1748046875,-0.42333984375,-57.804878048780495,117.50000000000001,-34.451219512195124,125,6
316,-1.0380859375,0.1640625,-0.4052734375,-52.50000000000001,111.03658536585367,-28.10975609756098,125,6
317,-0.93017578125,0.17578125,-0.39306640625,-61.95121951219513,102.01219512195122,-22.98780487804878,125,6
318,-0.857421875,0.17724609375,-0.3662109375,-39.81707317073171,91.58536585365854,-18.78048780487805,125,6
319,-0.82666015625,0.22607421875,-0.3369140625,-34.024390243902445,81.89024390243902,-14.451219512195124,125,6
320,-0.85693359375,0.22998046875,-0.34033203125,-30.487804878048784,72.01219512195122,-11.646341463414634,125,6
321,-0.87939453125,0.29345703125,-0.2880859375,-29.573170731707318,63.29268292682927,-9.634146341463415,125,6
322,-0.88818359375,0.337890625,-0.25634765625,-30.30487804878049,56.21951219512196,-7.560975609756098,125,6
323,-0.951171875,0.3232421875,-0.3740234375,-30.731707317073173,49.268292682926834,-7.073170731707318,125,6
324,-0.9921875,0.31005859375,-0.23876953125,-26.28048780487805,40.85365853658537,-7.500000000000001,125,6
325,-1.00439453125,0.28955078125,-0.21826171875,-22.439024390243905,32.07317073170732,-8.597560975609756,125,6
326,-0.98291015625,0.27197265625,-0.2236328125,-18.78048780487805,22.743902439024392,-7.682926829268293,125,6
327,-0.94140625,0.27783203125,-0.24462890625,-13.475609756097562,14.51219512195122,-5.182926829268293,125,6
328,-0.93310546875,0.2412109375,-0.20166015625,-13.109756097560977,9.085365853658537,-2.7439024390243905,125,6
329,-0.9287109375,0.23583984375,-0.19580078125,-10.853658536585368,2.5,1.402439024390244,125,6
330,-0.9873046875,0.22119140625,-0.12841796875,-10.853658536585368,-1.4634146341463417,4.939024390243903,125,6
331,-1.02734375,0.24267578125,-0.09130859375,-13.414634146341465,-3.231707317073171,8.841463414634147,125,6
332,-1.07275390625,0.2724609375,-0.0751953125,-14.573170731707318,-7.01219512195122,11.158536585365855,125,6
333,-1.0869140625,0.291015625,-0.06689453125,-13.78048780487805,-11.890243902439025,12.80487804878049,125,6
334,-1.0595703125,0.32080078125,-0.04931640625,-11.036585365853659,-18.170731707317074,13.963414634146343,125,6
335,-1.01708984375,0.36376953125,-0.03759765625,-5.0,-26.951219512195124,0.06097560975609757,125,6
336,-1.01123046875,0.49560546875,-0.02685546875,-15.426829268292684,-34.146341463414636,18.414634146341466,125,6
337,-1.033203125,0.3427734375,-0.04833984375,2.682926829268293,-40.36585365853659,22.31707317073171,125,6
338,-1.0498046875,0.34130859375,-0.0498046875,5.548780487804878,-44.87804878048781,24.207317073170735,125,6
339,-1.04150390625,0.337890625,-0.0087890625,4.634146341463415,-31.34146341463415,26.34146341463415,125,6
340,-1.00244140625,0.359375,0.0302734375,4.024390243902439,-49.32926829268293,28.170731707317074,125,6
341,-0.9658203125,0.3642578125,0.0849609375,4.451219512195122,-52.50000000000001,28.780487804878053,125,6
342,-0.91796875,0.384765625,0.1328125,7.01219512195122,-57.50000000000001,29.207317073170735,125,6
343,-0.8818359375,0.419921875,0.1435546875,10.792682926829269,-64.63414634146342,29.02439024390244,125,6
344,-0.99658203125,0.42822265625,0.15380859375,13.353658536585368,-70.48780487804879,26.89024390243903,125,6
345,-0.86083984375,0.44873046875,0.1826171875,15.121951219512196,-74.75609756097562,24.634146341463417,125,6
346,-0.8330078125,0.48046875,0.1845703125,16.158536585365855,-78.71951219512196,22.500000000000004,125,6
347,-0.828125,0.4990234375,0.20166015625,16.463414634146343,-82.37804878048782,21.28048780487805,125,6
348,-0.83154296875,0.4833984375,0.228515625,17.012195121951223,-84.08536585365854,21.585365853658537,125,6
349,-0.83251953125,0.46337890625,0.24609375,17.25609756097561,-85.67073170731707,20.731707317073173,125,6
350,-0.83544921875,0.4423828125,0.25634765625,17.134146341463417,-87.50000000000001,20.243902439024392,125,6
351,-0.84912109375,0.44873046875,0.2705078125,17.804878048780488,-88.29268292682927,19.32926829268293,125,6
352,-0.826171875,0.4169921875,0.291015625,17.682926829268293,-89.32926829268294,19.451219512195124,125,6
353,-0.8017578125,0.4140625,0.27587890625,17.98780487804878,-90.97560975609757,19.939024390243905,125,6
354,-0.794921875,0.4072265625,0.29345703125,18.597560975609756,-95.67073170731709,21.52439024390244,125,6
355,-0.80908203125,0.37744140625,0.287109375,23.84146341463415,-102.25609756097562,22.80487804878049,125,6
356,-0.83544921875,0.34912109375,0.2939453125,29.02439024390244,-106.03658536585367,23.902439024390247,125,6
357,-0.8203125,0.35595703125,0.31884765625,34.51219512195122,-109.26829268292684,26.219512195121954,125,6
358,-0.7783203125,0.4970703125,0.35595703125,34.81707317073171,-109.39024390243904,28.658536585365855,125,6
359,-0.72314453125,0.41552734375,0.3818359375,46.646341463414636,-107.31707317073172,31.09756097560976,125,6
360,-0.68115234375,0.41796875,0.38623046875,25.975609756097562,-104.93902439024392,33.109756097560975,125,6
361,-0.67138671875,0.431640625,0.4072265625,22.621951219512198,-104.26829268292684,34.75609756097561,125,6
362,-0.646484375,0.423828125,0.41357421875,21.951219512195124,-105.1829268292683,36.34146341463415,125,6
363,-0.64013671875,0.40478515625,0.44775390625,24.085365853658537,-106.89024390243904,38.10975609756098,125,6
364,-0.62744140625,0.39599609375,0.46630859375,28.658536585365855,-111.15853658536587,39.08536585365854,125,6
365,-0.6025390625,0.39208984375,0.47998046875,34.69512195121951,-115.12195121951221,39.57317073170732,125,6
366,-0.6083984375,0.38671875,0.48291015625,39.81707317073171,-117.13414634146342,40.54878048780488,125,6
367,-0.59375,0.39453125,0.49169921875,43.90243902439025,-118.96341463414635,41.21951219512196,125,6
368,-0.55224609375,0.43994140625,0.5107421875,46.03658536585366,-118.47560975609757,41.40243902439025,125,6
369,-0.49560546875,0.48681640625,0.52734375,44.32926829268293,-115.79268292682927,41.40243902439025,125,6
370,-0.435546875,0.49462890625,0.51806640625,39.146341463414636,-112.6219512195122,41.40243902439025,125,6
371,-0.41650390625,0.4970703125,0.548828125,33.71951219512196,-108.96341463414635,40.79268292682927,125,6
372,-0.4013671875,0.4892578125,0.54296875,30.54878048780488,-106.82926829268294,40.0609756097561,125,6
373,-0.38623046875,0.46484375,0.5341796875,30.182926829268297,-106.40243902439025,38.90243902439025,125,6
374,-0.4033203125,0.4541015625,0.54833984375,32.07317073170732,-107.6829268292683,37.37804878048781,125,6
375,-0.3798828125,0.45849609375,0.5654296875,35.670731707317074,-110.1829268292683,36.646341463414636,125,6
376,-0.373046875,0.447265625,0.5673828125,38.41463414634147,-112.98780487804879,37.80487804878049,125,6
377,-0.3984375,0.42041015625,0.55029296875,39.87804878048781,-114.51219512195122,38.71951219512196,125,6
378,-0.40283203125,0.419921875,0.552734375,43.59756097560976,-115.91463414634147,40.1219512195122,125,6
379,-0.39697265625,0.443359375,0.5810546875,48.170731707317074,-116.52439024390245,40.97560975609756,125,6
380,-0.35693359375,0.474609375,0.63623046875,50.79268292682927,-115.1829268292683,42.50000000000001,125,6
381,-0.322265625,0.513671875,0.6240234375,51.15853658536586,-113.17073170731709,44.451219512195124,125,6
382,-0.322265625,0.5283203125,0.50439453125,48.04878048780488,-108.59756097560977,46.09756097560976,125,6
383,-0.2998046875,0.541015625,0.615234375,42.743902439024396,-103.90243902439025,62.37804878048781,125,6
384,-0.27587890625,0.578125,0.630859375,38.53658536585366,-101.09756097560977,47.37804878048781,125,6
385,-0.2646484375,0.5654296875,0.6044921875,36.646341463414636,-100.85365853658537,49.69512195121952,125,6
386,-0.2685546875,0.546875,0.59716796875,37.987804878048784,-102.19512195121952,50.670731707317074,125,6
387,-0.26708984375,0.5302734375,0.5986328125,43.53658536585366,-107.6219512195122,52.987804878048784,125,6
388,-0.296875,0.4912109375,0.56640625,47.31707317073171,-111.21951219512196,54.32926829268293,125,6
389,-0.28759765625,0.48779296875,0.5556640625,50.426829268292686,-113.41463414634147,55.243902439024396,125,6
390,-0.2626953125,0.5185546875,0.57080078125,50.1829268292683,-110.85365853658537,55.67073170731708,125,6
391,-0.22900390625,0.55712890625,0.5888671875,43.47560975609756,-103.71951219512196,56.40243902439025,125,6
392,-0.134765625,0.6220703125,0.61083984375,35.54878048780488,-96.70731707317074,56.585365853658544,125,6
393,-0.11767578125,0.630859375,0.638671875,27.743902439024392,-89.63414634146342,57.31707317073171,125,6
394,-0.10498046875,0.6357421875,0.66015625,26.09756097560976,-87.01219512195122,56.768292682926834,125,6
395,-0.09130859375,0.6396484375,0.64892578125,27.743902439024392,-87.98780487804879,57.743902439024396,125,6
396,-0.11376953125,0.60595703125,0.60546875,29.26829268292683,-90.1219512195122,58.963414634146346,125,6
397,-0.142578125,0.5859375,0.57568359375,33.23170731707317,-78.23170731707317,59.32926829268293,125,6
398,-0.1533203125,0.56591796875,0.54931640625,38.963414634146346,-99.14634146341464,60.487804878048784,125,6
399,-0.1669921875,0.52783203125,0.52978515625,42.25609756097561,-102.19512195121952,61.40243902439025,125,6
400,-0.13818359375,0.55712890625,0.53076171875,43.170731707317074,-100.1829268292683,61.34146341463415,125,6
401,-0.0830078125,0.5908203125,0.53271484375,38.47560975609756,-96.34146341463415,61.585365853658544,125,6
402,-0.01513671875,0.6484375,0.53125,46.58536585365854,-90.85365853658537,62.560975609756106,125,6
403,0.01513671875,0.64306640625,0.5185546875,22.743902439024392,-86.70731707317074,63.53658536585366,125,6
404,0.02685546875,0.62646484375,0.50439453125,18.10975609756098,-84.75609756097562,64.45121951219512,125,6
405,0.03515625,0.59326171875,0.51513671875,17.98780487804878,-85.60975609756099,65.54878048780489,125,6
406,0.04638671875,0.5859375,0.51953125,19.02439024390244,-87.50000000000001,65.73170731707317,125,6
407,0.06689453125,0.60107421875,0.5302734375,22.195121951219512,-91.15853658536587,66.52439024390245,125,6
408,0.08056640625,0.587890625,0.51611328125,26.707317073170735,-97.07317073170732,67.37804878048782,125,6
409,0.0712890625,0.56396484375,0.50732421875,32.80487804878049,-100.73170731707317,66.64634146341464,125,6
410,0.07177734375,0.55712890625,0.5810546875,34.390243902439025,-100.1219512195122,65.0609756097561,125,6
411,0.01416015625,0.61572265625,0.54443359375,46.524390243902445,-95.73170731707317,63.963414634146346,125,6
412,0.18994140625,0.6591796875,0.54150390625,24.512195121951223,-90.2439024390244,64.08536585365854,125,6
413,0.19140625,0.646484375,0.541015625,18.597560975609756,-85.3048780487805,64.87804878048782,125,6
414,0.19677734375,0.6123046875,0.55029296875,17.743902439024392,-82.92682926829269,65.1829268292683,125,6
415,0.20361328125,0.59521484375,0.52783203125,20.670731707317074,-84.63414634146342,66.58536585365854,125,6
416,0.18017578125,0.54248046875,0.5078125,25.670731707317074,-86.89024390243904,67.5,125,6
417,0.189453125,0.54248046875,0.5068359375,32.37804878048781,-90.79268292682927,68.35365853658537,125,6
418,0.18212890625,0.5419921875,0.48388671875,38.71951219512196,-95.91463414634147,70.67073170731707,125,6
419,0.16015625,0.54541015625,0.4658203125,44.08536585365854,-100.1219512195122,72.01219512195122,125,6
420,0.16796875,0.55029296875,0.53466796875,43.78048780487805,-99.39024390243904,73.35365853658537,125,6
421,0.19384765625,0.5703125,0.52880859375,37.13414634146342,-109.20731707317074,73.96341463414635,125,6
422,0.12646484375,0.6220703125,0.576171875,29.512195121951223,-86.70731707317074,74.26829268292684,125,6
423,0.2861328125,0.619140625,0.60498046875,24.390243902439025,-81.15853658536587,75.2439024390244,125,6
424,0.3095703125,0.5947265625,0.59814453125,23.353658536585368,-93.59756097560977,75.79268292682927,125,6
425,0.32470703125,0.56494140625,0.560546875,25.365853658536587,-78.96341463414635,76.21951219512196,125,6
426,0.32470703125,0.529296875,0.4765625,29.75609756097561,-81.21951219512196,76.09756097560977,125,6
427,0.3544921875,0.52685546875,0.43115234375,35.1829268292683,-84.57317073170732,76.15853658536587,125,6
428,0.35205078125,0.5390625,0.40185546875,40.426829268292686,-87.25609756097562,77.25609756097562,125,6
429,0.36767578125,0.564453125,0.36328125,42.43902439024391,-88.90243902439025,78.96341463414635,125,6
430,0.35791015625,0.57958984375,0.35009765625,38.84146341463415,-87.01219512195122,80.0,125,6
431,0.37255859375,0.5810546875,0.34033203125,30.0609756097561,-82.07317073170732,81.34146341463415,125,6
432,0.39453125,0.611328125,0.3828125,21.28048780487805,-76.76829268292684,82.13414634146342,125,6
433,0.4091796875,0.6064453125,0.4375,31.158536585365855,-73.35365853658537,82.8048780487805,125,6
434,0.4140625,0.57421875,0.4345703125,13.902439024390246,-72.7439024390244,83.35365853658537,125,6
435,0.39794921875,0.5341796875,0.43310546875,14.878048780487806,-74.20731707317074,83.59756097560977,125,6
436,0.39892578125,0.51513671875,0.43505859375,18.719512195121954,-75.42682926829269,82.8048780487805,125,6
437,0.42041015625,0.53662109375,0.408203125,22.80487804878049,-77.8048780487805,82.5609756097561,125,6
438,0.439453125,0.55908203125,0.3603515625,25.121951219512198,-78.84146341463415,82.8658536585366,125,6
439,0.4501953125,0.5654296875,0.30224609375,22.439024390243905,-77.7439024390244,82.98780487804879,125,6
440,0.4990234375,0.59375,0.25927734375,16.28048780487805,-75.0609756097561,82.6829268292683,125,6
441,0.53955078125,0.60498046875,0.26513671875,10.182926829268293,-72.6829268292683,82.92682926829269,125,6
442,0.55615234375,0.58837890625,0.28857421875,6.402439024390245,-72.31707317073172,83.17073170731707,125,6
443,0.54443359375,0.55908203125,0.32373046875,5.365853658536586,-71.95121951219512,83.84146341463415,125,6
444,0.51708984375,0.4765625,0.353515625,5.7926829268292686,-70.67073170731707,83.71951219512196,125,6
445,0.623046875,0.4453125,0.35302734375,8.048780487804878,-69.51219512195122,83.04878048780489,125,6
446,0.5029296875,0.4638671875,0.3232421875,11.951219512195124,-69.45121951219512,82.43902439024392,125,6
447,0.5263671875,0.4853515625,0.28271484375,14.573170731707318,-69.87804878048782,82.5609756097561,125,6
448,0.544921875,0.49365234375,0.224609375,14.02439024390244,-70.1219512195122,82.43902439024392,125,6
449,0.57666015625,0.3779296875,0.19384765625,11.951219512195124,-68.47560975609757,81.64634146341464,125,6
450,0.61767578125,0.517578125,0.1884765625,9.817073170731708,-67.5,81.21951219512196,125,6
451,0.6611328125,0.54833984375,0.20458984375,7.378048780487806,-67.19512195121952,80.60975609756099,125,6
452,0.6826171875,0.53369140625,0.20947265625,5.3048780487804885,-67.43902439024392,79.93902439024392,125,6
453,0.6669921875,0.49609375,0.25,3.780487804878049,-66.70731707317074,79.32926829268294,125,6
454,0.64501953125,0.46142578125,0.26416015625,3.536585365853659,-65.54878048780489,78.23170731707317,125,6
455,0.6513671875,0.45849609375,0.2822265625,4.207317073170732,-64.9390243902439,77.25609756097562,125,6
456,0.6533203125,0.4501953125,0.26953125,6.52439024390244,-65.48780487804879,76.40243902439025,125,6
457,0.65087890625,0.43505859375,0.24462890625,8.414634146341465,-66.28048780487805,75.3658536585366,125,6
458,0.64794921875,0.416015625,0.20654296875,10.30487804878049,-67.01219512195122,74.08536585365854,125,6
459,0.66650390625,0.423828125,0.19091796875,11.402439024390246,-67.7439024390244,73.10975609756098,125,6
460,0.68310546875,0.45263671875,0.18115234375,12.439024390243903,-68.41463414634147,72.31707317073172,125,6
461,0.71337890625,0.4755859375,0.158203125,11.341463414634147,-67.98780487804879,72.25609756097562,125,6
462,0.734375,0.46533203125,0.140625,8.292682926829269,-66.40243902439025,72.92682926829269,125,6
463,0.7216796875,0.45068359375,0.14013671875,5.2439024390243905,-65.42682926829269,73.78048780487805,125,6
464,0.70361328125,0.43017578125,0.1572265625,3.1097560975609757,-64.63414634146342,74.75609756097562,125,6
465,0.69873046875,0.40869140625,0.17333984375,1.6463414634146343,-63.29268292682927,74.69512195121952,125,6
466,0.6923828125,0.3857421875,0.1708984375,0.5487804878048781,-62.50000000000001,75.3658536585366,125,6
467,0.69287109375,0.36767578125,0.1689453125,0.853658536585366,-62.865853658536594,74.93902439024392,125,6
468,0.7158203125,0.365234375,0.15966796875,2.1951219512195124,-63.84146341463415,74.26829268292684,125,6
469,0.74658203125,0.251953125,0.146484375,3.780487804878049,-65.48780487804879,73.23170731707317,125,6
470,0.73583984375,0.37353515625,0.12353515625,5.121951219512195,-66.82926829268293,72.8048780487805,125,6
471,0.7451171875,0.3740234375,0.09033203125,5.609756097560976,-67.7439024390244,71.82926829268294,125,6
472,0.7607421875,0.3818359375,0.10400390625,5.609756097560976,-68.35365853658537,71.40243902439025,125,6
473,0.77587890625,0.38818359375,0.1162109375,4.634146341463415,-68.10975609756098,71.03658536585367,125,6
474,0.7587890625,0.37939453125,0.244140625,2.8658536585365857,-66.15853658536587,70.48780487804879,125,6
475,0.7607421875,0.3798828125,0.00537109375,0.30487804878048785,-62.6829268292683,68.59756097560977,125,6
476,0.76513671875,0.3857421875,0.1162109375,-3.231707317073171,-58.78048780487806,67.07317073170732,125,6
477,0.7861328125,0.38818359375,0.11962890625,-4.573170731707317,-56.21951219512196,65.2439024390244,125,6
478,0.7880859375,0.36669921875,0.1123046875,-3.1097560975609757,-55.304878048780495,62.865853658536594,125,6
479,0.79248046875,0.36328125,0.08154296875,-0.1829268292682927,-55.487804878048784,60.79268292682927,125,6
480,0.78662109375,0.3369140625,0.08251953125,2.7439024390243905,-55.304878048780495,57.987804878048784,125,6
481,0.79443359375,0.36181640625,0.09375,5.487804878048781,-54.93902439024391,55.365853658536594,125,6
482,0.8056640625,0.38623046875,0.11328125,7.439024390243903,-53.90243902439025,52.926829268292686,125,6
483,0.80419921875,0.4033203125,0.11572265625,8.963414634146343,-52.804878048780495,50.85365853658537,125,6
484,0.7958984375,0.41015625,0.09814453125,9.085365853658537,-51.40243902439025,49.268292682926834,125,6
485,0.79443359375,0.408203125,0.091796875,9.329268292682928,-49.81707317073171,47.19512195121952,125,6
486,0.81494140625,0.41259765625,0.0947265625,9.146341463414634,-48.35365853658537,45.36585365853659,125,6
487,0.8193359375,0.4130859375,0.07275390625,8.170731707317074,-46.951219512195124,43.47560975609756,125,6
488,0.82568359375,0.41845703125,0.060546875,7.378048780487806,-45.487804878048784,41.03658536585366,125,6
489,0.8193359375,0.416015625,0.044921875,7.134146341463415,-43.65853658536586,39.024390243902445,125,6
490,0.8427734375,0.42822265625,0.0517578125,6.829268292682928,-42.01219512195122,37.07317073170732,125,6
491,0.84423828125,0.42529296875,0.0634765625,7.317073170731708,-40.36585365853659,34.87804878048781,125,6
492,0.83154296875,0.416015625,0.078125,7.500000000000001,-38.59756097560976,32.6829268292683,125,6
493,0.83642578125,0.40087890625,0.0859375,7.621951219512196,-36.09756097560976,30.121951219512198,125,6
494,0.83251953125,0.39013671875,0.08984375,7.621951219512196,-34.024390243902445,27.621951219512198,125,6
495,0.82373046875,0.38134765625,0.06396484375,7.317073170731708,-32.37804878048781,24.573170731707318,125,6
496,0.822265625,0.2529296875,0.03564453125,8.048780487804878,-31.76829268292683,21.585365853658537,125,6
497,0.82373046875,0.3671875,0.01611328125,9.02439024390244,-31.646341463414636,19.146341463414636,125,6
498,0.82568359375,0.34814453125,0.01513671875,8.963414634146343,-30.000000000000004,16.52439024390244,125,6
499,0.81640625,0.330078125,0.0,7.865853658536586,-28.170731707317074,14.085365853658537,125,6
